lextale_instructions.started,lextale_instructions.stopped,lextale_instructions_loop.thisRepN,lextale_instructions_loop.thisTrialN,lextale_instructions_loop.thisN,lextale_instructions_loop.thisIndex,lextale_instructions_loop.ran,instructions_text,continue_text,participant,session,date,expName,psychopyVersion,OS,frameRate,lextale_practice.started,lextale_practice.stopped,key_resp_lextale_practice.keys,key_resp_lextale_practice.corr,key_resp_lextale_practice.rt,key_resp_lextale_practice.duration,lextale_practice_feedback.started,lextale_practice_feedback.stopped,lextale_practice_trials.thisRepN,lextale_practice_trials.thisTrialN,lextale_practice_trials.thisN,lextale_practice_trials.thisIndex,lextale_practice_trials.ran,stim,word,correct_response,prac_button_real,prac_button_false,lextale_check.started,lextale_check.stopped,lextale_trial.started,lextale_trial.stopped,key_resp_lextale_trial.keys,key_resp_lextale_trial.corr,key_resp_lextale_trial.rt,key_resp_lextale_trial.duration,lextail_trials.thisRepN,lextail_trials.thisTrialN,lextail_trials.thisN,lextail_trials.thisIndex,lextail_trials.ran,type,correct_reponse,button_real,button_false
0.001,4.295,0,0,0,0,1,"Este es un test de vocabulario en español. 
  
  A continuación vas a ver 90 secuencias de letras que parecen 'españolas'.
  
  Solo algunas de ellas son palabras de verdad.",(presiona la barra espaciadora para continuar),5a06ebf2c259f300017656ee,001,2025-04-30_10h01.31.083,empathy_intonation_perc,2024.1.4,Win32,60.0240096,,,,,,,,,,,,,,,,,,,,,,,,,,,,,,,,,,,
4.295,7.878,0,1,1,1,1,"Por favor, señala las palabras que tú conoces (aquellas que estás convencido que son palabras españolas, incluso aunque no seas capaz de dar el significado preciso).",(presiona la barra espaciadora para continuar),5a06ebf2c259f300017656ee,001,2025-04-30_10h01.31.083,empathy_intonation_perc,2024.1.4,Win32,60.0240096,,,,,,,,,,,,,,,,,,,,,,,,,,,,,,,,,,,
7.878,20.128,0,2,2,2,1,Pero cuidado: los errores se penalizan. Por eso no tiene sentido tratar de incrementar tu puntuación marcando como reales palabras que nunca has visto.,(presiona la barra espaciadora para continuar),5a06ebf2c259f300017656ee,001,2025-04-30_10h01.31.083,empathy_intonation_perc,2024.1.4,Win32,60.0240096,,,,,,,,,,,,,,,,,,,,,,,,,,,,,,,,,,,
20.129,21.377,0,3,3,3,1,"Presiona la tecla 1 si piensas que es una palabra real y la tecla 
  0 si piensas que es una palabra falsa. 
  
  Vamos a practicar un poco...",(presiona la barra espaciadora para continuar),5a06ebf2c259f300017656ee,001,2025-04-30_10h01.31.083,empathy_intonation_perc,2024.1.4,Win32,60.0240096,,,,,,,,,,,,,,,,,,,,,,,,,,,,,,,,,,,
,,,,,,,,,5a06ebf2c259f300017656ee,001,2025-04-30_10h01.31.083,empathy_intonation_perc,2024.1.4,Win32,60.0240096,21.38,59.677,1,0,37.76,0,59.677,60.677,0,0,0,0,1,0,depiste,0,REAL,FALSA,,,,,,,,,,,,,,,,,
,,,,,,,,,5a06ebf2c259f300017656ee,001,2025-04-30_10h01.31.083,empathy_intonation_perc,2024.1.4,Win32,60.0240096,60.679,62.11,1,1,0.911,0,62.11,63.11,0,1,1,1,1,0,sí,1,REAL,FALSA,,,,,,,,,,,,,,,,,
,,,,,,,,,5a06ebf2c259f300017656ee,001,2025-04-30_10h01.31.083,empathy_intonation_perc,2024.1.4,Win32,60.0240096,63.111,64.394,0,1,0.741,0.001,64.394,65.394,0,2,2,2,1,0,coné,0,REAL,FALSA,,,,,,,,,,,,,,,,,
,,,,,,,,,5a06ebf2c259f300017656ee,001,2025-04-30_10h01.31.083,empathy_intonation_perc,2024.1.4,Win32,60.0240096,65.394,66.327,1,0,0.398,0,66.327,67.327,0,3,3,3,1,0,calpar,0,REAL,FALSA,,,,,,,,,,,,,,,,,
,,,,,,,,,5a06ebf2c259f300017656ee,001,2025-04-30_10h01.31.083,empathy_intonation_perc,2024.1.4,Win32,60.0240096,67.328,68.326,0,1,0.459,0,68.326,69.326,0,4,4,4,1,0,joten,0,REAL,FALSA,,,,,,,,,,,,,,,,,
,,,,,,,,,5a06ebf2c259f300017656ee,001,2025-04-30_10h01.31.083,empathy_intonation_perc,2024.1.4,Win32,60.0240096,69.328,70.41,1,1,0.554,0,70.41,71.41,0,5,5,5,1,0,sacapuntas,1,REAL,FALSA,,,,,,,,,,,,,,,,,
,,,,,,,,,5a06ebf2c259f300017656ee,001,2025-04-30_10h01.31.083,empathy_intonation_perc,2024.1.4,Win32,60.0240096,71.411,73.377,1,0,1.425,,73.377,74.377,0,6,6,6,1,0,priba,0,REAL,FALSA,,,,,,,,,,,,,,,,,
,,,,,,,,,5a06ebf2c259f300017656ee,001,2025-04-30_10h01.31.083,empathy_intonation_perc,2024.1.4,Win32,60.0240096,74.377,76.794,0,1,1.882,,76.794,77.793,0,7,7,7,1,0,pelasula,0,REAL,FALSA,,,,,,,,,,,,,,,,,
,,,,,,,,,5a06ebf2c259f300017656ee,001,2025-04-30_10h01.31.083,empathy_intonation_perc,2024.1.4,Win32,60.0240096,77.794,78.511,0,0,0.185,,78.511,79.51,0,8,8,8,1,0,bien,1,REAL,FALSA,,,,,,,,,,,,,,,,,
,,,,,,,,,5a06ebf2c259f300017656ee,001,2025-04-30_10h01.31.083,empathy_intonation_perc,2024.1.4,Win32,60.0240096,79.511,121.362,0,0,41.312,0,121.362,122.359,0,9,9,9,1,0,casa,1,REAL,FALSA,,,,,,,,,,,,,,,,,
,,,,,,,,,5a06ebf2c259f300017656ee,001,2025-04-30_10h01.31.083,empathy_intonation_perc,2024.1.4,Win32,60.0240096,122.361,123.193,1,0,0.293,0,123.193,124.193,0,10,10,10,1,0,lejo,0,REAL,FALSA,,,,,,,,,,,,,,,,,
,,,,,,,,,5a06ebf2c259f300017656ee,001,2025-04-30_10h01.31.083,empathy_intonation_perc,2024.1.4,Win32,60.0240096,124.193,125.61,1,0,0.871,0,125.61,126.609,0,11,11,11,1,0,pretantas,0,REAL,FALSA,,,,,,,,,,,,,,,,,
,,,,,,,,,5a06ebf2c259f300017656ee,001,2025-04-30_10h01.31.083,empathy_intonation_perc,2024.1.4,Win32,60.0240096,,,,,,,,,,,,,,,,,,,126.609,131.276,,,,,,,,,,,,,,,
,,,,,,,,,5a06ebf2c259f300017656ee,001,2025-04-30_10h01.31.083,empathy_intonation_perc,2024.1.4,Win32,60.0240096,,,,,,,,,,,,,,122,boñaz,,,,,,131.283,134.06,0,1,2.234,0,0,0,0,121,1,pseudoword,0,REAL,FALSA
,,,,,,,,,5a06ebf2c259f300017656ee,001,2025-04-30_10h01.31.083,empathy_intonation_perc,2024.1.4,Win32,60.0240096,,,,,,,,,,,,,,45,total,,,,,,134.061,136.743,1,0,2.14,0.001,0,1,1,44,1,two_way_cognate,1,REAL,FALSA
,,,,,,,,,5a06ebf2c259f300017656ee,001,2025-04-30_10h01.31.083,empathy_intonation_perc,2024.1.4,Win32,60.0240096,,,,,,,,,,,,,,189,medium,,,,,,136.743,139.176,1,0,1.888,0,0,2,2,188,1,pseudoword,0,REAL,FALSA
,,,,,,,,,5a06ebf2c259f300017656ee,001,2025-04-30_10h01.31.083,empathy_intonation_perc,2024.1.4,Win32,60.0240096,,,,,,,,,,,,,,86,cuenco,,,,,,139.177,141.259,1,0,1.535,0,0,3,3,85,1,non_cognate,1,REAL,FALSA
,,,,,,,,,5a06ebf2c259f300017656ee,001,2025-04-30_10h01.31.083,empathy_intonation_perc,2024.1.4,Win32,60.0240096,,,,,,,,,,,,,,75,patada,,,,,,141.259,143.01,1,0,1.223,0,0,4,4,74,1,non_cognate,1,REAL,FALSA
,,,,,,,,,5a06ebf2c259f300017656ee,001,2025-04-30_10h01.31.083,empathy_intonation_perc,2024.1.4,Win32,60.0240096,,,,,,,,,,,,,,181,gravés,,,,,,143.011,145.559,1,0,2.016,0,0,5,5,180,1,pseudoword,0,REAL,FALSA
,,,,,,,,,5a06ebf2c259f300017656ee,001,2025-04-30_10h01.31.083,empathy_intonation_perc,2024.1.4,Win32,60.0240096,,,,,,,,,,,,,,187,nomata,,,,,,145.56,147.926,0,1,1.816,0.001,0,6,6,186,1,pseudoword,0,REAL,FALSA
,,,,,,,,,5a06ebf2c259f300017656ee,001,2025-04-30_10h01.31.083,empathy_intonation_perc,2024.1.4,Win32,60.0240096,,,,,,,,,,,,,,69,tiza,,,,,,147.926,149.292,1,0,0.832,0.001,0,7,7,68,1,non_cognate,1,REAL,FALSA
,,,,,,,,,5a06ebf2c259f300017656ee,001,2025-04-30_10h01.31.083,empathy_intonation_perc,2024.1.4,Win32,60.0240096,,,,,,,,,,,,,,99,bugor,,,,,,149.292,150.493,0,1,0.668,0,0,8,8,98,1,pseudoword,0,REAL,FALSA
,,,,,,,,,5a06ebf2c259f300017656ee,001,2025-04-30_10h01.31.083,empathy_intonation_perc,2024.1.4,Win32,60.0240096,,,,,,,,,,,,,,177,entodo,,,,,,150.493,151.559,1,0,0.527,0.001,0,9,9,176,1,pseudoword,0,REAL,FALSA
,,,,,,,,,5a06ebf2c259f300017656ee,001,2025-04-30_10h01.31.083,empathy_intonation_perc,2024.1.4,Win32,60.0240096,,,,,,,,,,,,,,155,kugis,,,,,,151.56,152.742,1,0,0.651,0,0,10,10,154,1,pseudoword,0,REAL,FALSA
,,,,,,,,,5a06ebf2c259f300017656ee,001,2025-04-30_10h01.31.083,empathy_intonation_perc,2024.1.4,Win32,60.0240096,,,,,,,,,,,,,,18,altar,,,,,,152.743,153.843,1,0,0.567,0,0,11,11,17,1,three_way_cognate,1,REAL,FALSA
,,,,,,,,,5a06ebf2c259f300017656ee,001,2025-04-30_10h01.31.083,empathy_intonation_perc,2024.1.4,Win32,60.0240096,,,,,,,,,,,,,,95,listo,,,,,,153.843,155.009,1,0,0.624,0,0,12,12,94,1,non_cognate,1,REAL,FALSA
,,,,,,,,,5a06ebf2c259f300017656ee,001,2025-04-30_10h01.31.083,empathy_intonation_perc,2024.1.4,Win32,60.0240096,,,,,,,,,,,,,,71,torta,,,,,,155.01,156.326,1,0,0.78,0,0,13,13,70,1,non_cognate,1,REAL,FALSA
,,,,,,,,,5a06ebf2c259f300017656ee,001,2025-04-30_10h01.31.083,empathy_intonation_perc,2024.1.4,Win32,60.0240096,,,,,,,,,,,,,,113,nasce,,,,,,156.326,157.509,0,1,0.65,0,0,14,14,112,1,pseudoword,0,REAL,FALSA
,,,,,,,,,5a06ebf2c259f300017656ee,001,2025-04-30_10h01.31.083,empathy_intonation_perc,2024.1.4,Win32,60.0240096,,,,,,,,,,,,,,16,chat,,,,,,157.509,158.693,0,1,0.663,0.002,0,15,15,15,1,three_way_cognate,1,REAL,FALSA
,,,,,,,,,5a06ebf2c259f300017656ee,001,2025-04-30_10h01.31.083,empathy_intonation_perc,2024.1.4,Win32,60.0240096,,,,,,,,,,,,,,129,vinzó,,,,,,158.693,159.942,1,0,0.716,0,0,16,16,128,1,pseudoword,0,REAL,FALSA
,,,,,,,,,5a06ebf2c259f300017656ee,001,2025-04-30_10h01.31.083,empathy_intonation_perc,2024.1.4,Win32,60.0240096,,,,,,,,,,,,,,70,ánimo,,,,,,159.942,161.092,1,0,0.632,0,0,17,17,69,1,non_cognate,1,REAL,FALSA
,,,,,,,,,5a06ebf2c259f300017656ee,001,2025-04-30_10h01.31.083,empathy_intonation_perc,2024.1.4,Win32,60.0240096,,,,,,,,,,,,,,2,tumor,,,,,,161.092,162.259,1,0,0.644,0,0,18,18,1,1,three_way_cognate,1,REAL,FALSA
,,,,,,,,,5a06ebf2c259f300017656ee,001,2025-04-30_10h01.31.083,empathy_intonation_perc,2024.1.4,Win32,60.0240096,,,,,,,,,,,,,,79,suelo,,,,,,162.259,163.392,0,1,0.62,0,0,19,19,78,1,non_cognate,1,REAL,FALSA
,,,,,,,,,5a06ebf2c259f300017656ee,001,2025-04-30_10h01.31.083,empathy_intonation_perc,2024.1.4,Win32,60.0240096,,,,,,,,,,,,,,174,pabea,,,,,,163.392,164.842,1,0,0.918,0,0,20,20,173,1,pseudoword,0,REAL,FALSA
,,,,,,,,,5a06ebf2c259f300017656ee,001,2025-04-30_10h01.31.083,empathy_intonation_perc,2024.1.4,Win32,60.0240096,,,,,,,,,,,,,,24,retina,,,,,,164.842,165.875,1,0,0.505,0,0,21,21,23,1,three_way_cognate,1,REAL,FALSA
,,,,,,,,,5a06ebf2c259f300017656ee,001,2025-04-30_10h01.31.083,empathy_intonation_perc,2024.1.4,Win32,60.0240096,,,,,,,,,,,,,,143,hurcos,,,,,,165.877,166.877,1,0,0.474,0.001,0,22,22,142,1,pseudoword,0,REAL,FALSA
,,,,,,,,,5a06ebf2c259f300017656ee,001,2025-04-30_10h01.31.083,empathy_intonation_perc,2024.1.4,Win32,60.0240096,,,,,,,,,,,,,,94,forro,,,,,,166.878,168.109,1,0,0.709,0,0,23,23,93,1,non_cognate,1,REAL,FALSA
,,,,,,,,,5a06ebf2c259f300017656ee,001,2025-04-30_10h01.31.083,empathy_intonation_perc,2024.1.4,Win32,60.0240096,,,,,,,,,,,,,,72,rostro,,,,,,168.11,169.875,1,0,1.234,0,0,24,24,71,1,non_cognate,1,REAL,FALSA
,,,,,,,,,5a06ebf2c259f300017656ee,001,2025-04-30_10h01.31.083,empathy_intonation_perc,2024.1.4,Win32,60.0240096,,,,,,,,,,,,,,159,trcia,,,,,,169.876,171.326,1,0,0.941,,0,25,25,158,1,pseudoword,0,REAL,FALSA
,,,,,,,,,5a06ebf2c259f300017656ee,001,2025-04-30_10h01.31.083,empathy_intonation_perc,2024.1.4,Win32,60.0240096,,,,,,,,,,,,,,11,golf,,,,,,171.327,173.092,1,0,1.229,0,0,26,26,10,1,three_way_cognate,1,REAL,FALSA
,,,,,,,,,5a06ebf2c259f300017656ee,001,2025-04-30_10h01.31.083,empathy_intonation_perc,2024.1.4,Win32,60.0240096,,,,,,,,,,,,,,123,arane,,,,,,173.093,174.342,1,0,0.722,0,0,27,27,122,1,pseudoword,0,REAL,FALSA
,,,,,,,,,5a06ebf2c259f300017656ee,001,2025-04-30_10h01.31.083,empathy_intonation_perc,2024.1.4,Win32,60.0240096,,,,,,,,,,,,,,13,plan,,,,,,174.342,176.242,1,0,1.381,0,0,28,28,12,1,three_way_cognate,1,REAL,FALSA
,,,,,,,,,5a06ebf2c259f300017656ee,001,2025-04-30_10h01.31.083,empathy_intonation_perc,2024.1.4,Win32,60.0240096,,,,,,,,,,,,,,116,grigir,,,,,,176.243,178.092,1,0,1.318,0,0,29,29,115,1,pseudoword,0,REAL,FALSA
,,,,,,,,,5a06ebf2c259f300017656ee,001,2025-04-30_10h01.31.083,empathy_intonation_perc,2024.1.4,Win32,60.0240096,,,,,,,,,,,,,,103,vueras,,,,,,178.092,179.814,1,0,1.211,0,0,30,30,102,1,pseudoword,0,REAL,FALSA
,,,,,,,,,5a06ebf2c259f300017656ee,001,2025-04-30_10h01.31.083,empathy_intonation_perc,2024.1.4,Win32,60.0240096,,,,,,,,,,,,,,4,flora,,,,,,179.815,181.226,0,1,0.886,0,0,31,31,3,1,three_way_cognate,1,REAL,FALSA
,,,,,,,,,5a06ebf2c259f300017656ee,001,2025-04-30_10h01.31.083,empathy_intonation_perc,2024.1.4,Win32,60.0240096,,,,,,,,,,,,,,148,gino,,,,,,181.227,182.842,1,0,1.078,,0,32,32,147,1,pseudoword,0,REAL,FALSA
,,,,,,,,,5a06ebf2c259f300017656ee,001,2025-04-30_10h01.31.083,empathy_intonation_perc,2024.1.4,Win32,60.0240096,,,,,,,,,,,,,,64,rizado,,,,,,182.843,185.092,1,0,1.717,0,0,33,33,63,1,non_cognate,1,REAL,FALSA
,,,,,,,,,5a06ebf2c259f300017656ee,001,2025-04-30_10h01.31.083,empathy_intonation_perc,2024.1.4,Win32,60.0240096,,,,,,,,,,,,,,20,trauma,,,,,,185.093,186.492,1,0,0.855,0,0,34,34,19,1,three_way_cognate,1,REAL,FALSA
,,,,,,,,,5a06ebf2c259f300017656ee,001,2025-04-30_10h01.31.083,empathy_intonation_perc,2024.1.4,Win32,60.0240096,,,,,,,,,,,,,,112,samón,,,,,,186.492,187.809,1,0,0.799,0.001,0,35,35,111,1,pseudoword,0,REAL,FALSA
,,,,,,,,,5a06ebf2c259f300017656ee,001,2025-04-30_10h01.31.083,empathy_intonation_perc,2024.1.4,Win32,60.0240096,,,,,,,,,,,,,,114,dibrea,,,,,,187.809,189.176,0,1,0.831,0,0,36,36,113,1,pseudoword,0,REAL,FALSA
,,,,,,,,,5a06ebf2c259f300017656ee,001,2025-04-30_10h01.31.083,empathy_intonation_perc,2024.1.4,Win32,60.0240096,,,,,,,,,,,,,,131,fuar,,,,,,189.176,191.209,1,0,1.505,0,0,37,37,130,1,pseudoword,0,REAL,FALSA
,,,,,,,,,5a06ebf2c259f300017656ee,001,2025-04-30_10h01.31.083,empathy_intonation_perc,2024.1.4,Win32,60.0240096,,,,,,,,,,,,,,176,gripar,,,,,,191.209,192.725,0,1,0.978,0,0,38,38,175,1,pseudoword,0,REAL,FALSA
,,,,,,,,,5a06ebf2c259f300017656ee,001,2025-04-30_10h01.31.083,empathy_intonation_perc,2024.1.4,Win32,60.0240096,,,,,,,,,,,,,,96,caro,,,,,,192.726,194.692,1,0,1.43,0,0,39,39,95,1,non_cognate,1,REAL,FALSA
,,,,,,,,,5a06ebf2c259f300017656ee,001,2025-04-30_10h01.31.083,empathy_intonation_perc,2024.1.4,Win32,60.0240096,,,,,,,,,,,,,,119,esís,,,,,,194.692,196.092,1,0,0.858,0.001,0,40,40,118,1,pseudoword,0,REAL,FALSA
,,,,,,,,,5a06ebf2c259f300017656ee,001,2025-04-30_10h01.31.083,empathy_intonation_perc,2024.1.4,Win32,60.0240096,,,,,,,,,,,,,,59,feo,,,,,,196.093,197.458,1,0,0.825,0,0,41,41,58,1,non_cognate,1,REAL,FALSA
,,,,,,,,,5a06ebf2c259f300017656ee,001,2025-04-30_10h01.31.083,empathy_intonation_perc,2024.1.4,Win32,60.0240096,,,,,,,,,,,,,,142,parre,,,,,,197.459,198.842,1,0,0.846,0,0,42,42,141,1,pseudoword,0,REAL,FALSA
,,,,,,,,,5a06ebf2c259f300017656ee,001,2025-04-30_10h01.31.083,empathy_intonation_perc,2024.1.4,Win32,60.0240096,,,,,,,,,,,,,,65,guerra,,,,,,198.842,200.259,1,0,0.891,0,0,43,43,64,1,non_cognate,1,REAL,FALSA
,,,,,,,,,5a06ebf2c259f300017656ee,001,2025-04-30_10h01.31.083,empathy_intonation_perc,2024.1.4,Win32,60.0240096,,,,,,,,,,,,,,100,épinas,,,,,,200.261,201.808,1,0,1.009,0.001,0,44,44,99,1,pseudoword,0,REAL,FALSA
,,,,,,,,,5a06ebf2c259f300017656ee,001,2025-04-30_10h01.31.083,empathy_intonation_perc,2024.1.4,Win32,60.0240096,,,,,,,,,,,,,,32,animal,,,,,,201.809,203.276,1,0,0.933,0,0,45,45,31,1,two_way_cognate,1,REAL,FALSA
,,,,,,,,,5a06ebf2c259f300017656ee,001,2025-04-30_10h01.31.083,empathy_intonation_perc,2024.1.4,Win32,60.0240096,,,,,,,,,,,,,,50,sierra,,,,,,203.276,204.625,0,1,0.81,0,0,46,46,49,1,non_cognate,1,REAL,FALSA
,,,,,,,,,5a06ebf2c259f300017656ee,001,2025-04-30_10h01.31.083,empathy_intonation_perc,2024.1.4,Win32,60.0240096,,,,,,,,,,,,,,85,enorme,,,,,,204.626,205.876,0,1,0.716,0,0,47,47,84,1,non_cognate,1,REAL,FALSA
,,,,,,,,,5a06ebf2c259f300017656ee,001,2025-04-30_10h01.31.083,empathy_intonation_perc,2024.1.4,Win32,60.0240096,,,,,,,,,,,,,,105,peniz,,,,,,205.876,207.425,1,0,1.002,0,0,48,48,104,1,pseudoword,0,REAL,FALSA
,,,,,,,,,5a06ebf2c259f300017656ee,001,2025-04-30_10h01.31.083,empathy_intonation_perc,2024.1.4,Win32,60.0240096,,,,,,,,,,,,,,152,prave,,,,,,207.426,208.892,1,0,0.938,0,0,49,49,151,1,pseudoword,0,REAL,FALSA
,,,,,,,,,5a06ebf2c259f300017656ee,001,2025-04-30_10h01.31.083,empathy_intonation_perc,2024.1.4,Win32,60.0240096,,,,,,,,,,,,,,169,pitis,,,,,,208.892,209.825,1,0,0.384,0,0,50,50,168,1,pseudoword,0,REAL,FALSA
,,,,,,,,,5a06ebf2c259f300017656ee,001,2025-04-30_10h01.31.083,empathy_intonation_perc,2024.1.4,Win32,60.0240096,,,,,,,,,,,,,,133,conso,,,,,,209.826,211.008,1,0,0.641,0,0,51,51,132,1,pseudoword,0,REAL,FALSA
,,,,,,,,,5a06ebf2c259f300017656ee,001,2025-04-30_10h01.31.083,empathy_intonation_perc,2024.1.4,Win32,60.0240096,,,,,,,,,,,,,,145,rúo,,,,,,211.009,212.408,0,1,0.863,0.001,0,52,52,144,1,pseudoword,0,REAL,FALSA
,,,,,,,,,5a06ebf2c259f300017656ee,001,2025-04-30_10h01.31.083,empathy_intonation_perc,2024.1.4,Win32,60.0240096,,,,,,,,,,,,,,68,puñal,,,,,,212.409,214.61,1,0,1.678,0,0,53,53,67,1,non_cognate,1,REAL,FALSA
,,,,,,,,,5a06ebf2c259f300017656ee,001,2025-04-30_10h01.31.083,empathy_intonation_perc,2024.1.4,Win32,60.0240096,,,,,,,,,,,,,,43,honor,,,,,,214.611,216.158,1,0,1.01,0.001,0,54,54,42,1,two_way_cognate,1,REAL,FALSA
,,,,,,,,,5a06ebf2c259f300017656ee,001,2025-04-30_10h01.31.083,empathy_intonation_perc,2024.1.4,Win32,60.0240096,,,,,,,,,,,,,,30,fiscal,,,,,,216.159,217.559,1,0,0.851,0,0,55,55,29,1,two_way_cognate,1,REAL,FALSA
,,,,,,,,,5a06ebf2c259f300017656ee,001,2025-04-30_10h01.31.083,empathy_intonation_perc,2024.1.4,Win32,60.0240096,,,,,,,,,,,,,,15,test,,,,,,217.559,218.625,1,0,0.552,0,0,56,56,14,1,three_way_cognate,1,REAL,FALSA
,,,,,,,,,5a06ebf2c259f300017656ee,001,2025-04-30_10h01.31.083,empathy_intonation_perc,2024.1.4,Win32,60.0240096,,,,,,,,,,,,,,182,desaro,,,,,,218.625,220.209,1,0,1.059,0,0,57,57,181,1,pseudoword,0,REAL,FALSA
,,,,,,,,,5a06ebf2c259f300017656ee,001,2025-04-30_10h01.31.083,empathy_intonation_perc,2024.1.4,Win32,60.0240096,,,,,,,,,,,,,,166,anfia,,,,,,220.209,222.075,1,0,1.326,0.001,0,58,58,165,1,pseudoword,0,REAL,FALSA
,,,,,,,,,5a06ebf2c259f300017656ee,001,2025-04-30_10h01.31.083,empathy_intonation_perc,2024.1.4,Win32,60.0240096,,,,,,,,,,,,,,127,vien,,,,,,222.075,223.508,1,0,0.908,0,0,59,59,126,1,pseudoword,0,REAL,FALSA
,,,,,,,,,5a06ebf2c259f300017656ee,001,2025-04-30_10h01.31.083,empathy_intonation_perc,2024.1.4,Win32,60.0240096,,,,,,,,,,,,,,154,harvé,,,,,,223.508,224.975,1,0,0.946,0,0,60,60,153,1,pseudoword,0,REAL,FALSA
,,,,,,,,,5a06ebf2c259f300017656ee,001,2025-04-30_10h01.31.083,empathy_intonation_perc,2024.1.4,Win32,60.0240096,,,,,,,,,,,,,,173,mibro,,,,,,224.976,226.425,1,0,0.908,0.001,0,61,61,172,1,pseudoword,0,REAL,FALSA
,,,,,,,,,5a06ebf2c259f300017656ee,001,2025-04-30_10h01.31.083,empathy_intonation_perc,2024.1.4,Win32,60.0240096,,,,,,,,,,,,,,22,mango,,,,,,226.425,228.075,1,0,1.124,0,0,62,62,21,1,three_way_cognate,1,REAL,FALSA
,,,,,,,,,5a06ebf2c259f300017656ee,001,2025-04-30_10h01.31.083,empathy_intonation_perc,2024.1.4,Win32,60.0240096,,,,,,,,,,,,,,168,cobén,,,,,,228.075,229.244,0,1,0.65,0,0,63,63,167,1,pseudoword,0,REAL,FALSA
,,,,,,,,,5a06ebf2c259f300017656ee,001,2025-04-30_10h01.31.083,empathy_intonation_perc,2024.1.4,Win32,60.0240096,,,,,,,,,,,,,,91,equipo,,,,,,229.244,230.641,0,1,0.862,0,0,64,64,90,1,non_cognate,1,REAL,FALSA
,,,,,,,,,5a06ebf2c259f300017656ee,001,2025-04-30_10h01.31.083,empathy_intonation_perc,2024.1.4,Win32,60.0240096,,,,,,,,,,,,,,120,mauja,,,,,,230.642,232.375,0,1,1.209,0.001,0,65,65,119,1,pseudoword,0,REAL,FALSA
,,,,,,,,,5a06ebf2c259f300017656ee,001,2025-04-30_10h01.31.083,empathy_intonation_perc,2024.1.4,Win32,60.0240096,,,,,,,,,,,,,,183,edioso,,,,,,232.375,234.426,1,0,1.521,0,0,66,66,182,1,pseudoword,0,REAL,FALSA
,,,,,,,,,5a06ebf2c259f300017656ee,001,2025-04-30_10h01.31.083,empathy_intonation_perc,2024.1.4,Win32,60.0240096,,,,,,,,,,,,,,37,torso,,,,,,234.427,235.525,1,0,0.561,0.001,0,67,67,36,1,two_way_cognate,1,REAL,FALSA
,,,,,,,,,5a06ebf2c259f300017656ee,001,2025-04-30_10h01.31.083,empathy_intonation_perc,2024.1.4,Win32,60.0240096,,,,,,,,,,,,,,42,rumor,,,,,,235.525,237.092,1,0,1.044,0.001,0,68,68,41,1,two_way_cognate,1,REAL,FALSA
,,,,,,,,,5a06ebf2c259f300017656ee,001,2025-04-30_10h01.31.083,empathy_intonation_perc,2024.1.4,Win32,60.0240096,,,,,,,,,,,,,,101,losco,,,,,,237.092,238.742,1,0,1.113,0,0,69,69,100,1,pseudoword,0,REAL,FALSA
,,,,,,,,,5a06ebf2c259f300017656ee,001,2025-04-30_10h01.31.083,empathy_intonation_perc,2024.1.4,Win32,60.0240096,,,,,,,,,,,,,,78,rendir,,,,,,238.743,240.258,1,0,0.978,0,0,70,70,77,1,non_cognate,1,REAL,FALSA
,,,,,,,,,5a06ebf2c259f300017656ee,001,2025-04-30_10h01.31.083,empathy_intonation_perc,2024.1.4,Win32,60.0240096,,,,,,,,,,,,,,80,cuenco,,,,,,240.258,241.758,1,0,0.975,0,0,71,71,79,1,non_cognate,1,REAL,FALSA
,,,,,,,,,5a06ebf2c259f300017656ee,001,2025-04-30_10h01.31.083,empathy_intonation_perc,2024.1.4,Win32,60.0240096,,,,,,,,,,,,,,48,pelvis,,,,,,241.759,243.625,0,1,1.327,0.001,0,72,72,47,1,two_way_cognate,1,REAL,FALSA
,,,,,,,,,5a06ebf2c259f300017656ee,001,2025-04-30_10h01.31.083,empathy_intonation_perc,2024.1.4,Win32,60.0240096,,,,,,,,,,,,,,158,babrá,,,,,,243.625,245.325,1,0,1.155,0,0,73,73,157,1,pseudoword,0,REAL,FALSA
,,,,,,,,,5a06ebf2c259f300017656ee,001,2025-04-30_10h01.31.083,empathy_intonation_perc,2024.1.4,Win32,60.0240096,,,,,,,,,,,,,,21,hotel,,,,,,245.325,246.774,1,0,0.931,0,0,74,74,20,1,three_way_cognate,1,REAL,FALSA
,,,,,,,,,5a06ebf2c259f300017656ee,001,2025-04-30_10h01.31.083,empathy_intonation_perc,2024.1.4,Win32,60.0240096,,,,,,,,,,,,,,61,aduana,,,,,,246.776,248.391,1,0,1.083,0.001,0,75,75,60,1,non_cognate,1,REAL,FALSA
,,,,,,,,,5a06ebf2c259f300017656ee,001,2025-04-30_10h01.31.083,empathy_intonation_perc,2024.1.4,Win32,60.0240096,,,,,,,,,,,,,,57,regalo,,,,,,248.392,249.592,1,0,0.664,0,0,76,76,56,1,non_cognate,1,REAL,FALSA
,,,,,,,,,5a06ebf2c259f300017656ee,001,2025-04-30_10h01.31.083,empathy_intonation_perc,2024.1.4,Win32,60.0240096,,,,,,,,,,,,,,33,collar,,,,,,249.592,251.681,1,0,1.549,0,0,77,77,32,1,two_way_cognate,1,REAL,FALSA
,,,,,,,,,5a06ebf2c259f300017656ee,001,2025-04-30_10h01.31.083,empathy_intonation_perc,2024.1.4,Win32,60.0240096,,,,,,,,,,,,,,117,morrá,,,,,,251.681,252.875,0,1,0.658,0,0,78,78,116,1,pseudoword,0,REAL,FALSA
,,,,,,,,,5a06ebf2c259f300017656ee,001,2025-04-30_10h01.31.083,empathy_intonation_perc,2024.1.4,Win32,60.0240096,,,,,,,,,,,,,,40,pelvis,,,,,,252.876,254.274,1,0,0.859,0,0,79,79,39,1,two_way_cognate,1,REAL,FALSA
,,,,,,,,,5a06ebf2c259f300017656ee,001,2025-04-30_10h01.31.083,empathy_intonation_perc,2024.1.4,Win32,60.0240096,,,,,,,,,,,,,,41,pasta,,,,,,254.275,255.625,1,0,0.824,0,0,80,80,40,1,two_way_cognate,1,REAL,FALSA
,,,,,,,,,5a06ebf2c259f300017656ee,001,2025-04-30_10h01.31.083,empathy_intonation_perc,2024.1.4,Win32,60.0240096,,,,,,,,,,,,,,62,pegar,,,,,,255.625,256.976,1,0,0.839,0.001,0,81,81,61,1,non_cognate,1,REAL,FALSA
,,,,,,,,,5a06ebf2c259f300017656ee,001,2025-04-30_10h01.31.083,empathy_intonation_perc,2024.1.4,Win32,60.0240096,,,,,,,,,,,,,,124,lobe,,,,,,256.976,258.175,1,0,0.664,0,0,82,82,123,1,pseudoword,0,REAL,FALSA
,,,,,,,,,5a06ebf2c259f300017656ee,001,2025-04-30_10h01.31.083,empathy_intonation_perc,2024.1.4,Win32,60.0240096,,,,,,,,,,,,,,25,vigor,,,,,,258.175,259.508,0,1,0.823,0,0,83,83,24,1,two_way_cognate,1,REAL,FALSA
,,,,,,,,,5a06ebf2c259f300017656ee,001,2025-04-30_10h01.31.083,empathy_intonation_perc,2024.1.4,Win32,60.0240096,,,,,,,,,,,,,,66,aleta,,,,,,259.508,260.708,1,0,0.673,0,0,84,84,65,1,non_cognate,1,REAL,FALSA
,,,,,,,,,5a06ebf2c259f300017656ee,001,2025-04-30_10h01.31.083,empathy_intonation_perc,2024.1.4,Win32,60.0240096,,,,,,,,,,,,,,5,extra,,,,,,260.708,262.142,0,1,0.905,0,0,85,85,4,1,three_way_cognate,1,REAL,FALSA
,,,,,,,,,5a06ebf2c259f300017656ee,001,2025-04-30_10h01.31.083,empathy_intonation_perc,2024.1.4,Win32,60.0240096,,,,,,,,,,,,,,49,teñir,,,,,,262.142,263.508,0,1,0.823,0,0,86,86,48,1,non_cognate,1,REAL,FALSA
,,,,,,,,,5a06ebf2c259f300017656ee,001,2025-04-30_10h01.31.083,empathy_intonation_perc,2024.1.4,Win32,60.0240096,,,,,,,,,,,,,,38,halo,,,,,,263.508,265.341,1,0,1.285,0,0,87,87,37,1,two_way_cognate,1,REAL,FALSA
,,,,,,,,,5a06ebf2c259f300017656ee,001,2025-04-30_10h01.31.083,empathy_intonation_perc,2024.1.4,Win32,60.0240096,,,,,,,,,,,,,,26,enigma,,,,,,265.342,266.558,1,0,0.697,,0,88,88,25,1,two_way_cognate,1,REAL,FALSA
,,,,,,,,,5a06ebf2c259f300017656ee,001,2025-04-30_10h01.31.083,empathy_intonation_perc,2024.1.4,Win32,60.0240096,,,,,,,,,,,,,,121,barbs,,,,,,266.558,268.275,1,0,1.196,0,0,89,89,120,1,pseudoword,0,REAL,FALSA
,,,,,,,,,5a06ebf2c259f300017656ee,001,2025-04-30_10h01.31.083,empathy_intonation_perc,2024.1.4,Win32,60.0240096,,,,,,,,,,,,,,90,venado,,,,,,268.276,269.808,0,1,0.986,0.001,0,90,90,89,1,non_cognate,1,REAL,FALSA
,,,,,,,,,5a06ebf2c259f300017656ee,001,2025-04-30_10h01.31.083,empathy_intonation_perc,2024.1.4,Win32,60.0240096,,,,,,,,,,,,,,104,estulo,,,,,,269.809,270.958,1,0,0.616,0.001,0,91,91,103,1,pseudoword,0,REAL,FALSA
,,,,,,,,,5a06ebf2c259f300017656ee,001,2025-04-30_10h01.31.083,empathy_intonation_perc,2024.1.4,Win32,60.0240096,,,,,,,,,,,,,,144,diroco,,,,,,270.959,272.308,1,0,0.818,0,0,92,92,143,1,pseudoword,0,REAL,FALSA
,,,,,,,,,5a06ebf2c259f300017656ee,001,2025-04-30_10h01.31.083,empathy_intonation_perc,2024.1.4,Win32,60.0240096,,,,,,,,,,,,,,192,próces,,,,,,272.308,273.924,1,0,1.075,0,0,93,93,191,1,pseudoword,0,REAL,FALSA
,,,,,,,,,5a06ebf2c259f300017656ee,001,2025-04-30_10h01.31.083,empathy_intonation_perc,2024.1.4,Win32,60.0240096,,,,,,,,,,,,,,31,civil,,,,,,273.924,275.642,0,1,1.182,0,0,94,94,30,1,two_way_cognate,1,REAL,FALSA
,,,,,,,,,5a06ebf2c259f300017656ee,001,2025-04-30_10h01.31.083,empathy_intonation_perc,2024.1.4,Win32,60.0240096,,,,,,,,,,,,,,67,llamar,,,,,,275.642,277.191,1,0,1.014,,0,95,95,66,1,non_cognate,1,REAL,FALSA
,,,,,,,,,5a06ebf2c259f300017656ee,001,2025-04-30_10h01.31.083,empathy_intonation_perc,2024.1.4,Win32,60.0240096,,,,,,,,,,,,,,46,mortal,,,,,,277.192,278.558,0,1,0.836,0,0,96,96,45,1,two_way_cognate,1,REAL,FALSA
,,,,,,,,,5a06ebf2c259f300017656ee,001,2025-04-30_10h01.31.083,empathy_intonation_perc,2024.1.4,Win32,60.0240096,,,,,,,,,,,,,,58,colcha,,,,,,278.558,280.324,1,0,1.244,0,0,97,97,57,1,non_cognate,1,REAL,FALSA
,,,,,,,,,5a06ebf2c259f300017656ee,001,2025-04-30_10h01.31.083,empathy_intonation_perc,2024.1.4,Win32,60.0240096,,,,,,,,,,,,,,165,chote,,,,,,280.325,281.824,1,0,0.97,0,0,98,98,164,1,pseudoword,0,REAL,FALSA
,,,,,,,,,5a06ebf2c259f300017656ee,001,2025-04-30_10h01.31.083,empathy_intonation_perc,2024.1.4,Win32,60.0240096,,,,,,,,,,,,,,179,suelet,,,,,,281.825,283.041,1,0,0.682,0.001,0,99,99,178,1,pseudoword,0,REAL,FALSA
,,,,,,,,,5a06ebf2c259f300017656ee,001,2025-04-30_10h01.31.083,empathy_intonation_perc,2024.1.4,Win32,60.0240096,,,,,,,,,,,,,,109,laras,,,,,,283.042,284.557,0,1,0.976,0.001,0,100,100,108,1,pseudoword,0,REAL,FALSA
,,,,,,,,,5a06ebf2c259f300017656ee,001,2025-04-30_10h01.31.083,empathy_intonation_perc,2024.1.4,Win32,60.0240096,,,,,,,,,,,,,,180,pupica,,,,,,284.558,286.291,1,0,1.201,0,0,101,101,179,1,pseudoword,0,REAL,FALSA
,,,,,,,,,5a06ebf2c259f300017656ee,001,2025-04-30_10h01.31.083,empathy_intonation_perc,2024.1.4,Win32,60.0240096,,,,,,,,,,,,,,97,nocita,,,,,,286.291,287.974,1,0,1.143,0,0,102,102,96,1,pseudoword,0,REAL,FALSA
,,,,,,,,,5a06ebf2c259f300017656ee,001,2025-04-30_10h01.31.083,empathy_intonation_perc,2024.1.4,Win32,60.0240096,,,,,,,,,,,,,,141,virios,,,,,,287.975,289.341,1,0,0.83,0,0,103,103,140,1,pseudoword,0,REAL,FALSA
,,,,,,,,,5a06ebf2c259f300017656ee,001,2025-04-30_10h01.31.083,empathy_intonation_perc,2024.1.4,Win32,60.0240096,,,,,,,,,,,,,,157,seled,,,,,,289.341,291.758,0,1,1.89,0,0,104,104,156,1,pseudoword,0,REAL,FALSA
,,,,,,,,,5a06ebf2c259f300017656ee,001,2025-04-30_10h01.31.083,empathy_intonation_perc,2024.1.4,Win32,60.0240096,,,,,,,,,,,,,,17,clan,,,,,,291.758,293.324,0,1,1.05,0,0,105,105,16,1,three_way_cognate,1,REAL,FALSA
,,,,,,,,,5a06ebf2c259f300017656ee,001,2025-04-30_10h01.31.083,empathy_intonation_perc,2024.1.4,Win32,60.0240096,,,,,,,,,,,,,,87,muleta,,,,,,293.324,295.157,1,0,1.317,0,0,106,106,86,1,non_cognate,1,REAL,FALSA
,,,,,,,,,5a06ebf2c259f300017656ee,001,2025-04-30_10h01.31.083,empathy_intonation_perc,2024.1.4,Win32,60.0240096,,,,,,,,,,,,,,60,siglo,,,,,,295.157,296.441,1,0,0.757,0,0,107,107,59,1,non_cognate,1,REAL,FALSA
,,,,,,,,,5a06ebf2c259f300017656ee,001,2025-04-30_10h01.31.083,empathy_intonation_perc,2024.1.4,Win32,60.0240096,,,,,,,,,,,,,,35,aurora,,,,,,296.441,298.307,0,1,1.354,0,0,108,108,34,1,two_way_cognate,1,REAL,FALSA
,,,,,,,,,5a06ebf2c259f300017656ee,001,2025-04-30_10h01.31.083,empathy_intonation_perc,2024.1.4,Win32,60.0240096,,,,,,,,,,,,,,150,cricó,,,,,,298.308,300.292,0,1,1.464,0,0,109,109,149,1,pseudoword,0,REAL,FALSA
,,,,,,,,,5a06ebf2c259f300017656ee,001,2025-04-30_10h01.31.083,empathy_intonation_perc,2024.1.4,Win32,60.0240096,,,,,,,,,,,,,,77,suave,,,,,,300.293,302.758,0,1,1.925,0,0,110,110,76,1,non_cognate,1,REAL,FALSA
,,,,,,,,,5a06ebf2c259f300017656ee,001,2025-04-30_10h01.31.083,empathy_intonation_perc,2024.1.4,Win32,60.0240096,,,,,,,,,,,,,,126,tobre,,,,,,302.758,304.724,0,1,1.396,0,0,111,111,125,1,pseudoword,0,REAL,FALSA
,,,,,,,,,5a06ebf2c259f300017656ee,001,2025-04-30_10h01.31.083,empathy_intonation_perc,2024.1.4,Win32,60.0240096,,,,,,,,,,,,,,135,panté,,,,,,304.725,306.441,1,0,1.183,0,0,112,112,134,1,pseudoword,0,REAL,FALSA
,,,,,,,,,5a06ebf2c259f300017656ee,001,2025-04-30_10h01.31.083,empathy_intonation_perc,2024.1.4,Win32,60.0240096,,,,,,,,,,,,,,146,gió,,,,,,306.442,308.325,1,0,1.353,0,0,113,113,145,1,pseudoword,0,REAL,FALSA
,,,,,,,,,5a06ebf2c259f300017656ee,001,2025-04-30_10h01.31.083,empathy_intonation_perc,2024.1.4,Win32,60.0240096,,,,,,,,,,,,,,136,hueas,,,,,,308.325,310.124,1,0,1.257,0,0,114,114,135,1,pseudoword,0,REAL,FALSA
,,,,,,,,,5a06ebf2c259f300017656ee,001,2025-04-30_10h01.31.083,empathy_intonation_perc,2024.1.4,Win32,60.0240096,,,,,,,,,,,,,,14,aura,,,,,,310.124,311.69,1,0,1.048,0,0,115,115,13,1,three_way_cognate,1,REAL,FALSA
,,,,,,,,,5a06ebf2c259f300017656ee,001,2025-04-30_10h01.31.083,empathy_intonation_perc,2024.1.4,Win32,60.0240096,,,,,,,,,,,,,,7,albino,,,,,,311.69,313.542,1,0,1.328,0.001,0,116,116,6,1,three_way_cognate,1,REAL,FALSA
,,,,,,,,,5a06ebf2c259f300017656ee,001,2025-04-30_10h01.31.083,empathy_intonation_perc,2024.1.4,Win32,60.0240096,,,,,,,,,,,,,,149,emén,,,,,,313.542,315.057,0,1,0.985,0,0,117,117,148,1,pseudoword,0,REAL,FALSA
,,,,,,,,,5a06ebf2c259f300017656ee,001,2025-04-30_10h01.31.083,empathy_intonation_perc,2024.1.4,Win32,60.0240096,,,,,,,,,,,,,,73,llevar,,,,,,315.057,316.274,1,0,0.701,0.001,0,118,118,72,1,non_cognate,1,REAL,FALSA
,,,,,,,,,5a06ebf2c259f300017656ee,001,2025-04-30_10h01.31.083,empathy_intonation_perc,2024.1.4,Win32,60.0240096,,,,,,,,,,,,,,153,golla,,,,,,316.274,319.474,1,0,2.658,0,0,119,119,152,1,pseudoword,0,REAL,FALSA
,,,,,,,,,5a06ebf2c259f300017656ee,001,2025-04-30_10h01.31.083,empathy_intonation_perc,2024.1.4,Win32,60.0240096,,,,,,,,,,,,,,98,martir,,,,,,319.475,321.274,1,0,1.265,0,0,120,120,97,1,pseudoword,0,REAL,FALSA
,,,,,,,,,5a06ebf2c259f300017656ee,001,2025-04-30_10h01.31.083,empathy_intonation_perc,2024.1.4,Win32,60.0240096,,,,,,,,,,,,,,167,dobbo,,,,,,321.275,323.141,1,0,1.329,0,0,121,121,166,1,pseudoword,0,REAL,FALSA
,,,,,,,,,5a06ebf2c259f300017656ee,001,2025-04-30_10h01.31.083,empathy_intonation_perc,2024.1.4,Win32,60.0240096,,,,,,,,,,,,,,108,jauda,,,,,,323.141,324.557,1,0,0.892,0.001,0,122,122,107,1,pseudoword,0,REAL,FALSA
,,,,,,,,,5a06ebf2c259f300017656ee,001,2025-04-30_10h01.31.083,empathy_intonation_perc,2024.1.4,Win32,60.0240096,,,,,,,,,,,,,,36,viable,,,,,,324.558,326.774,1,0,1.669,0,0,123,123,35,1,two_way_cognate,1,REAL,FALSA
,,,,,,,,,5a06ebf2c259f300017656ee,001,2025-04-30_10h01.31.083,empathy_intonation_perc,2024.1.4,Win32,60.0240096,,,,,,,,,,,,,,178,inichó,,,,,,326.775,329.208,1,0,1.892,0,0,124,124,177,1,pseudoword,0,REAL,FALSA
,,,,,,,,,5a06ebf2c259f300017656ee,001,2025-04-30_10h01.31.083,empathy_intonation_perc,2024.1.4,Win32,60.0240096,,,,,,,,,,,,,,88,percha,,,,,,329.208,330.707,0,1,0.968,0.001,0,125,125,87,1,non_cognate,1,REAL,FALSA
,,,,,,,,,5a06ebf2c259f300017656ee,001,2025-04-30_10h01.31.083,empathy_intonation_perc,2024.1.4,Win32,60.0240096,,,,,,,,,,,,,,161,civas,,,,,,330.707,332.04,1,0,0.801,0.001,0,126,126,160,1,pseudoword,0,REAL,FALSA
,,,,,,,,,5a06ebf2c259f300017656ee,001,2025-04-30_10h01.31.083,empathy_intonation_perc,2024.1.4,Win32,60.0240096,,,,,,,,,,,,,,191,frasis,,,,,,332.041,332.774,0,1,0.203,0,0,127,127,190,1,pseudoword,0,REAL,FALSA
,,,,,,,,,5a06ebf2c259f300017656ee,001,2025-04-30_10h01.31.083,empathy_intonation_perc,2024.1.4,Win32,60.0240096,,,,,,,,,,,,,,106,diebro,,,,,,332.774,334.257,1,0,0.972,0,0,128,128,105,1,pseudoword,0,REAL,FALSA
,,,,,,,,,5a06ebf2c259f300017656ee,001,2025-04-30_10h01.31.083,empathy_intonation_perc,2024.1.4,Win32,60.0240096,,,,,,,,,,,,,,51,listo,,,,,,334.259,335.424,0,1,0.628,0,0,129,129,50,1,non_cognate,1,REAL,FALSA
,,,,,,,,,5a06ebf2c259f300017656ee,001,2025-04-30_10h01.31.083,empathy_intonation_perc,2024.1.4,Win32,60.0240096,,,,,,,,,,,,,,162,cengo,,,,,,335.424,336.974,1,0,1.019,0.001,0,130,130,161,1,pseudoword,0,REAL,FALSA
,,,,,,,,,5a06ebf2c259f300017656ee,001,2025-04-30_10h01.31.083,empathy_intonation_perc,2024.1.4,Win32,60.0240096,,,,,,,,,,,,,,44,editor,,,,,,336.974,338.374,0,1,0.86,0,0,131,131,43,1,two_way_cognate,1,REAL,FALSA
,,,,,,,,,5a06ebf2c259f300017656ee,001,2025-04-30_10h01.31.083,empathy_intonation_perc,2024.1.4,Win32,60.0240096,,,,,,,,,,,,,,134,molor,,,,,,338.375,339.757,1,0,0.84,0,0,132,132,133,1,pseudoword,0,REAL,FALSA
,,,,,,,,,5a06ebf2c259f300017656ee,001,2025-04-30_10h01.31.083,empathy_intonation_perc,2024.1.4,Win32,60.0240096,,,,,,,,,,,,,,53,punta,,,,,,339.757,341.174,0,1,0.885,0,0,133,133,52,1,non_cognate,1,REAL,FALSA
,,,,,,,,,5a06ebf2c259f300017656ee,001,2025-04-30_10h01.31.083,empathy_intonation_perc,2024.1.4,Win32,60.0240096,,,,,,,,,,,,,,184,huenos,,,,,,341.174,342.724,1,0,1.026,0,0,134,134,183,1,pseudoword,0,REAL,FALSA
,,,,,,,,,5a06ebf2c259f300017656ee,001,2025-04-30_10h01.31.083,empathy_intonation_perc,2024.1.4,Win32,60.0240096,,,,,,,,,,,,,,190,asumie,,,,,,342.724,344.141,1,0,0.866,0.001,0,135,135,189,1,pseudoword,0,REAL,FALSA
,,,,,,,,,5a06ebf2c259f300017656ee,001,2025-04-30_10h01.31.083,empathy_intonation_perc,2024.1.4,Win32,60.0240096,,,,,,,,,,,,,,139,sasos,,,,,,344.142,345.641,1,0,0.973,0,0,136,136,138,1,pseudoword,0,REAL,FALSA
,,,,,,,,,5a06ebf2c259f300017656ee,001,2025-04-30_10h01.31.083,empathy_intonation_perc,2024.1.4,Win32,60.0240096,,,,,,,,,,,,,,125,ceme,,,,,,345.641,347.674,1,0,1.497,0,0,137,137,124,1,pseudoword,0,REAL,FALSA
,,,,,,,,,5a06ebf2c259f300017656ee,001,2025-04-30_10h01.31.083,empathy_intonation_perc,2024.1.4,Win32,60.0240096,,,,,,,,,,,,,,84,aviso,,,,,,347.674,349.607,1,0,1.422,0,0,138,138,83,1,non_cognate,1,REAL,FALSA
,,,,,,,,,5a06ebf2c259f300017656ee,001,2025-04-30_10h01.31.083,empathy_intonation_perc,2024.1.4,Win32,60.0240096,,,,,,,,,,,,,,74,ala,,,,,,349.608,351.124,0,1,0.966,0,0,139,139,73,1,non_cognate,1,REAL,FALSA
,,,,,,,,,5a06ebf2c259f300017656ee,001,2025-04-30_10h01.31.083,empathy_intonation_perc,2024.1.4,Win32,60.0240096,,,,,,,,,,,,,,83,hálito,,,,,,351.124,352.774,1,0,1.117,0,0,140,140,82,1,non_cognate,1,REAL,FALSA
,,,,,,,,,5a06ebf2c259f300017656ee,001,2025-04-30_10h01.31.083,empathy_intonation_perc,2024.1.4,Win32,60.0240096,,,,,,,,,,,,,,56,pico,,,,,,352.774,354.257,0,1,0.956,0,0,141,141,55,1,non_cognate,1,REAL,FALSA
,,,,,,,,,5a06ebf2c259f300017656ee,001,2025-04-30_10h01.31.083,empathy_intonation_perc,2024.1.4,Win32,60.0240096,,,,,,,,,,,,,,92,flecha,,,,,,354.257,355.607,1,0,0.807,0,0,142,142,91,1,non_cognate,1,REAL,FALSA
,,,,,,,,,5a06ebf2c259f300017656ee,001,2025-04-30_10h01.31.083,empathy_intonation_perc,2024.1.4,Win32,60.0240096,,,,,,,,,,,,,,137,trugo,,,,,,355.607,356.89,0,1,0.759,0,0,143,143,136,1,pseudoword,0,REAL,FALSA
,,,,,,,,,5a06ebf2c259f300017656ee,001,2025-04-30_10h01.31.083,empathy_intonation_perc,2024.1.4,Win32,60.0240096,,,,,,,,,,,,,,107,plago,,,,,,356.891,358.54,1,0,1.117,0,0,144,144,106,1,pseudoword,0,REAL,FALSA
,,,,,,,,,5a06ebf2c259f300017656ee,001,2025-04-30_10h01.31.083,empathy_intonation_perc,2024.1.4,Win32,60.0240096,,,,,,,,,,,,,,110,densó,,,,,,358.541,359.941,1,0,0.841,0,0,145,145,109,1,pseudoword,0,REAL,FALSA
,,,,,,,,,5a06ebf2c259f300017656ee,001,2025-04-30_10h01.31.083,empathy_intonation_perc,2024.1.4,Win32,60.0240096,,,,,,,,,,,,,,160,fomeó,,,,,,359.941,361.74,1,0,1.253,0.001,0,146,146,159,1,pseudoword,0,REAL,FALSA
,,,,,,,,,5a06ebf2c259f300017656ee,001,2025-04-30_10h01.31.083,empathy_intonation_perc,2024.1.4,Win32,60.0240096,,,,,,,,,,,,,,82,brillo,,,,,,361.74,363.49,1,0,1.232,0,0,147,147,81,1,non_cognate,1,REAL,FALSA
,,,,,,,,,5a06ebf2c259f300017656ee,001,2025-04-30_10h01.31.083,empathy_intonation_perc,2024.1.4,Win32,60.0240096,,,,,,,,,,,,,,9,portal,,,,,,363.49,364.841,1,0,0.838,0,0,148,148,8,1,three_way_cognate,1,REAL,FALSA
,,,,,,,,,5a06ebf2c259f300017656ee,001,2025-04-30_10h01.31.083,empathy_intonation_perc,2024.1.4,Win32,60.0240096,,,,,,,,,,,,,,63,hilo,,,,,,364.841,366.374,1,0,1.012,0,0,149,149,62,1,non_cognate,1,REAL,FALSA
,,,,,,,,,5a06ebf2c259f300017656ee,001,2025-04-30_10h01.31.083,empathy_intonation_perc,2024.1.4,Win32,60.0240096,,,,,,,,,,,,,,27,piano,,,,,,366.374,367.741,1,0,0.833,0,0,150,150,26,1,two_way_cognate,1,REAL,FALSA
,,,,,,,,,5a06ebf2c259f300017656ee,001,2025-04-30_10h01.31.083,empathy_intonation_perc,2024.1.4,Win32,60.0240096,,,,,,,,,,,,,,164,tecia,,,,,,367.742,369.407,1,0,1.123,0,0,151,151,163,1,pseudoword,0,REAL,FALSA
,,,,,,,,,5a06ebf2c259f300017656ee,001,2025-04-30_10h01.31.083,empathy_intonation_perc,2024.1.4,Win32,60.0240096,,,,,,,,,,,,,,8,kilo,,,,,,369.408,370.673,1,0,0.725,0,0,152,152,7,1,three_way_cognate,1,REAL,FALSA
,,,,,,,,,5a06ebf2c259f300017656ee,001,2025-04-30_10h01.31.083,empathy_intonation_perc,2024.1.4,Win32,60.0240096,,,,,,,,,,,,,,171,gotro,,,,,,370.674,372.407,1,0,1.198,0,0,153,153,170,1,pseudoword,0,REAL,FALSA
,,,,,,,,,5a06ebf2c259f300017656ee,001,2025-04-30_10h01.31.083,empathy_intonation_perc,2024.1.4,Win32,60.0240096,,,,,,,,,,,,,,54,tapón,,,,,,372.408,374.09,0,1,1.144,0.001,0,154,154,53,1,non_cognate,1,REAL,FALSA
,,,,,,,,,5a06ebf2c259f300017656ee,001,2025-04-30_10h01.31.083,empathy_intonation_perc,2024.1.4,Win32,60.0240096,,,,,,,,,,,,,,1,moral,,,,,,374.091,375.907,1,0,1.282,0,0,155,155,0,1,three_way_cognate,1,REAL,FALSA
,,,,,,,,,5a06ebf2c259f300017656ee,001,2025-04-30_10h01.31.083,empathy_intonation_perc,2024.1.4,Win32,60.0240096,,,,,,,,,,,,,,130,dubo,,,,,,375.907,377.674,1,0,1.229,0,0,156,156,129,1,pseudoword,0,REAL,FALSA
,,,,,,,,,5a06ebf2c259f300017656ee,001,2025-04-30_10h01.31.083,empathy_intonation_perc,2024.1.4,Win32,60.0240096,,,,,,,,,,,,,,156,ozoso,,,,,,377.674,379.141,1,0,0.931,0,0,157,157,155,1,pseudoword,0,REAL,FALSA
,,,,,,,,,5a06ebf2c259f300017656ee,001,2025-04-30_10h01.31.083,empathy_intonation_perc,2024.1.4,Win32,60.0240096,,,,,,,,,,,,,,23,plural,,,,,,379.142,380.59,1,0,0.907,0.001,0,158,158,22,1,three_way_cognate,1,REAL,FALSA
,,,,,,,,,5a06ebf2c259f300017656ee,001,2025-04-30_10h01.31.083,empathy_intonation_perc,2024.1.4,Win32,60.0240096,,,,,,,,,,,,,,93,tapa,,,,,,380.59,382.023,0,1,0.922,0,0,159,159,92,1,non_cognate,1,REAL,FALSA
,,,,,,,,,5a06ebf2c259f300017656ee,001,2025-04-30_10h01.31.083,empathy_intonation_perc,2024.1.4,Win32,60.0240096,,,,,,,,,,,,,,28,ardor,,,,,,382.024,383.474,1,0,0.905,0,0,160,160,27,1,two_way_cognate,1,REAL,FALSA
,,,,,,,,,5a06ebf2c259f300017656ee,001,2025-04-30_10h01.31.083,empathy_intonation_perc,2024.1.4,Win32,60.0240096,,,,,,,,,,,,,,89,muñeca,,,,,,383.474,384.973,1,0,0.966,0.001,0,161,161,88,1,non_cognate,1,REAL,FALSA
,,,,,,,,,5a06ebf2c259f300017656ee,001,2025-04-30_10h01.31.083,empathy_intonation_perc,2024.1.4,Win32,60.0240096,,,,,,,,,,,,,,39,casual,,,,,,384.974,386.59,1,0,1.077,0,0,162,162,38,1,two_way_cognate,1,REAL,FALSA
,,,,,,,,,5a06ebf2c259f300017656ee,001,2025-04-30_10h01.31.083,empathy_intonation_perc,2024.1.4,Win32,60.0240096,,,,,,,,,,,,,,163,llzan,,,,,,386.59,388.057,1,0,0.952,0.001,0,163,163,162,1,pseudoword,0,REAL,FALSA
,,,,,,,,,5a06ebf2c259f300017656ee,001,2025-04-30_10h01.31.083,empathy_intonation_perc,2024.1.4,Win32,60.0240096,,,,,,,,,,,,,,76,chocar,,,,,,388.057,389.389,1,0,0.784,0,0,164,164,75,1,non_cognate,1,REAL,FALSA
,,,,,,,,,5a06ebf2c259f300017656ee,001,2025-04-30_10h01.31.083,empathy_intonation_perc,2024.1.4,Win32,60.0240096,,,,,,,,,,,,,,10,drama,,,,,,389.39,390.956,1,0,1.033,0,0,165,165,9,1,three_way_cognate,1,REAL,FALSA
,,,,,,,,,5a06ebf2c259f300017656ee,001,2025-04-30_10h01.31.083,empathy_intonation_perc,2024.1.4,Win32,60.0240096,,,,,,,,,,,,,,19,mafia,,,,,,390.957,392.207,1,0,0.716,0,0,166,166,18,1,three_way_cognate,1,REAL,FALSA
,,,,,,,,,5a06ebf2c259f300017656ee,001,2025-04-30_10h01.31.083,empathy_intonation_perc,2024.1.4,Win32,60.0240096,,,,,,,,,,,,,,151,prías,,,,,,392.207,393.907,0,1,1.149,0,0,167,167,150,1,pseudoword,0,REAL,FALSA
,,,,,,,,,5a06ebf2c259f300017656ee,001,2025-04-30_10h01.31.083,empathy_intonation_perc,2024.1.4,Win32,60.0240096,,,,,,,,,,,,,,175,tradía,,,,,,393.907,395.09,1,0,0.634,0,0,168,168,174,1,pseudoword,0,REAL,FALSA
,,,,,,,,,5a06ebf2c259f300017656ee,001,2025-04-30_10h01.31.083,empathy_intonation_perc,2024.1.4,Win32,60.0240096,,,,,,,,,,,,,,3,disco,,,,,,395.09,396.774,1,0,1.151,,0,169,169,2,1,three_way_cognate,1,REAL,FALSA
,,,,,,,,,5a06ebf2c259f300017656ee,001,2025-04-30_10h01.31.083,empathy_intonation_perc,2024.1.4,Win32,60.0240096,,,,,,,,,,,,,,128,pelí,,,,,,396.774,398.557,1,0,1.252,0,0,170,170,127,1,pseudoword,0,REAL,FALSA
,,,,,,,,,5a06ebf2c259f300017656ee,001,2025-04-30_10h01.31.083,empathy_intonation_perc,2024.1.4,Win32,60.0240096,,,,,,,,,,,,,,132,nocó,,,,,,398.557,399.756,1,0,0.671,0,0,171,171,131,1,pseudoword,0,REAL,FALSA
,,,,,,,,,5a06ebf2c259f300017656ee,001,2025-04-30_10h01.31.083,empathy_intonation_perc,2024.1.4,Win32,60.0240096,,,,,,,,,,,,,,81,sacar,,,,,,399.756,401.29,1,0,1,0.001,0,172,172,80,1,non_cognate,1,REAL,FALSA
,,,,,,,,,5a06ebf2c259f300017656ee,001,2025-04-30_10h01.31.083,empathy_intonation_perc,2024.1.4,Win32,60.0240096,,,,,,,,,,,,,,55,maldad,,,,,,401.291,403.023,0,1,1.189,0,0,173,173,54,1,non_cognate,1,REAL,FALSA
,,,,,,,,,5a06ebf2c259f300017656ee,001,2025-04-30_10h01.31.083,empathy_intonation_perc,2024.1.4,Win32,60.0240096,,,,,,,,,,,,,,115,lidena,,,,,,403.023,404.59,0,1,1.05,0.001,0,174,174,114,1,pseudoword,0,REAL,FALSA
,,,,,,,,,5a06ebf2c259f300017656ee,001,2025-04-30_10h01.31.083,empathy_intonation_perc,2024.1.4,Win32,60.0240096,,,,,,,,,,,,,,186,rizate,,,,,,404.591,405.957,1,0,0.832,0,0,175,175,185,1,pseudoword,0,REAL,FALSA
,,,,,,,,,5a06ebf2c259f300017656ee,001,2025-04-30_10h01.31.083,empathy_intonation_perc,2024.1.4,Win32,60.0240096,,,,,,,,,,,,,,140,chorde,,,,,,405.957,407.256,1,0,0.765,0,0,176,176,139,1,pseudoword,0,REAL,FALSA
,,,,,,,,,5a06ebf2c259f300017656ee,001,2025-04-30_10h01.31.083,empathy_intonation_perc,2024.1.4,Win32,60.0240096,,,,,,,,,,,,,,52,blando,,,,,,407.256,408.539,0,1,0.76,0.001,0,177,177,51,1,non_cognate,1,REAL,FALSA
,,,,,,,,,5a06ebf2c259f300017656ee,001,2025-04-30_10h01.31.083,empathy_intonation_perc,2024.1.4,Win32,60.0240096,,,,,,,,,,,,,,34,actor,,,,,,408.541,410.056,1,0,0.978,0.001,0,178,178,33,1,two_way_cognate,1,REAL,FALSA
,,,,,,,,,5a06ebf2c259f300017656ee,001,2025-04-30_10h01.31.083,empathy_intonation_perc,2024.1.4,Win32,60.0240096,,,,,,,,,,,,,,118,bará,,,,,,410.056,411.389,1,0,0.802,0,0,179,179,117,1,pseudoword,0,REAL,FALSA
,,,,,,,,,5a06ebf2c259f300017656ee,001,2025-04-30_10h01.31.083,empathy_intonation_perc,2024.1.4,Win32,60.0240096,,,,,,,,,,,,,,185,aljizo,,,,,,411.39,412.589,1,0,0.671,0,0,180,180,184,1,pseudoword,0,REAL,FALSA
,,,,,,,,,5a06ebf2c259f300017656ee,001,2025-04-30_10h01.31.083,empathy_intonation_perc,2024.1.4,Win32,60.0240096,,,,,,,,,,,,,,170,diabo,,,,,,412.59,414.106,0,1,0.992,0.001,0,181,181,169,1,pseudoword,0,REAL,FALSA
,,,,,,,,,5a06ebf2c259f300017656ee,001,2025-04-30_10h01.31.083,empathy_intonation_perc,2024.1.4,Win32,60.0240096,,,,,,,,,,,,,,188,amplir,,,,,,414.107,415.406,1,0,0.76,0,0,182,182,187,1,pseudoword,0,REAL,FALSA
,,,,,,,,,5a06ebf2c259f300017656ee,001,2025-04-30_10h01.31.083,empathy_intonation_perc,2024.1.4,Win32,60.0240096,,,,,,,,,,,,,,102,coyo,,,,,,415.407,417.275,1,0,1.326,0,0,183,183,101,1,pseudoword,0,REAL,FALSA
,,,,,,,,,5a06ebf2c259f300017656ee,001,2025-04-30_10h01.31.083,empathy_intonation_perc,2024.1.4,Win32,60.0240096,,,,,,,,,,,,,,172,dogue,,,,,,417.276,418.49,1,0,0.681,0,0,184,184,171,1,pseudoword,0,REAL,FALSA
,,,,,,,,,5a06ebf2c259f300017656ee,001,2025-04-30_10h01.31.083,empathy_intonation_perc,2024.1.4,Win32,60.0240096,,,,,,,,,,,,,,138,tator,,,,,,418.49,419.89,0,1,0.869,0,0,185,185,137,1,pseudoword,0,REAL,FALSA
,,,,,,,,,5a06ebf2c259f300017656ee,001,2025-04-30_10h01.31.083,empathy_intonation_perc,2024.1.4,Win32,60.0240096,,,,,,,,,,,,,,47,color,,,,,,419.89,425.24,1,0,4.774,0,0,186,186,46,1,two_way_cognate,1,REAL,FALSA
,,,,,,,,,5a06ebf2c259f300017656ee,001,2025-04-30_10h01.31.083,empathy_intonation_perc,2024.1.4,Win32,60.0240096,,,,,,,,,,,,,,12,dogma,,,,,,425.241,426.74,1,0,0.957,0,0,187,187,11,1,three_way_cognate,1,REAL,FALSA
,,,,,,,,,5a06ebf2c259f300017656ee,001,2025-04-30_10h01.31.083,empathy_intonation_perc,2024.1.4,Win32,60.0240096,,,,,,,,,,,,,,147,alla,,,,,,426.741,428.04,1,0,0.753,0,0,188,188,146,1,pseudoword,0,REAL,FALSA
,,,,,,,,,5a06ebf2c259f300017656ee,001,2025-04-30_10h01.31.083,empathy_intonation_perc,2024.1.4,Win32,60.0240096,,,,,,,,,,,,,,29,clamor,,,,,,428.04,429.623,1,0,1.042,0,0,189,189,28,1,two_way_cognate,1,REAL,FALSA
,,,,,,,,,5a06ebf2c259f300017656ee,001,2025-04-30_10h01.31.083,empathy_intonation_perc,2024.1.4,Win32,60.0240096,,,,,,,,,,,,,,111,monue,,,,,,429.624,431.306,1,0,1.157,0.001,0,190,190,110,1,pseudoword,0,REAL,FALSA
,,,,,,,,,5a06ebf2c259f300017656ee,001,2025-04-30_10h01.31.083,empathy_intonation_perc,2024.1.4,Win32,60.0240096,,,,,,,,,,,,,,6,horror,,,,,,431.307,432.473,1,0,0.628,0.001,0,191,191,5,1,three_way_cognate,1,REAL,FALSA
