lextale_instructions.started,lextale_instructions.stopped,lextale_instructions_loop.thisRepN,lextale_instructions_loop.thisTrialN,lextale_instructions_loop.thisN,lextale_instructions_loop.thisIndex,lextale_instructions_loop.ran,instructions_text,continue_text,participant,session,date,expName,psychopyVersion,OS,frameRate,lextale_practice.started,lextale_practice.stopped,key_resp_lextale_practice.keys,key_resp_lextale_practice.corr,key_resp_lextale_practice.rt,key_resp_lextale_practice.duration,lextale_practice_feedback.started,lextale_practice_feedback.stopped,lextale_practice_trials.thisRepN,lextale_practice_trials.thisTrialN,lextale_practice_trials.thisN,lextale_practice_trials.thisIndex,lextale_practice_trials.ran,stim,word,correct_response,prac_button_real,prac_button_false,lextale_check.started,lextale_check.stopped,lextale_trial.started,lextale_trial.stopped,key_resp_lextale_trial.keys,key_resp_lextale_trial.corr,key_resp_lextale_trial.rt,key_resp_lextale_trial.duration,lextail_trials.thisRepN,lextail_trials.thisTrialN,lextail_trials.thisN,lextail_trials.thisIndex,lextail_trials.ran,type,correct_reponse,button_real,button_false
0.002,12.137,0,0,0,0,1,"Este es un test de vocabulario en español. 
  
  A continuación vas a ver 90 secuencias de letras que parecen 'españolas'.
  
  Solo algunas de ellas son palabras de verdad.",(presiona la barra espaciadora para continuar),5b0564479649530001a3946c,001,2025-05-21_15h49.02.656,empathy_intonation_perc,2024.1.4,Win32,60.0240096,,,,,,,,,,,,,,,,,,,,,,,,,,,,,,,,,,,
12.137,15.886,0,1,1,1,1,"Por favor, señala las palabras que tú conoces (aquellas que estás convencido que son palabras españolas, incluso aunque no seas capaz de dar el significado preciso).",(presiona la barra espaciadora para continuar),5b0564479649530001a3946c,001,2025-05-21_15h49.02.656,empathy_intonation_perc,2024.1.4,Win32,60.0240096,,,,,,,,,,,,,,,,,,,,,,,,,,,,,,,,,,,
15.887,17.836,0,2,2,2,1,Pero cuidado: los errores se penalizan. Por eso no tiene sentido tratar de incrementar tu puntuación marcando como reales palabras que nunca has visto.,(presiona la barra espaciadora para continuar),5b0564479649530001a3946c,001,2025-05-21_15h49.02.656,empathy_intonation_perc,2024.1.4,Win32,60.0240096,,,,,,,,,,,,,,,,,,,,,,,,,,,,,,,,,,,
17.836,31.769,0,3,3,3,1,"Presiona la tecla 1 si piensas que es una palabra real y la tecla 
  0 si piensas que es una palabra falsa. 
  
  Vamos a practicar un poco...",(presiona la barra espaciadora para continuar),5b0564479649530001a3946c,001,2025-05-21_15h49.02.656,empathy_intonation_perc,2024.1.4,Win32,60.0240096,,,,,,,,,,,,,,,,,,,,,,,,,,,,,,,,,,,
,,,,,,,,,5b0564479649530001a3946c,001,2025-05-21_15h49.02.656,empathy_intonation_perc,2024.1.4,Win32,60.0240096,31.773,36.686,1,0,4.372,,36.686,37.686,0,0,0,0,1,0,depiste,0,REAL,FALSA,,,,,,,,,,,,,,,,,
,,,,,,,,,5b0564479649530001a3946c,001,2025-05-21_15h49.02.656,empathy_intonation_perc,2024.1.4,Win32,60.0240096,37.69,39.669,1,1,1.451,,39.669,40.668,0,1,1,1,1,0,sí,1,REAL,FALSA,,,,,,,,,,,,,,,,,
,,,,,,,,,5b0564479649530001a3946c,001,2025-05-21_15h49.02.656,empathy_intonation_perc,2024.1.4,Win32,60.0240096,40.671,42.703,0,1,1.502,,42.703,43.703,0,2,2,2,1,0,coné,0,REAL,FALSA,,,,,,,,,,,,,,,,,
,,,,,,,,,5b0564479649530001a3946c,001,2025-05-21_15h49.02.656,empathy_intonation_perc,2024.1.4,Win32,60.0240096,43.703,45.801,0,1,1.564,,45.801,46.802,0,3,3,3,1,0,calpar,0,REAL,FALSA,,,,,,,,,,,,,,,,,
,,,,,,,,,5b0564479649530001a3946c,001,2025-05-21_15h49.02.656,empathy_intonation_perc,2024.1.4,Win32,60.0240096,46.804,48.72,0,1,1.369,,48.72,49.718,0,4,4,4,1,0,joten,0,REAL,FALSA,,,,,,,,,,,,,,,,,
,,,,,,,,,5b0564479649530001a3946c,001,2025-05-21_15h49.02.656,empathy_intonation_perc,2024.1.4,Win32,60.0240096,49.719,51.818,1,1,1.566,,51.818,52.818,0,5,5,5,1,0,sacapuntas,1,REAL,FALSA,,,,,,,,,,,,,,,,,
,,,,,,,,,5b0564479649530001a3946c,001,2025-05-21_15h49.02.656,empathy_intonation_perc,2024.1.4,Win32,60.0240096,52.819,54.385,0,1,1.028,,54.385,55.385,0,6,6,6,1,0,priba,0,REAL,FALSA,,,,,,,,,,,,,,,,,
,,,,,,,,,5b0564479649530001a3946c,001,2025-05-21_15h49.02.656,empathy_intonation_perc,2024.1.4,Win32,60.0240096,55.385,57.218,0,1,1.313,,57.218,58.218,0,7,7,7,1,0,pelasula,0,REAL,FALSA,,,,,,,,,,,,,,,,,
,,,,,,,,,5b0564479649530001a3946c,001,2025-05-21_15h49.02.656,empathy_intonation_perc,2024.1.4,Win32,60.0240096,58.219,60.035,1,1,1.276,,60.035,61.034,0,8,8,8,1,0,bien,1,REAL,FALSA,,,,,,,,,,,,,,,,,
,,,,,,,,,5b0564479649530001a3946c,001,2025-05-21_15h49.02.656,empathy_intonation_perc,2024.1.4,Win32,60.0240096,61.035,62.518,1,1,0.955,,62.518,63.518,0,9,9,9,1,0,casa,1,REAL,FALSA,,,,,,,,,,,,,,,,,
,,,,,,,,,5b0564479649530001a3946c,001,2025-05-21_15h49.02.656,empathy_intonation_perc,2024.1.4,Win32,60.0240096,63.519,65.068,1,0,1.006,,65.068,66.069,0,10,10,10,1,0,lejo,0,REAL,FALSA,,,,,,,,,,,,,,,,,
,,,,,,,,,5b0564479649530001a3946c,001,2025-05-21_15h49.02.656,empathy_intonation_perc,2024.1.4,Win32,60.0240096,66.072,68.751,1,0,2.146,,68.751,69.752,0,11,11,11,1,0,pretantas,0,REAL,FALSA,,,,,,,,,,,,,,,,,
,,,,,,,,,5b0564479649530001a3946c,001,2025-05-21_15h49.02.656,empathy_intonation_perc,2024.1.4,Win32,60.0240096,,,,,,,,,,,,,,,,,,,69.752,72.001,,,,,,,,,,,,,,,
,,,,,,,,,5b0564479649530001a3946c,001,2025-05-21_15h49.02.656,empathy_intonation_perc,2024.1.4,Win32,60.0240096,,,,,,,,,,,,,,183,edioso,,,,,,72.008,74.135,1,0,1.593,,0,0,0,182,1,pseudoword,0,REAL,FALSA
,,,,,,,,,5b0564479649530001a3946c,001,2025-05-21_15h49.02.656,empathy_intonation_perc,2024.1.4,Win32,60.0240096,,,,,,,,,,,,,,168,cobén,,,,,,74.137,76.085,0,1,1.412,,0,1,1,167,1,pseudoword,0,REAL,FALSA
,,,,,,,,,5b0564479649530001a3946c,001,2025-05-21_15h49.02.656,empathy_intonation_perc,2024.1.4,Win32,60.0240096,,,,,,,,,,,,,,130,dubo,,,,,,76.085,77.651,0,1,1.033,,0,2,2,129,1,pseudoword,0,REAL,FALSA
,,,,,,,,,5b0564479649530001a3946c,001,2025-05-21_15h49.02.656,empathy_intonation_perc,2024.1.4,Win32,60.0240096,,,,,,,,,,,,,,51,listo,,,,,,77.651,79.051,1,0,0.886,,0,3,3,50,1,non_cognate,1,REAL,FALSA
,,,,,,,,,5b0564479649530001a3946c,001,2025-05-21_15h49.02.656,empathy_intonation_perc,2024.1.4,Win32,60.0240096,,,,,,,,,,,,,,180,pupica,,,,,,79.051,80.467,0,1,0.903,,0,4,4,179,1,pseudoword,0,REAL,FALSA
,,,,,,,,,5b0564479649530001a3946c,001,2025-05-21_15h49.02.656,empathy_intonation_perc,2024.1.4,Win32,60.0240096,,,,,,,,,,,,,,157,seled,,,,,,80.468,81.718,0,1,0.731,,0,5,5,156,1,pseudoword,0,REAL,FALSA
,,,,,,,,,5b0564479649530001a3946c,001,2025-05-21_15h49.02.656,empathy_intonation_perc,2024.1.4,Win32,60.0240096,,,,,,,,,,,,,,131,fuar,,,,,,81.719,83.067,0,1,0.803,,0,6,6,130,1,pseudoword,0,REAL,FALSA
,,,,,,,,,5b0564479649530001a3946c,001,2025-05-21_15h49.02.656,empathy_intonation_perc,2024.1.4,Win32,60.0240096,,,,,,,,,,,,,,71,torta,,,,,,83.069,84.417,1,0,0.807,,0,7,7,70,1,non_cognate,1,REAL,FALSA
,,,,,,,,,5b0564479649530001a3946c,001,2025-05-21_15h49.02.656,empathy_intonation_perc,2024.1.4,Win32,60.0240096,,,,,,,,,,,,,,45,total,,,,,,84.418,85.568,1,0,0.626,,0,8,8,44,1,two_way_cognate,1,REAL,FALSA
,,,,,,,,,5b0564479649530001a3946c,001,2025-05-21_15h49.02.656,empathy_intonation_perc,2024.1.4,Win32,60.0240096,,,,,,,,,,,,,,65,guerra,,,,,,85.569,87.367,1,0,1.261,,0,9,9,64,1,non_cognate,1,REAL,FALSA
,,,,,,,,,5b0564479649530001a3946c,001,2025-05-21_15h49.02.656,empathy_intonation_perc,2024.1.4,Win32,60.0240096,,,,,,,,,,,,,,141,virios,,,,,,87.368,88.767,0,1,0.856,,0,10,10,140,1,pseudoword,0,REAL,FALSA
,,,,,,,,,5b0564479649530001a3946c,001,2025-05-21_15h49.02.656,empathy_intonation_perc,2024.1.4,Win32,60.0240096,,,,,,,,,,,,,,151,prías,,,,,,88.768,90.284,0,1,0.992,,0,11,11,150,1,pseudoword,0,REAL,FALSA
,,,,,,,,,5b0564479649530001a3946c,001,2025-05-21_15h49.02.656,empathy_intonation_perc,2024.1.4,Win32,60.0240096,,,,,,,,,,,,,,70,ánimo,,,,,,90.284,91.834,0,1,1.018,,0,12,12,69,1,non_cognate,1,REAL,FALSA
,,,,,,,,,5b0564479649530001a3946c,001,2025-05-21_15h49.02.656,empathy_intonation_perc,2024.1.4,Win32,60.0240096,,,,,,,,,,,,,,192,próces,,,,,,91.834,93.484,0,1,1.128,,0,13,13,191,1,pseudoword,0,REAL,FALSA
,,,,,,,,,5b0564479649530001a3946c,001,2025-05-21_15h49.02.656,empathy_intonation_perc,2024.1.4,Win32,60.0240096,,,,,,,,,,,,,,34,actor,,,,,,93.485,94.568,1,0,0.547,,0,14,14,33,1,two_way_cognate,1,REAL,FALSA
,,,,,,,,,5b0564479649530001a3946c,001,2025-05-21_15h49.02.656,empathy_intonation_perc,2024.1.4,Win32,60.0240096,,,,,,,,,,,,,,18,altar,,,,,,94.568,96.434,1,0,1.321,,0,15,15,17,1,three_way_cognate,1,REAL,FALSA
,,,,,,,,,5b0564479649530001a3946c,001,2025-05-21_15h49.02.656,empathy_intonation_perc,2024.1.4,Win32,60.0240096,,,,,,,,,,,,,,14,aura,,,,,,96.436,97.634,1,0,0.65,,0,16,16,13,1,three_way_cognate,1,REAL,FALSA
,,,,,,,,,5b0564479649530001a3946c,001,2025-05-21_15h49.02.656,empathy_intonation_perc,2024.1.4,Win32,60.0240096,,,,,,,,,,,,,,50,sierra,,,,,,97.634,98.95,1,0,0.767,,0,17,17,49,1,non_cognate,1,REAL,FALSA
,,,,,,,,,5b0564479649530001a3946c,001,2025-05-21_15h49.02.656,empathy_intonation_perc,2024.1.4,Win32,60.0240096,,,,,,,,,,,,,,167,dobbo,,,,,,98.95,100.118,0,1,0.647,,0,18,18,166,1,pseudoword,0,REAL,FALSA
,,,,,,,,,5b0564479649530001a3946c,001,2025-05-21_15h49.02.656,empathy_intonation_perc,2024.1.4,Win32,60.0240096,,,,,,,,,,,,,,36,viable,,,,,,100.122,102.267,1,0,1.602,,0,19,19,35,1,two_way_cognate,1,REAL,FALSA
,,,,,,,,,5b0564479649530001a3946c,001,2025-05-21_15h49.02.656,empathy_intonation_perc,2024.1.4,Win32,60.0240096,,,,,,,,,,,,,,179,suelet,,,,,,102.268,103.784,0,1,0.974,,0,20,20,178,1,pseudoword,0,REAL,FALSA
,,,,,,,,,5b0564479649530001a3946c,001,2025-05-21_15h49.02.656,empathy_intonation_perc,2024.1.4,Win32,60.0240096,,,,,,,,,,,,,,80,cuenco,,,,,,103.784,105.467,0,1,1.151,,0,21,21,79,1,non_cognate,1,REAL,FALSA
,,,,,,,,,5b0564479649530001a3946c,001,2025-05-21_15h49.02.656,empathy_intonation_perc,2024.1.4,Win32,60.0240096,,,,,,,,,,,,,,134,molor,,,,,,105.467,107.034,0,1,1.041,,0,22,22,133,1,pseudoword,0,REAL,FALSA
,,,,,,,,,5b0564479649530001a3946c,001,2025-05-21_15h49.02.656,empathy_intonation_perc,2024.1.4,Win32,60.0240096,,,,,,,,,,,,,,156,ozoso,,,,,,107.034,108.984,0,1,1.422,,0,23,23,155,1,pseudoword,0,REAL,FALSA
,,,,,,,,,5b0564479649530001a3946c,001,2025-05-21_15h49.02.656,empathy_intonation_perc,2024.1.4,Win32,60.0240096,,,,,,,,,,,,,,190,asumie,,,,,,108.984,110.35,0,1,0.845,,0,24,24,189,1,pseudoword,0,REAL,FALSA
,,,,,,,,,5b0564479649530001a3946c,001,2025-05-21_15h49.02.656,empathy_intonation_perc,2024.1.4,Win32,60.0240096,,,,,,,,,,,,,,83,hálito,,,,,,110.351,111.901,0,1,1.016,,0,25,25,82,1,non_cognate,1,REAL,FALSA
,,,,,,,,,5b0564479649530001a3946c,001,2025-05-21_15h49.02.656,empathy_intonation_perc,2024.1.4,Win32,60.0240096,,,,,,,,,,,,,,186,rizate,,,,,,111.901,113.566,0,1,1.116,,0,26,26,185,1,pseudoword,0,REAL,FALSA
,,,,,,,,,5b0564479649530001a3946c,001,2025-05-21_15h49.02.656,empathy_intonation_perc,2024.1.4,Win32,60.0240096,,,,,,,,,,,,,,40,pelvis,,,,,,113.567,115.217,0,1,1.117,,0,27,27,39,1,two_way_cognate,1,REAL,FALSA
,,,,,,,,,5b0564479649530001a3946c,001,2025-05-21_15h49.02.656,empathy_intonation_perc,2024.1.4,Win32,60.0240096,,,,,,,,,,,,,,95,listo,,,,,,115.217,116.433,1,0,0.672,,0,28,28,94,1,non_cognate,1,REAL,FALSA
,,,,,,,,,5b0564479649530001a3946c,001,2025-05-21_15h49.02.656,empathy_intonation_perc,2024.1.4,Win32,60.0240096,,,,,,,,,,,,,,31,civil,,,,,,116.433,117.733,1,0,0.785,,0,29,29,30,1,two_way_cognate,1,REAL,FALSA
,,,,,,,,,5b0564479649530001a3946c,001,2025-05-21_15h49.02.656,empathy_intonation_perc,2024.1.4,Win32,60.0240096,,,,,,,,,,,,,,132,nocó,,,,,,117.734,119.25,0,1,0.979,,0,30,30,131,1,pseudoword,0,REAL,FALSA
,,,,,,,,,5b0564479649530001a3946c,001,2025-05-21_15h49.02.656,empathy_intonation_perc,2024.1.4,Win32,60.0240096,,,,,,,,,,,,,,84,aviso,,,,,,119.25,121.934,1,0,2.144,,0,31,31,83,1,non_cognate,1,REAL,FALSA
,,,,,,,,,5b0564479649530001a3946c,001,2025-05-21_15h49.02.656,empathy_intonation_perc,2024.1.4,Win32,60.0240096,,,,,,,,,,,,,,68,puñal,,,,,,121.935,123.667,0,1,1.196,,0,32,32,67,1,non_cognate,1,REAL,FALSA
,,,,,,,,,5b0564479649530001a3946c,001,2025-05-21_15h49.02.656,empathy_intonation_perc,2024.1.4,Win32,60.0240096,,,,,,,,,,,,,,44,editor,,,,,,123.667,125.666,1,0,1.469,,0,33,33,43,1,two_way_cognate,1,REAL,FALSA
,,,,,,,,,5b0564479649530001a3946c,001,2025-05-21_15h49.02.656,empathy_intonation_perc,2024.1.4,Win32,60.0240096,,,,,,,,,,,,,,12,dogma,,,,,,125.667,127.1,0,1,0.899,,0,34,34,11,1,three_way_cognate,1,REAL,FALSA
,,,,,,,,,5b0564479649530001a3946c,001,2025-05-21_15h49.02.656,empathy_intonation_perc,2024.1.4,Win32,60.0240096,,,,,,,,,,,,,,145,rúo,,,,,,127.1,128.617,0,1,0.976,,0,35,35,144,1,pseudoword,0,REAL,FALSA
,,,,,,,,,5b0564479649530001a3946c,001,2025-05-21_15h49.02.656,empathy_intonation_perc,2024.1.4,Win32,60.0240096,,,,,,,,,,,,,,160,fomeó,,,,,,128.617,130.133,0,1,0.983,,0,36,36,159,1,pseudoword,0,REAL,FALSA
,,,,,,,,,5b0564479649530001a3946c,001,2025-05-21_15h49.02.656,empathy_intonation_perc,2024.1.4,Win32,60.0240096,,,,,,,,,,,,,,184,huenos,,,,,,130.133,131.933,1,0,1.268,,0,37,37,183,1,pseudoword,0,REAL,FALSA
,,,,,,,,,5b0564479649530001a3946c,001,2025-05-21_15h49.02.656,empathy_intonation_perc,2024.1.4,Win32,60.0240096,,,,,,,,,,,,,,117,morrá,,,,,,131.933,134.367,0,1,1.895,,0,38,38,116,1,pseudoword,0,REAL,FALSA
,,,,,,,,,5b0564479649530001a3946c,001,2025-05-21_15h49.02.656,empathy_intonation_perc,2024.1.4,Win32,60.0240096,,,,,,,,,,,,,,21,hotel,,,,,,134.369,135.566,1,0,0.651,,0,39,39,20,1,three_way_cognate,1,REAL,FALSA
,,,,,,,,,5b0564479649530001a3946c,001,2025-05-21_15h49.02.656,empathy_intonation_perc,2024.1.4,Win32,60.0240096,,,,,,,,,,,,,,98,martir,,,,,,135.567,137.516,0,1,1.415,,0,40,40,97,1,pseudoword,0,REAL,FALSA
,,,,,,,,,5b0564479649530001a3946c,001,2025-05-21_15h49.02.656,empathy_intonation_perc,2024.1.4,Win32,60.0240096,,,,,,,,,,,,,,25,vigor,,,,,,137.516,140.433,0,1,2.391,,0,41,41,24,1,two_way_cognate,1,REAL,FALSA
,,,,,,,,,5b0564479649530001a3946c,001,2025-05-21_15h49.02.656,empathy_intonation_perc,2024.1.4,Win32,60.0240096,,,,,,,,,,,,,,127,vien,,,,,,140.433,142.282,0,1,1.318,,0,42,42,126,1,pseudoword,0,REAL,FALSA
,,,,,,,,,5b0564479649530001a3946c,001,2025-05-21_15h49.02.656,empathy_intonation_perc,2024.1.4,Win32,60.0240096,,,,,,,,,,,,,,103,vueras,,,,,,142.282,143.533,1,0,0.728,,0,43,43,102,1,pseudoword,0,REAL,FALSA
,,,,,,,,,5b0564479649530001a3946c,001,2025-05-21_15h49.02.656,empathy_intonation_perc,2024.1.4,Win32,60.0240096,,,,,,,,,,,,,,116,grigir,,,,,,143.534,144.983,0,1,0.91,,0,44,44,115,1,pseudoword,0,REAL,FALSA
,,,,,,,,,5b0564479649530001a3946c,001,2025-05-21_15h49.02.656,empathy_intonation_perc,2024.1.4,Win32,60.0240096,,,,,,,,,,,,,,78,rendir,,,,,,144.983,146.982,0,1,1.457,,0,45,45,77,1,non_cognate,1,REAL,FALSA
,,,,,,,,,5b0564479649530001a3946c,001,2025-05-21_15h49.02.656,empathy_intonation_perc,2024.1.4,Win32,60.0240096,,,,,,,,,,,,,,102,coyo,,,,,,146.982,148.383,1,0,0.877,,0,46,46,101,1,pseudoword,0,REAL,FALSA
,,,,,,,,,5b0564479649530001a3946c,001,2025-05-21_15h49.02.656,empathy_intonation_perc,2024.1.4,Win32,60.0240096,,,,,,,,,,,,,,150,cricó,,,,,,148.383,149.532,1,0,0.609,,0,47,47,149,1,pseudoword,0,REAL,FALSA
,,,,,,,,,5b0564479649530001a3946c,001,2025-05-21_15h49.02.656,empathy_intonation_perc,2024.1.4,Win32,60.0240096,,,,,,,,,,,,,,136,hueas,,,,,,149.533,150.899,0,1,0.833,,0,48,48,135,1,pseudoword,0,REAL,FALSA
,,,,,,,,,5b0564479649530001a3946c,001,2025-05-21_15h49.02.656,empathy_intonation_perc,2024.1.4,Win32,60.0240096,,,,,,,,,,,,,,57,regalo,,,,,,150.9,152.216,1,0,0.772,,0,49,49,56,1,non_cognate,1,REAL,FALSA
,,,,,,,,,5b0564479649530001a3946c,001,2025-05-21_15h49.02.656,empathy_intonation_perc,2024.1.4,Win32,60.0240096,,,,,,,,,,,,,,154,harvé,,,,,,152.217,153.733,0,1,0.983,,0,50,50,153,1,pseudoword,0,REAL,FALSA
,,,,,,,,,5b0564479649530001a3946c,001,2025-05-21_15h49.02.656,empathy_intonation_perc,2024.1.4,Win32,60.0240096,,,,,,,,,,,,,,46,mortal,,,,,,153.733,155.449,1,0,1.186,,0,51,51,45,1,two_way_cognate,1,REAL,FALSA
,,,,,,,,,5b0564479649530001a3946c,001,2025-05-21_15h49.02.656,empathy_intonation_perc,2024.1.4,Win32,60.0240096,,,,,,,,,,,,,,81,sacar,,,,,,155.45,156.999,1,0,1.009,,0,52,52,80,1,non_cognate,1,REAL,FALSA
,,,,,,,,,5b0564479649530001a3946c,001,2025-05-21_15h49.02.656,empathy_intonation_perc,2024.1.4,Win32,60.0240096,,,,,,,,,,,,,,109,laras,,,,,,156.999,159.999,0,1,2.477,,0,53,53,108,1,pseudoword,0,REAL,FALSA
,,,,,,,,,5b0564479649530001a3946c,001,2025-05-21_15h49.02.656,empathy_intonation_perc,2024.1.4,Win32,60.0240096,,,,,,,,,,,,,,72,rostro,,,,,,159.999,161.432,0,1,0.89,,0,54,54,71,1,non_cognate,1,REAL,FALSA
,,,,,,,,,5b0564479649530001a3946c,001,2025-05-21_15h49.02.656,empathy_intonation_perc,2024.1.4,Win32,60.0240096,,,,,,,,,,,,,,166,anfia,,,,,,161.433,164.582,0,1,2.611,,0,55,55,165,1,pseudoword,0,REAL,FALSA
,,,,,,,,,5b0564479649530001a3946c,001,2025-05-21_15h49.02.656,empathy_intonation_perc,2024.1.4,Win32,60.0240096,,,,,,,,,,,,,,100,épinas,,,,,,164.583,166.633,0,1,1.51,,0,56,56,99,1,pseudoword,0,REAL,FALSA
,,,,,,,,,5b0564479649530001a3946c,001,2025-05-21_15h49.02.656,empathy_intonation_perc,2024.1.4,Win32,60.0240096,,,,,,,,,,,,,,27,piano,,,,,,166.635,167.832,1,0,0.658,,0,57,57,26,1,two_way_cognate,1,REAL,FALSA
,,,,,,,,,5b0564479649530001a3946c,001,2025-05-21_15h49.02.656,empathy_intonation_perc,2024.1.4,Win32,60.0240096,,,,,,,,,,,,,,60,siglo,,,,,,167.832,169.399,1,0,1.044,,0,58,58,59,1,non_cognate,1,REAL,FALSA
,,,,,,,,,5b0564479649530001a3946c,001,2025-05-21_15h49.02.656,empathy_intonation_perc,2024.1.4,Win32,60.0240096,,,,,,,,,,,,,,143,hurcos,,,,,,169.399,171.032,0,1,1.097,,0,59,59,142,1,pseudoword,0,REAL,FALSA
,,,,,,,,,5b0564479649530001a3946c,001,2025-05-21_15h49.02.656,empathy_intonation_perc,2024.1.4,Win32,60.0240096,,,,,,,,,,,,,,120,mauja,,,,,,171.032,172.348,0,1,0.793,,0,60,60,119,1,pseudoword,0,REAL,FALSA
,,,,,,,,,5b0564479649530001a3946c,001,2025-05-21_15h49.02.656,empathy_intonation_perc,2024.1.4,Win32,60.0240096,,,,,,,,,,,,,,15,test,,,,,,172.349,173.382,1,0,0.511,,0,61,61,14,1,three_way_cognate,1,REAL,FALSA
,,,,,,,,,5b0564479649530001a3946c,001,2025-05-21_15h49.02.656,empathy_intonation_perc,2024.1.4,Win32,60.0240096,,,,,,,,,,,,,,2,tumor,,,,,,173.382,174.631,1,0,0.717,,0,62,62,1,1,three_way_cognate,1,REAL,FALSA
,,,,,,,,,5b0564479649530001a3946c,001,2025-05-21_15h49.02.656,empathy_intonation_perc,2024.1.4,Win32,60.0240096,,,,,,,,,,,,,,118,bará,,,,,,174.632,175.765,0,1,0.609,,0,63,63,117,1,pseudoword,0,REAL,FALSA
,,,,,,,,,5b0564479649530001a3946c,001,2025-05-21_15h49.02.656,empathy_intonation_perc,2024.1.4,Win32,60.0240096,,,,,,,,,,,,,,177,entodo,,,,,,175.765,177.832,1,0,1.538,,0,64,64,176,1,pseudoword,0,REAL,FALSA
,,,,,,,,,5b0564479649530001a3946c,001,2025-05-21_15h49.02.656,empathy_intonation_perc,2024.1.4,Win32,60.0240096,,,,,,,,,,,,,,43,honor,,,,,,177.832,179.148,1,0,0.796,,0,65,65,42,1,two_way_cognate,1,REAL,FALSA
,,,,,,,,,5b0564479649530001a3946c,001,2025-05-21_15h49.02.656,empathy_intonation_perc,2024.1.4,Win32,60.0240096,,,,,,,,,,,,,,191,frasis,,,,,,179.149,180.565,0,1,0.874,,0,66,66,190,1,pseudoword,0,REAL,FALSA
,,,,,,,,,5b0564479649530001a3946c,001,2025-05-21_15h49.02.656,empathy_intonation_perc,2024.1.4,Win32,60.0240096,,,,,,,,,,,,,,146,gió,,,,,,180.565,181.949,0,1,0.846,,0,67,67,145,1,pseudoword,0,REAL,FALSA
,,,,,,,,,5b0564479649530001a3946c,001,2025-05-21_15h49.02.656,empathy_intonation_perc,2024.1.4,Win32,60.0240096,,,,,,,,,,,,,,22,mango,,,,,,181.949,183.365,1,0,0.878,,0,68,68,21,1,three_way_cognate,1,REAL,FALSA
,,,,,,,,,5b0564479649530001a3946c,001,2025-05-21_15h49.02.656,empathy_intonation_perc,2024.1.4,Win32,60.0240096,,,,,,,,,,,,,,19,mafia,,,,,,183.366,184.931,1,0,1.029,,0,69,69,18,1,three_way_cognate,1,REAL,FALSA
,,,,,,,,,5b0564479649530001a3946c,001,2025-05-21_15h49.02.656,empathy_intonation_perc,2024.1.4,Win32,60.0240096,,,,,,,,,,,,,,171,gotro,,,,,,184.932,187.232,0,1,1.747,,0,70,70,170,1,pseudoword,0,REAL,FALSA
,,,,,,,,,5b0564479649530001a3946c,001,2025-05-21_15h49.02.656,empathy_intonation_perc,2024.1.4,Win32,60.0240096,,,,,,,,,,,,,,175,tradía,,,,,,187.232,188.565,0,1,0.797,,0,71,71,174,1,pseudoword,0,REAL,FALSA
,,,,,,,,,5b0564479649530001a3946c,001,2025-05-21_15h49.02.656,empathy_intonation_perc,2024.1.4,Win32,60.0240096,,,,,,,,,,,,,,88,percha,,,,,,188.565,189.948,0,1,0.854,,0,72,72,87,1,non_cognate,1,REAL,FALSA
,,,,,,,,,5b0564479649530001a3946c,001,2025-05-21_15h49.02.656,empathy_intonation_perc,2024.1.4,Win32,60.0240096,,,,,,,,,,,,,,173,mibro,,,,,,189.949,191.214,0,1,0.721,,0,73,73,172,1,pseudoword,0,REAL,FALSA
,,,,,,,,,5b0564479649530001a3946c,001,2025-05-21_15h49.02.656,empathy_intonation_perc,2024.1.4,Win32,60.0240096,,,,,,,,,,,,,,53,punta,,,,,,191.215,192.398,1,0,0.651,,0,74,74,52,1,non_cognate,1,REAL,FALSA
,,,,,,,,,5b0564479649530001a3946c,001,2025-05-21_15h49.02.656,empathy_intonation_perc,2024.1.4,Win32,60.0240096,,,,,,,,,,,,,,55,maldad,,,,,,192.398,194.031,1,0,1.113,,0,75,75,54,1,non_cognate,1,REAL,FALSA
,,,,,,,,,5b0564479649530001a3946c,001,2025-05-21_15h49.02.656,empathy_intonation_perc,2024.1.4,Win32,60.0240096,,,,,,,,,,,,,,119,esís,,,,,,194.031,195.564,0,1,1.013,,0,76,76,118,1,pseudoword,0,REAL,FALSA
,,,,,,,,,5b0564479649530001a3946c,001,2025-05-21_15h49.02.656,empathy_intonation_perc,2024.1.4,Win32,60.0240096,,,,,,,,,,,,,,110,densó,,,,,,195.565,197.098,1,0,0.984,,0,77,77,109,1,pseudoword,0,REAL,FALSA
,,,,,,,,,5b0564479649530001a3946c,001,2025-05-21_15h49.02.656,empathy_intonation_perc,2024.1.4,Win32,60.0240096,,,,,,,,,,,,,,123,arane,,,,,,197.098,198.398,0,1,0.776,,0,78,78,122,1,pseudoword,0,REAL,FALSA
,,,,,,,,,5b0564479649530001a3946c,001,2025-05-21_15h49.02.656,empathy_intonation_perc,2024.1.4,Win32,60.0240096,,,,,,,,,,,,,,89,muñeca,,,,,,198.398,200.049,0,1,1.127,,0,79,79,88,1,non_cognate,1,REAL,FALSA
,,,,,,,,,5b0564479649530001a3946c,001,2025-05-21_15h49.02.656,empathy_intonation_perc,2024.1.4,Win32,60.0240096,,,,,,,,,,,,,,1,moral,,,,,,200.052,201.331,1,0,0.738,,0,80,80,0,1,three_way_cognate,1,REAL,FALSA
,,,,,,,,,5b0564479649530001a3946c,001,2025-05-21_15h49.02.656,empathy_intonation_perc,2024.1.4,Win32,60.0240096,,,,,,,,,,,,,,159,trcia,,,,,,201.331,202.531,0,1,0.68,,0,81,81,158,1,pseudoword,0,REAL,FALSA
,,,,,,,,,5b0564479649530001a3946c,001,2025-05-21_15h49.02.656,empathy_intonation_perc,2024.1.4,Win32,60.0240096,,,,,,,,,,,,,,13,plan,,,,,,202.532,203.665,1,0,0.593,,0,82,82,12,1,three_way_cognate,1,REAL,FALSA
,,,,,,,,,5b0564479649530001a3946c,001,2025-05-21_15h49.02.656,empathy_intonation_perc,2024.1.4,Win32,60.0240096,,,,,,,,,,,,,,56,pico,,,,,,203.665,204.797,1,0,0.596,,0,83,83,55,1,non_cognate,1,REAL,FALSA
,,,,,,,,,5b0564479649530001a3946c,001,2025-05-21_15h49.02.656,empathy_intonation_perc,2024.1.4,Win32,60.0240096,,,,,,,,,,,,,,35,aurora,,,,,,204.799,206.131,1,0,0.785,,0,84,84,34,1,two_way_cognate,1,REAL,FALSA
,,,,,,,,,5b0564479649530001a3946c,001,2025-05-21_15h49.02.656,empathy_intonation_perc,2024.1.4,Win32,60.0240096,,,,,,,,,,,,,,163,llzan,,,,,,206.132,207.331,0,1,0.66,,0,85,85,162,1,pseudoword,0,REAL,FALSA
,,,,,,,,,5b0564479649530001a3946c,001,2025-05-21_15h49.02.656,empathy_intonation_perc,2024.1.4,Win32,60.0240096,,,,,,,,,,,,,,187,nomata,,,,,,207.331,209.598,0,1,1.747,,0,86,86,186,1,pseudoword,0,REAL,FALSA
,,,,,,,,,5b0564479649530001a3946c,001,2025-05-21_15h49.02.656,empathy_intonation_perc,2024.1.4,Win32,60.0240096,,,,,,,,,,,,,,23,plural,,,,,,209.598,210.914,1,0,0.797,,0,87,87,22,1,three_way_cognate,1,REAL,FALSA
,,,,,,,,,5b0564479649530001a3946c,001,2025-05-21_15h49.02.656,empathy_intonation_perc,2024.1.4,Win32,60.0240096,,,,,,,,,,,,,,107,plago,,,,,,210.915,212.581,0,1,1.129,,0,88,88,106,1,pseudoword,0,REAL,FALSA
,,,,,,,,,5b0564479649530001a3946c,001,2025-05-21_15h49.02.656,empathy_intonation_perc,2024.1.4,Win32,60.0240096,,,,,,,,,,,,,,93,tapa,,,,,,212.581,213.747,1,0,0.653,,0,89,89,92,1,non_cognate,1,REAL,FALSA
,,,,,,,,,5b0564479649530001a3946c,001,2025-05-21_15h49.02.656,empathy_intonation_perc,2024.1.4,Win32,60.0240096,,,,,,,,,,,,,,76,chocar,,,,,,213.747,215.348,0,1,1.078,,0,90,90,75,1,non_cognate,1,REAL,FALSA
,,,,,,,,,5b0564479649530001a3946c,001,2025-05-21_15h49.02.656,empathy_intonation_perc,2024.1.4,Win32,60.0240096,,,,,,,,,,,,,,128,pelí,,,,,,215.348,216.614,0,1,0.719,,0,91,91,127,1,pseudoword,0,REAL,FALSA
,,,,,,,,,5b0564479649530001a3946c,001,2025-05-21_15h49.02.656,empathy_intonation_perc,2024.1.4,Win32,60.0240096,,,,,,,,,,,,,,39,casual,,,,,,216.614,217.864,1,0,0.721,,0,92,92,38,1,two_way_cognate,1,REAL,FALSA
,,,,,,,,,5b0564479649530001a3946c,001,2025-05-21_15h49.02.656,empathy_intonation_perc,2024.1.4,Win32,60.0240096,,,,,,,,,,,,,,6,horror,,,,,,217.864,219.131,1,0,0.738,,0,93,93,5,1,three_way_cognate,1,REAL,FALSA
,,,,,,,,,5b0564479649530001a3946c,001,2025-05-21_15h49.02.656,empathy_intonation_perc,2024.1.4,Win32,60.0240096,,,,,,,,,,,,,,91,equipo,,,,,,219.131,220.481,1,0,0.817,,0,94,94,90,1,non_cognate,1,REAL,FALSA
,,,,,,,,,5b0564479649530001a3946c,001,2025-05-21_15h49.02.656,empathy_intonation_perc,2024.1.4,Win32,60.0240096,,,,,,,,,,,,,,182,desaro,,,,,,220.481,221.831,0,1,0.834,,0,95,95,181,1,pseudoword,0,REAL,FALSA
,,,,,,,,,5b0564479649530001a3946c,001,2025-05-21_15h49.02.656,empathy_intonation_perc,2024.1.4,Win32,60.0240096,,,,,,,,,,,,,,30,fiscal,,,,,,221.831,223.73,0,1,1.383,,0,96,96,29,1,two_way_cognate,1,REAL,FALSA
,,,,,,,,,5b0564479649530001a3946c,001,2025-05-21_15h49.02.656,empathy_intonation_perc,2024.1.4,Win32,60.0240096,,,,,,,,,,,,,,86,cuenco,,,,,,223.731,225.398,0,1,1.134,,0,97,97,85,1,non_cognate,1,REAL,FALSA
,,,,,,,,,5b0564479649530001a3946c,001,2025-05-21_15h49.02.656,empathy_intonation_perc,2024.1.4,Win32,60.0240096,,,,,,,,,,,,,,64,rizado,,,,,,225.399,227.114,0,1,1.182,,0,98,98,63,1,non_cognate,1,REAL,FALSA
,,,,,,,,,5b0564479649530001a3946c,001,2025-05-21_15h49.02.656,empathy_intonation_perc,2024.1.4,Win32,60.0240096,,,,,,,,,,,,,,28,ardor,,,,,,227.114,228.514,0,1,0.867,,0,99,99,27,1,two_way_cognate,1,REAL,FALSA
,,,,,,,,,5b0564479649530001a3946c,001,2025-05-21_15h49.02.656,empathy_intonation_perc,2024.1.4,Win32,60.0240096,,,,,,,,,,,,,,111,monue,,,,,,228.514,229.581,1,0,0.544,,0,100,100,110,1,pseudoword,0,REAL,FALSA
,,,,,,,,,5b0564479649530001a3946c,001,2025-05-21_15h49.02.656,empathy_intonation_perc,2024.1.4,Win32,60.0240096,,,,,,,,,,,,,,67,llamar,,,,,,229.581,230.781,1,0,0.67,,0,101,101,66,1,non_cognate,1,REAL,FALSA
,,,,,,,,,5b0564479649530001a3946c,001,2025-05-21_15h49.02.656,empathy_intonation_perc,2024.1.4,Win32,60.0240096,,,,,,,,,,,,,,52,blando,,,,,,230.781,232.397,0,1,1.085,,0,102,102,51,1,non_cognate,1,REAL,FALSA
,,,,,,,,,5b0564479649530001a3946c,001,2025-05-21_15h49.02.656,empathy_intonation_perc,2024.1.4,Win32,60.0240096,,,,,,,,,,,,,,104,estulo,,,,,,232.4,233.631,0,1,0.702,,0,103,103,103,1,pseudoword,0,REAL,FALSA
,,,,,,,,,5b0564479649530001a3946c,001,2025-05-21_15h49.02.656,empathy_intonation_perc,2024.1.4,Win32,60.0240096,,,,,,,,,,,,,,10,drama,,,,,,233.631,235.197,1,0,1.015,,0,104,104,9,1,three_way_cognate,1,REAL,FALSA
,,,,,,,,,5b0564479649530001a3946c,001,2025-05-21_15h49.02.656,empathy_intonation_perc,2024.1.4,Win32,60.0240096,,,,,,,,,,,,,,169,pitis,,,,,,235.197,237.23,1,0,1.493,,0,105,105,168,1,pseudoword,0,REAL,FALSA
,,,,,,,,,5b0564479649530001a3946c,001,2025-05-21_15h49.02.656,empathy_intonation_perc,2024.1.4,Win32,60.0240096,,,,,,,,,,,,,,178,inichó,,,,,,237.231,238.496,0,1,0.716,,0,106,106,177,1,pseudoword,0,REAL,FALSA
,,,,,,,,,5b0564479649530001a3946c,001,2025-05-21_15h49.02.656,empathy_intonation_perc,2024.1.4,Win32,60.0240096,,,,,,,,,,,,,,79,suelo,,,,,,238.498,240.03,0,1,0.991,,0,107,107,78,1,non_cognate,1,REAL,FALSA
,,,,,,,,,5b0564479649530001a3946c,001,2025-05-21_15h49.02.656,empathy_intonation_perc,2024.1.4,Win32,60.0240096,,,,,,,,,,,,,,115,lidena,,,,,,240.031,241.846,0,1,1.281,,0,108,108,114,1,pseudoword,0,REAL,FALSA
,,,,,,,,,5b0564479649530001a3946c,001,2025-05-21_15h49.02.656,empathy_intonation_perc,2024.1.4,Win32,60.0240096,,,,,,,,,,,,,,7,albino,,,,,,241.847,243.246,1,0,0.882,,0,109,109,6,1,three_way_cognate,1,REAL,FALSA
,,,,,,,,,5b0564479649530001a3946c,001,2025-05-21_15h49.02.656,empathy_intonation_perc,2024.1.4,Win32,60.0240096,,,,,,,,,,,,,,20,trauma,,,,,,243.247,244.397,1,0,0.619,,0,110,110,19,1,three_way_cognate,1,REAL,FALSA
,,,,,,,,,5b0564479649530001a3946c,001,2025-05-21_15h49.02.656,empathy_intonation_perc,2024.1.4,Win32,60.0240096,,,,,,,,,,,,,,74,ala,,,,,,244.397,245.73,0,1,0.801,,0,111,111,73,1,non_cognate,1,REAL,FALSA
,,,,,,,,,5b0564479649530001a3946c,001,2025-05-21_15h49.02.656,empathy_intonation_perc,2024.1.4,Win32,60.0240096,,,,,,,,,,,,,,99,bugor,,,,,,245.731,246.963,0,1,0.703,,0,112,112,98,1,pseudoword,0,REAL,FALSA
,,,,,,,,,5b0564479649530001a3946c,001,2025-05-21_15h49.02.656,empathy_intonation_perc,2024.1.4,Win32,60.0240096,,,,,,,,,,,,,,82,brillo,,,,,,246.964,248.58,0,1,1.095,,0,113,113,81,1,non_cognate,1,REAL,FALSA
,,,,,,,,,5b0564479649530001a3946c,001,2025-05-21_15h49.02.656,empathy_intonation_perc,2024.1.4,Win32,60.0240096,,,,,,,,,,,,,,121,barbs,,,,,,248.58,249.83,0,1,0.732,,0,114,114,120,1,pseudoword,0,REAL,FALSA
,,,,,,,,,5b0564479649530001a3946c,001,2025-05-21_15h49.02.656,empathy_intonation_perc,2024.1.4,Win32,60.0240096,,,,,,,,,,,,,,38,halo,,,,,,249.83,251.247,0,1,0.895,,0,115,115,37,1,two_way_cognate,1,REAL,FALSA
,,,,,,,,,5b0564479649530001a3946c,001,2025-05-21_15h49.02.656,empathy_intonation_perc,2024.1.4,Win32,60.0240096,,,,,,,,,,,,,,96,caro,,,,,,251.248,252.563,1,0,0.783,,0,116,116,95,1,non_cognate,1,REAL,FALSA
,,,,,,,,,5b0564479649530001a3946c,001,2025-05-21_15h49.02.656,empathy_intonation_perc,2024.1.4,Win32,60.0240096,,,,,,,,,,,,,,181,gravés,,,,,,252.563,253.964,0,1,0.862,,0,117,117,180,1,pseudoword,0,REAL,FALSA
,,,,,,,,,5b0564479649530001a3946c,001,2025-05-21_15h49.02.656,empathy_intonation_perc,2024.1.4,Win32,60.0240096,,,,,,,,,,,,,,77,suave,,,,,,253.964,255.68,1,0,1.179,,0,118,118,76,1,non_cognate,1,REAL,FALSA
,,,,,,,,,5b0564479649530001a3946c,001,2025-05-21_15h49.02.656,empathy_intonation_perc,2024.1.4,Win32,60.0240096,,,,,,,,,,,,,,126,tobre,,,,,,255.68,257.48,1,0,1.277,,0,119,119,125,1,pseudoword,0,REAL,FALSA
,,,,,,,,,5b0564479649530001a3946c,001,2025-05-21_15h49.02.656,empathy_intonation_perc,2024.1.4,Win32,60.0240096,,,,,,,,,,,,,,47,color,,,,,,257.481,258.846,1,0,0.826,,0,120,120,46,1,two_way_cognate,1,REAL,FALSA
,,,,,,,,,5b0564479649530001a3946c,001,2025-05-21_15h49.02.656,empathy_intonation_perc,2024.1.4,Win32,60.0240096,,,,,,,,,,,,,,135,panté,,,,,,258.847,260.063,0,1,0.684,,0,121,121,134,1,pseudoword,0,REAL,FALSA
,,,,,,,,,5b0564479649530001a3946c,001,2025-05-21_15h49.02.656,empathy_intonation_perc,2024.1.4,Win32,60.0240096,,,,,,,,,,,,,,161,civas,,,,,,260.063,261.646,0,1,1.056,,0,122,122,160,1,pseudoword,0,REAL,FALSA
,,,,,,,,,5b0564479649530001a3946c,001,2025-05-21_15h49.02.656,empathy_intonation_perc,2024.1.4,Win32,60.0240096,,,,,,,,,,,,,,73,llevar,,,,,,261.647,262.813,1,0,0.637,,0,123,123,72,1,non_cognate,1,REAL,FALSA
,,,,,,,,,5b0564479649530001a3946c,001,2025-05-21_15h49.02.656,empathy_intonation_perc,2024.1.4,Win32,60.0240096,,,,,,,,,,,,,,139,sasos,,,,,,262.813,264.279,0,1,0.948,,0,124,124,138,1,pseudoword,0,REAL,FALSA
,,,,,,,,,5b0564479649530001a3946c,001,2025-05-21_15h49.02.656,empathy_intonation_perc,2024.1.4,Win32,60.0240096,,,,,,,,,,,,,,138,tator,,,,,,264.28,266.196,0,1,1.396,,0,125,125,137,1,pseudoword,0,REAL,FALSA
,,,,,,,,,5b0564479649530001a3946c,001,2025-05-21_15h49.02.656,empathy_intonation_perc,2024.1.4,Win32,60.0240096,,,,,,,,,,,,,,164,tecia,,,,,,266.199,267.546,0,1,0.812,,0,126,126,163,1,pseudoword,0,REAL,FALSA
,,,,,,,,,5b0564479649530001a3946c,001,2025-05-21_15h49.02.656,empathy_intonation_perc,2024.1.4,Win32,60.0240096,,,,,,,,,,,,,,129,vinzó,,,,,,267.547,268.913,0,1,0.836,,0,127,127,128,1,pseudoword,0,REAL,FALSA
,,,,,,,,,5b0564479649530001a3946c,001,2025-05-21_15h49.02.656,empathy_intonation_perc,2024.1.4,Win32,60.0240096,,,,,,,,,,,,,,33,collar,,,,,,268.913,270.579,1,0,1.134,,0,128,128,32,1,two_way_cognate,1,REAL,FALSA
,,,,,,,,,5b0564479649530001a3946c,001,2025-05-21_15h49.02.656,empathy_intonation_perc,2024.1.4,Win32,60.0240096,,,,,,,,,,,,,,63,hilo,,,,,,270.58,273.496,0,1,2.374,,0,129,129,62,1,non_cognate,1,REAL,FALSA
,,,,,,,,,5b0564479649530001a3946c,001,2025-05-21_15h49.02.656,empathy_intonation_perc,2024.1.4,Win32,60.0240096,,,,,,,,,,,,,,106,diebro,,,,,,273.496,274.762,0,1,0.747,,0,130,130,105,1,pseudoword,0,REAL,FALSA
,,,,,,,,,5b0564479649530001a3946c,001,2025-05-21_15h49.02.656,empathy_intonation_perc,2024.1.4,Win32,60.0240096,,,,,,,,,,,,,,125,ceme,,,,,,274.763,276.496,0,1,1.205,,0,131,131,124,1,pseudoword,0,REAL,FALSA
,,,,,,,,,5b0564479649530001a3946c,001,2025-05-21_15h49.02.656,empathy_intonation_perc,2024.1.4,Win32,60.0240096,,,,,,,,,,,,,,185,aljizo,,,,,,276.496,277.946,0,1,0.93,,0,132,132,184,1,pseudoword,0,REAL,FALSA
,,,,,,,,,5b0564479649530001a3946c,001,2025-05-21_15h49.02.656,empathy_intonation_perc,2024.1.4,Win32,60.0240096,,,,,,,,,,,,,,4,flora,,,,,,277.946,278.979,1,0,0.511,,0,133,133,3,1,three_way_cognate,1,REAL,FALSA
,,,,,,,,,5b0564479649530001a3946c,001,2025-05-21_15h49.02.656,empathy_intonation_perc,2024.1.4,Win32,60.0240096,,,,,,,,,,,,,,75,patada,,,,,,278.979,281.312,0,1,1.815,,0,134,134,74,1,non_cognate,1,REAL,FALSA
,,,,,,,,,5b0564479649530001a3946c,001,2025-05-21_15h49.02.656,empathy_intonation_perc,2024.1.4,Win32,60.0240096,,,,,,,,,,,,,,137,trugo,,,,,,281.313,282.779,0,1,0.922,,0,135,135,136,1,pseudoword,0,REAL,FALSA
,,,,,,,,,5b0564479649530001a3946c,001,2025-05-21_15h49.02.656,empathy_intonation_perc,2024.1.4,Win32,60.0240096,,,,,,,,,,,,,,66,aleta,,,,,,282.779,284.062,1,0,0.756,,0,136,136,65,1,non_cognate,1,REAL,FALSA
,,,,,,,,,5b0564479649530001a3946c,001,2025-05-21_15h49.02.656,empathy_intonation_perc,2024.1.4,Win32,60.0240096,,,,,,,,,,,,,,153,golla,,,,,,284.063,285.145,1,0,0.533,,0,137,137,152,1,pseudoword,0,REAL,FALSA
,,,,,,,,,5b0564479649530001a3946c,001,2025-05-21_15h49.02.656,empathy_intonation_perc,2024.1.4,Win32,60.0240096,,,,,,,,,,,,,,172,dogue,,,,,,285.146,286.346,0,1,0.667,,0,138,138,171,1,pseudoword,0,REAL,FALSA
,,,,,,,,,5b0564479649530001a3946c,001,2025-05-21_15h49.02.656,empathy_intonation_perc,2024.1.4,Win32,60.0240096,,,,,,,,,,,,,,105,peniz,,,,,,286.346,288.512,0,1,1.643,,0,139,139,104,1,pseudoword,0,REAL,FALSA
,,,,,,,,,5b0564479649530001a3946c,001,2025-05-21_15h49.02.656,empathy_intonation_perc,2024.1.4,Win32,60.0240096,,,,,,,,,,,,,,148,gino,,,,,,288.512,289.829,0,1,0.805,,0,140,140,147,1,pseudoword,0,REAL,FALSA
,,,,,,,,,5b0564479649530001a3946c,001,2025-05-21_15h49.02.656,empathy_intonation_perc,2024.1.4,Win32,60.0240096,,,,,,,,,,,,,,32,animal,,,,,,289.829,290.912,1,0,0.539,,0,141,141,31,1,two_way_cognate,1,REAL,FALSA
,,,,,,,,,5b0564479649530001a3946c,001,2025-05-21_15h49.02.656,empathy_intonation_perc,2024.1.4,Win32,60.0240096,,,,,,,,,,,,,,5,extra,,,,,,290.912,292.896,1,0,1.465,,0,142,142,4,1,three_way_cognate,1,REAL,FALSA
,,,,,,,,,5b0564479649530001a3946c,001,2025-05-21_15h49.02.656,empathy_intonation_perc,2024.1.4,Win32,60.0240096,,,,,,,,,,,,,,155,kugis,,,,,,292.896,294.046,0,1,0.616,,0,143,143,154,1,pseudoword,0,REAL,FALSA
,,,,,,,,,5b0564479649530001a3946c,001,2025-05-21_15h49.02.656,empathy_intonation_perc,2024.1.4,Win32,60.0240096,,,,,,,,,,,,,,11,golf,,,,,,294.046,295.212,1,0,0.632,,0,144,144,10,1,three_way_cognate,1,REAL,FALSA
,,,,,,,,,5b0564479649530001a3946c,001,2025-05-21_15h49.02.656,empathy_intonation_perc,2024.1.4,Win32,60.0240096,,,,,,,,,,,,,,162,cengo,,,,,,295.213,296.746,0,1,0.996,,0,145,145,161,1,pseudoword,0,REAL,FALSA
,,,,,,,,,5b0564479649530001a3946c,001,2025-05-21_15h49.02.656,empathy_intonation_perc,2024.1.4,Win32,60.0240096,,,,,,,,,,,,,,101,losco,,,,,,296.746,298.095,0,1,0.814,,0,146,146,100,1,pseudoword,0,REAL,FALSA
,,,,,,,,,5b0564479649530001a3946c,001,2025-05-21_15h49.02.656,empathy_intonation_perc,2024.1.4,Win32,60.0240096,,,,,,,,,,,,,,8,kilo,,,,,,298.095,299.913,1,0,1.293,,0,147,147,7,1,three_way_cognate,1,REAL,FALSA
,,,,,,,,,5b0564479649530001a3946c,001,2025-05-21_15h49.02.656,empathy_intonation_perc,2024.1.4,Win32,60.0240096,,,,,,,,,,,,,,152,prave,,,,,,299.914,301.662,0,1,1.217,,0,148,148,151,1,pseudoword,0,REAL,FALSA
,,,,,,,,,5b0564479649530001a3946c,001,2025-05-21_15h49.02.656,empathy_intonation_perc,2024.1.4,Win32,60.0240096,,,,,,,,,,,,,,140,chorde,,,,,,301.662,303.012,0,1,0.813,,0,149,149,139,1,pseudoword,0,REAL,FALSA
,,,,,,,,,5b0564479649530001a3946c,001,2025-05-21_15h49.02.656,empathy_intonation_perc,2024.1.4,Win32,60.0240096,,,,,,,,,,,,,,158,babrá,,,,,,303.012,304.395,0,1,0.844,,0,150,150,157,1,pseudoword,0,REAL,FALSA
,,,,,,,,,5b0564479649530001a3946c,001,2025-05-21_15h49.02.656,empathy_intonation_perc,2024.1.4,Win32,60.0240096,,,,,,,,,,,,,,122,boñaz,,,,,,304.396,305.728,0,1,0.798,,0,151,151,121,1,pseudoword,0,REAL,FALSA
,,,,,,,,,5b0564479649530001a3946c,001,2025-05-21_15h49.02.656,empathy_intonation_perc,2024.1.4,Win32,60.0240096,,,,,,,,,,,,,,188,amplir,,,,,,305.73,308.412,0,1,2.141,,0,152,152,187,1,pseudoword,0,REAL,FALSA
,,,,,,,,,5b0564479649530001a3946c,001,2025-05-21_15h49.02.656,empathy_intonation_perc,2024.1.4,Win32,60.0240096,,,,,,,,,,,,,,61,aduana,,,,,,308.412,309.845,0,1,0.898,,0,153,153,60,1,non_cognate,1,REAL,FALSA
,,,,,,,,,5b0564479649530001a3946c,001,2025-05-21_15h49.02.656,empathy_intonation_perc,2024.1.4,Win32,60.0240096,,,,,,,,,,,,,,92,flecha,,,,,,309.845,311.245,1,0,0.871,,0,154,154,91,1,non_cognate,1,REAL,FALSA
,,,,,,,,,5b0564479649530001a3946c,001,2025-05-21_15h49.02.656,empathy_intonation_perc,2024.1.4,Win32,60.0240096,,,,,,,,,,,,,,108,jauda,,,,,,311.245,312.979,1,0,1.213,,0,155,155,107,1,pseudoword,0,REAL,FALSA
,,,,,,,,,5b0564479649530001a3946c,001,2025-05-21_15h49.02.656,empathy_intonation_perc,2024.1.4,Win32,60.0240096,,,,,,,,,,,,,,62,pegar,,,,,,312.98,314.379,0,1,0.859,,0,156,156,61,1,non_cognate,1,REAL,FALSA
,,,,,,,,,5b0564479649530001a3946c,001,2025-05-21_15h49.02.656,empathy_intonation_perc,2024.1.4,Win32,60.0240096,,,,,,,,,,,,,,189,medium,,,,,,314.379,316.162,1,0,1.241,,0,157,157,188,1,pseudoword,0,REAL,FALSA
,,,,,,,,,5b0564479649530001a3946c,001,2025-05-21_15h49.02.656,empathy_intonation_perc,2024.1.4,Win32,60.0240096,,,,,,,,,,,,,,147,alla,,,,,,316.162,318.028,1,0,1.321,,0,158,158,146,1,pseudoword,0,REAL,FALSA
,,,,,,,,,5b0564479649530001a3946c,001,2025-05-21_15h49.02.656,empathy_intonation_perc,2024.1.4,Win32,60.0240096,,,,,,,,,,,,,,59,feo,,,,,,318.029,319.211,0,1,0.647,,0,159,159,58,1,non_cognate,1,REAL,FALSA
,,,,,,,,,5b0564479649530001a3946c,001,2025-05-21_15h49.02.656,empathy_intonation_perc,2024.1.4,Win32,60.0240096,,,,,,,,,,,,,,133,conso,,,,,,319.211,321.195,0,1,1.47,,0,160,160,132,1,pseudoword,0,REAL,FALSA
,,,,,,,,,5b0564479649530001a3946c,001,2025-05-21_15h49.02.656,empathy_intonation_perc,2024.1.4,Win32,60.0240096,,,,,,,,,,,,,,48,pelvis,,,,,,321.195,323.712,0,1,1.974,,0,161,161,47,1,two_way_cognate,1,REAL,FALSA
,,,,,,,,,5b0564479649530001a3946c,001,2025-05-21_15h49.02.656,empathy_intonation_perc,2024.1.4,Win32,60.0240096,,,,,,,,,,,,,,58,colcha,,,,,,323.712,324.962,0,1,0.712,,0,162,162,57,1,non_cognate,1,REAL,FALSA
,,,,,,,,,5b0564479649530001a3946c,001,2025-05-21_15h49.02.656,empathy_intonation_perc,2024.1.4,Win32,60.0240096,,,,,,,,,,,,,,149,emén,,,,,,324.962,328.378,0,1,2.885,,0,163,163,148,1,pseudoword,0,REAL,FALSA
,,,,,,,,,5b0564479649530001a3946c,001,2025-05-21_15h49.02.656,empathy_intonation_perc,2024.1.4,Win32,60.0240096,,,,,,,,,,,,,,165,chote,,,,,,328.378,329.612,0,1,0.7,,0,164,164,164,1,pseudoword,0,REAL,FALSA
,,,,,,,,,5b0564479649530001a3946c,001,2025-05-21_15h49.02.656,empathy_intonation_perc,2024.1.4,Win32,60.0240096,,,,,,,,,,,,,,174,pabea,,,,,,329.612,330.945,0,1,0.79,,0,165,165,173,1,pseudoword,0,REAL,FALSA
,,,,,,,,,5b0564479649530001a3946c,001,2025-05-21_15h49.02.656,empathy_intonation_perc,2024.1.4,Win32,60.0240096,,,,,,,,,,,,,,176,gripar,,,,,,330.945,332.461,1,0,0.987,,0,166,166,175,1,pseudoword,0,REAL,FALSA
,,,,,,,,,5b0564479649530001a3946c,001,2025-05-21_15h49.02.656,empathy_intonation_perc,2024.1.4,Win32,60.0240096,,,,,,,,,,,,,,142,parre,,,,,,332.461,333.578,1,0,0.596,,0,167,167,141,1,pseudoword,0,REAL,FALSA
,,,,,,,,,5b0564479649530001a3946c,001,2025-05-21_15h49.02.656,empathy_intonation_perc,2024.1.4,Win32,60.0240096,,,,,,,,,,,,,,42,rumor,,,,,,333.581,334.945,1,0,0.82,,0,168,168,41,1,two_way_cognate,1,REAL,FALSA
,,,,,,,,,5b0564479649530001a3946c,001,2025-05-21_15h49.02.656,empathy_intonation_perc,2024.1.4,Win32,60.0240096,,,,,,,,,,,,,,144,diroco,,,,,,334.945,336.295,0,1,0.813,,0,169,169,143,1,pseudoword,0,REAL,FALSA
,,,,,,,,,5b0564479649530001a3946c,001,2025-05-21_15h49.02.656,empathy_intonation_perc,2024.1.4,Win32,60.0240096,,,,,,,,,,,,,,17,clan,,,,,,336.295,337.694,1,0,0.863,,0,170,170,16,1,three_way_cognate,1,REAL,FALSA
,,,,,,,,,5b0564479649530001a3946c,001,2025-05-21_15h49.02.656,empathy_intonation_perc,2024.1.4,Win32,60.0240096,,,,,,,,,,,,,,124,lobe,,,,,,337.695,338.944,0,1,0.715,,0,171,171,123,1,pseudoword,0,REAL,FALSA
,,,,,,,,,5b0564479649530001a3946c,001,2025-05-21_15h49.02.656,empathy_intonation_perc,2024.1.4,Win32,60.0240096,,,,,,,,,,,,,,114,dibrea,,,,,,338.945,340.394,1,0,0.915,,0,172,172,113,1,pseudoword,0,REAL,FALSA
,,,,,,,,,5b0564479649530001a3946c,001,2025-05-21_15h49.02.656,empathy_intonation_perc,2024.1.4,Win32,60.0240096,,,,,,,,,,,,,,24,retina,,,,,,340.395,341.727,1,0,0.797,,0,173,173,23,1,three_way_cognate,1,REAL,FALSA
,,,,,,,,,5b0564479649530001a3946c,001,2025-05-21_15h49.02.656,empathy_intonation_perc,2024.1.4,Win32,60.0240096,,,,,,,,,,,,,,85,enorme,,,,,,341.728,343.011,1,0,0.759,,0,174,174,84,1,non_cognate,1,REAL,FALSA
,,,,,,,,,5b0564479649530001a3946c,001,2025-05-21_15h49.02.656,empathy_intonation_perc,2024.1.4,Win32,60.0240096,,,,,,,,,,,,,,97,nocita,,,,,,343.011,344.594,1,0,1.066,,0,175,175,96,1,pseudoword,0,REAL,FALSA
,,,,,,,,,5b0564479649530001a3946c,001,2025-05-21_15h49.02.656,empathy_intonation_perc,2024.1.4,Win32,60.0240096,,,,,,,,,,,,,,112,samón,,,,,,344.595,345.661,0,1,0.529,,0,176,176,111,1,pseudoword,0,REAL,FALSA
,,,,,,,,,5b0564479649530001a3946c,001,2025-05-21_15h49.02.656,empathy_intonation_perc,2024.1.4,Win32,60.0240096,,,,,,,,,,,,,,49,teñir,,,,,,345.661,346.86,1,0,0.686,,0,177,177,48,1,non_cognate,1,REAL,FALSA
,,,,,,,,,5b0564479649530001a3946c,001,2025-05-21_15h49.02.656,empathy_intonation_perc,2024.1.4,Win32,60.0240096,,,,,,,,,,,,,,87,muleta,,,,,,346.861,348.661,0,1,1.264,,0,178,178,86,1,non_cognate,1,REAL,FALSA
,,,,,,,,,5b0564479649530001a3946c,001,2025-05-21_15h49.02.656,empathy_intonation_perc,2024.1.4,Win32,60.0240096,,,,,,,,,,,,,,29,clamor,,,,,,348.661,350.311,0,1,1.131,,0,179,179,28,1,two_way_cognate,1,REAL,FALSA
,,,,,,,,,5b0564479649530001a3946c,001,2025-05-21_15h49.02.656,empathy_intonation_perc,2024.1.4,Win32,60.0240096,,,,,,,,,,,,,,94,forro,,,,,,350.311,351.91,0,1,1.083,,0,180,180,93,1,non_cognate,1,REAL,FALSA
,,,,,,,,,5b0564479649530001a3946c,001,2025-05-21_15h49.02.656,empathy_intonation_perc,2024.1.4,Win32,60.0240096,,,,,,,,,,,,,,26,enigma,,,,,,351.911,353.594,1,0,1.163,,0,181,181,25,1,two_way_cognate,1,REAL,FALSA
,,,,,,,,,5b0564479649530001a3946c,001,2025-05-21_15h49.02.656,empathy_intonation_perc,2024.1.4,Win32,60.0240096,,,,,,,,,,,,,,69,tiza,,,,,,353.594,354.928,0,1,0.817,,0,182,182,68,1,non_cognate,1,REAL,FALSA
,,,,,,,,,5b0564479649530001a3946c,001,2025-05-21_15h49.02.656,empathy_intonation_perc,2024.1.4,Win32,60.0240096,,,,,,,,,,,,,,16,chat,,,,,,354.928,356.661,1,0,1.202,,0,183,183,15,1,three_way_cognate,1,REAL,FALSA
,,,,,,,,,5b0564479649530001a3946c,001,2025-05-21_15h49.02.656,empathy_intonation_perc,2024.1.4,Win32,60.0240096,,,,,,,,,,,,,,90,venado,,,,,,356.661,358.144,1,0,0.962,,0,184,184,89,1,non_cognate,1,REAL,FALSA
,,,,,,,,,5b0564479649530001a3946c,001,2025-05-21_15h49.02.656,empathy_intonation_perc,2024.1.4,Win32,60.0240096,,,,,,,,,,,,,,113,nasce,,,,,,358.144,359.411,0,1,0.748,,0,185,185,112,1,pseudoword,0,REAL,FALSA
,,,,,,,,,5b0564479649530001a3946c,001,2025-05-21_15h49.02.656,empathy_intonation_perc,2024.1.4,Win32,60.0240096,,,,,,,,,,,,,,54,tapón,,,,,,359.411,360.827,0,1,0.885,,0,186,186,53,1,non_cognate,1,REAL,FALSA
,,,,,,,,,5b0564479649530001a3946c,001,2025-05-21_15h49.02.656,empathy_intonation_perc,2024.1.4,Win32,60.0240096,,,,,,,,,,,,,,37,torso,,,,,,360.827,362.078,1,0,0.717,,0,187,187,36,1,two_way_cognate,1,REAL,FALSA
,,,,,,,,,5b0564479649530001a3946c,001,2025-05-21_15h49.02.656,empathy_intonation_perc,2024.1.4,Win32,60.0240096,,,,,,,,,,,,,,170,diabo,,,,,,362.078,363.744,0,1,1.129,,0,188,188,169,1,pseudoword,0,REAL,FALSA
,,,,,,,,,5b0564479649530001a3946c,001,2025-05-21_15h49.02.656,empathy_intonation_perc,2024.1.4,Win32,60.0240096,,,,,,,,,,,,,,9,portal,,,,,,363.744,364.91,1,0,0.63,,0,189,189,8,1,three_way_cognate,1,REAL,FALSA
,,,,,,,,,5b0564479649530001a3946c,001,2025-05-21_15h49.02.656,empathy_intonation_perc,2024.1.4,Win32,60.0240096,,,,,,,,,,,,,,3,disco,,,,,,364.91,366.044,1,0,0.616,,0,190,190,2,1,three_way_cognate,1,REAL,FALSA
,,,,,,,,,5b0564479649530001a3946c,001,2025-05-21_15h49.02.656,empathy_intonation_perc,2024.1.4,Win32,60.0240096,,,,,,,,,,,,,,41,pasta,,,,,,366.048,367.16,1,0,0.577,,0,191,191,40,1,two_way_cognate,1,REAL,FALSA
