lextale_instructions.started,lextale_instructions.stopped,lextale_instructions_loop.thisRepN,lextale_instructions_loop.thisTrialN,lextale_instructions_loop.thisN,lextale_instructions_loop.thisIndex,lextale_instructions_loop.ran,instructions_text,continue_text,participant,session,date,expName,psychopyVersion,OS,frameRate,lextale_practice.started,lextale_practice.stopped,key_resp_lextale_practice.keys,key_resp_lextale_practice.corr,key_resp_lextale_practice.rt,key_resp_lextale_practice.duration,lextale_practice_feedback.started,lextale_practice_feedback.stopped,lextale_practice_trials.thisRepN,lextale_practice_trials.thisTrialN,lextale_practice_trials.thisN,lextale_practice_trials.thisIndex,lextale_practice_trials.ran,stim,word,correct_response,prac_button_real,prac_button_false,lextale_check.started,lextale_check.stopped,lextale_trial.started,lextale_trial.stopped,key_resp_lextale_trial.keys,key_resp_lextale_trial.corr,key_resp_lextale_trial.rt,key_resp_lextale_trial.duration,lextail_trials.thisRepN,lextail_trials.thisTrialN,lextail_trials.thisN,lextail_trials.thisIndex,lextail_trials.ran,type,correct_reponse,button_real,button_false
0.0022,7.5303,0,0,0,0,1,"Este es un test de vocabulario en español. 
  
  A continuación vas a ver 90 secuencias de letras que parecen 'españolas'.
  
  Solo algunas de ellas son palabras de verdad.",(presiona la barra espaciadora para continuar),5bbbdca68f3bd70001e713ef,001,2025-04-30_16h12.01.646,empathy_intonation_perc,2024.1.4,Win32,60.24096386,,,,,,,,,,,,,,,,,,,,,,,,,,,,,,,,,,,
7.5311,16.633,0,1,1,1,1,"Por favor, señala las palabras que tú conoces (aquellas que estás convencido que son palabras españolas, incluso aunque no seas capaz de dar el significado preciso).",(presiona la barra espaciadora para continuar),5bbbdca68f3bd70001e713ef,001,2025-04-30_16h12.01.646,empathy_intonation_perc,2024.1.4,Win32,60.24096386,,,,,,,,,,,,,,,,,,,,,,,,,,,,,,,,,,,
16.6332,21.5799,0,2,2,2,1,Pero cuidado: los errores se penalizan. Por eso no tiene sentido tratar de incrementar tu puntuación marcando como reales palabras que nunca has visto.,(presiona la barra espaciadora para continuar),5bbbdca68f3bd70001e713ef,001,2025-04-30_16h12.01.646,empathy_intonation_perc,2024.1.4,Win32,60.24096386,,,,,,,,,,,,,,,,,,,,,,,,,,,,,,,,,,,
21.5804,23.4824,0,3,3,3,1,"Presiona la tecla 1 si piensas que es una palabra real y la tecla 
  0 si piensas que es una palabra falsa. 
  
  Vamos a practicar un poco...",(presiona la barra espaciadora para continuar),5bbbdca68f3bd70001e713ef,001,2025-04-30_16h12.01.646,empathy_intonation_perc,2024.1.4,Win32,60.24096386,,,,,,,,,,,,,,,,,,,,,,,,,,,,,,,,,,,
,,,,,,,,,5bbbdca68f3bd70001e713ef,001,2025-04-30_16h12.01.646,empathy_intonation_perc,2024.1.4,Win32,60.24096386,23.4881,25.0232,1,0,0.9999,,25.0235,26.0137,0,0,0,0,1,0,depiste,0,REAL,FALSA,,,,,,,,,,,,,,,,,
,,,,,,,,,5bbbdca68f3bd70001e713ef,001,2025-04-30_16h12.01.646,empathy_intonation_perc,2024.1.4,Win32,60.24096386,26.0145,27.6263,1,1,1.0703,,27.6263,28.6298,0,1,1,1,1,0,sí,1,REAL,FALSA,,,,,,,,,,,,,,,,,
,,,,,,,,,5bbbdca68f3bd70001e713ef,001,2025-04-30_16h12.01.646,empathy_intonation_perc,2024.1.4,Win32,60.24096386,28.6302,30.5466,0,1,1.3699,,30.5467,31.5463,0,2,2,2,1,0,coné,0,REAL,FALSA,,,,,,,,,,,,,,,,,
,,,,,,,,,5bbbdca68f3bd70001e713ef,001,2025-04-30_16h12.01.646,empathy_intonation_perc,2024.1.4,Win32,60.24096386,31.5467,35.6134,1,0,3.5245,,35.6135,36.6135,0,3,3,3,1,0,calpar,0,REAL,FALSA,,,,,,,,,,,,,,,,,
,,,,,,,,,5bbbdca68f3bd70001e713ef,001,2025-04-30_16h12.01.646,empathy_intonation_perc,2024.1.4,Win32,60.24096386,36.6143,38.6798,0,1,1.521,,38.6799,39.6797,0,4,4,4,1,0,joten,0,REAL,FALSA,,,,,,,,,,,,,,,,,
,,,,,,,,,5bbbdca68f3bd70001e713ef,001,2025-04-30_16h12.01.646,empathy_intonation_perc,2024.1.4,Win32,60.24096386,39.6801,41.3798,0,0,1.1525,,41.3799,42.37,0,5,5,5,1,0,sacapuntas,1,REAL,FALSA,,,,,,,,,,,,,,,,,
,,,,,,,,,5bbbdca68f3bd70001e713ef,001,2025-04-30_16h12.01.646,empathy_intonation_perc,2024.1.4,Win32,60.24096386,42.3703,44.3963,1,0,1.485,,44.3963,45.3967,0,6,6,6,1,0,priba,0,REAL,FALSA,,,,,,,,,,,,,,,,,
,,,,,,,,,5bbbdca68f3bd70001e713ef,001,2025-04-30_16h12.01.646,empathy_intonation_perc,2024.1.4,Win32,60.24096386,45.3973,47.2932,0,1,1.3532,,47.2933,48.3048,0,7,7,7,1,0,pelasula,0,REAL,FALSA,,,,,,,,,,,,,,,,,
,,,,,,,,,5bbbdca68f3bd70001e713ef,001,2025-04-30_16h12.01.646,empathy_intonation_perc,2024.1.4,Win32,60.24096386,48.3054,49.9964,1,1,1.1515,,49.9965,50.9966,0,8,8,8,1,0,bien,1,REAL,FALSA,,,,,,,,,,,,,,,,,
,,,,,,,,,5bbbdca68f3bd70001e713ef,001,2025-04-30_16h12.01.646,empathy_intonation_perc,2024.1.4,Win32,60.24096386,50.9972,52.5465,1,1,1.0031,,52.5467,53.5463,0,9,9,9,1,0,casa,1,REAL,FALSA,,,,,,,,,,,,,,,,,
,,,,,,,,,5bbbdca68f3bd70001e713ef,001,2025-04-30_16h12.01.646,empathy_intonation_perc,2024.1.4,Win32,60.24096386,53.5467,55.8632,1,0,1.7725,,55.8633,56.8633,0,10,10,10,1,0,lejo,0,REAL,FALSA,,,,,,,,,,,,,,,,,
,,,,,,,,,5bbbdca68f3bd70001e713ef,001,2025-04-30_16h12.01.646,empathy_intonation_perc,2024.1.4,Win32,60.24096386,56.864,58.6133,1,0,1.204,,58.6134,59.6133,0,11,11,11,1,0,pretantas,0,REAL,FALSA,,,,,,,,,,,,,,,,,
,,,,,,,,,5bbbdca68f3bd70001e713ef,001,2025-04-30_16h12.01.646,empathy_intonation_perc,2024.1.4,Win32,60.24096386,,,,,,,,,,,,,,,,,,,59.6139,63.8138,,,,,,,,,,,,,,,
,,,,,,,,,5bbbdca68f3bd70001e713ef,001,2025-04-30_16h12.01.646,empathy_intonation_perc,2024.1.4,Win32,60.24096386,,,,,,,,,,,,,,127,vien,,,,,,63.8232,65.4134,0,1,1.0534,,0,0,0,126,1,pseudoword,0,REAL,FALSA
,,,,,,,,,5bbbdca68f3bd70001e713ef,001,2025-04-30_16h12.01.646,empathy_intonation_perc,2024.1.4,Win32,60.24096386,,,,,,,,,,,,,,76,chocar,,,,,,65.414,67.38,0,1,1.4199,,0,1,1,75,1,non_cognate,1,REAL,FALSA
,,,,,,,,,5bbbdca68f3bd70001e713ef,001,2025-04-30_16h12.01.646,empathy_intonation_perc,2024.1.4,Win32,60.24096386,,,,,,,,,,,,,,138,tator,,,,,,67.3805,69.3798,1,0,1.455,,0,2,2,137,1,pseudoword,0,REAL,FALSA
,,,,,,,,,5bbbdca68f3bd70001e713ef,001,2025-04-30_16h12.01.646,empathy_intonation_perc,2024.1.4,Win32,60.24096386,,,,,,,,,,,,,,78,rendir,,,,,,69.3802,70.8633,0,1,0.9368,,0,3,3,77,1,non_cognate,1,REAL,FALSA
,,,,,,,,,5bbbdca68f3bd70001e713ef,001,2025-04-30_16h12.01.646,empathy_intonation_perc,2024.1.4,Win32,60.24096386,,,,,,,,,,,,,,159,trcia,,,,,,70.8638,72.6131,1,0,1.2032,,0,4,4,158,1,pseudoword,0,REAL,FALSA
,,,,,,,,,5bbbdca68f3bd70001e713ef,001,2025-04-30_16h12.01.646,empathy_intonation_perc,2024.1.4,Win32,60.24096386,,,,,,,,,,,,,,1,moral,,,,,,72.6135,74.6709,1,0,1.515,,0,5,5,0,1,three_way_cognate,1,REAL,FALSA
,,,,,,,,,5bbbdca68f3bd70001e713ef,001,2025-04-30_16h12.01.646,empathy_intonation_perc,2024.1.4,Win32,60.24096386,,,,,,,,,,,,,,170,diabo,,,,,,74.6711,76.5297,1,0,1.323,,0,6,6,169,1,pseudoword,0,REAL,FALSA
,,,,,,,,,5bbbdca68f3bd70001e713ef,001,2025-04-30_16h12.01.646,empathy_intonation_perc,2024.1.4,Win32,60.24096386,,,,,,,,,,,,,,148,gino,,,,,,76.5301,78.4633,0,1,1.4033,,0,7,7,147,1,pseudoword,0,REAL,FALSA
,,,,,,,,,5bbbdca68f3bd70001e713ef,001,2025-04-30_16h12.01.646,empathy_intonation_perc,2024.1.4,Win32,60.24096386,,,,,,,,,,,,,,104,estulo,,,,,,78.4637,80.6132,1,0,1.6067,,0,8,8,103,1,pseudoword,0,REAL,FALSA
,,,,,,,,,5bbbdca68f3bd70001e713ef,001,2025-04-30_16h12.01.646,empathy_intonation_perc,2024.1.4,Win32,60.24096386,,,,,,,,,,,,,,87,muleta,,,,,,80.6136,82.9466,1,0,1.7878,,0,9,9,86,1,non_cognate,1,REAL,FALSA
,,,,,,,,,5bbbdca68f3bd70001e713ef,001,2025-04-30_16h12.01.646,empathy_intonation_perc,2024.1.4,Win32,60.24096386,,,,,,,,,,,,,,71,torta,,,,,,82.947,84.2465,1,0,0.7543,,0,10,10,70,1,non_cognate,1,REAL,FALSA
,,,,,,,,,5bbbdca68f3bd70001e713ef,001,2025-04-30_16h12.01.646,empathy_intonation_perc,2024.1.4,Win32,60.24096386,,,,,,,,,,,,,,117,morrá,,,,,,84.2469,85.8465,1,0,1.0515,,0,11,11,116,1,pseudoword,0,REAL,FALSA
,,,,,,,,,5bbbdca68f3bd70001e713ef,001,2025-04-30_16h12.01.646,empathy_intonation_perc,2024.1.4,Win32,60.24096386,,,,,,,,,,,,,,7,albino,,,,,,85.8468,87.33,0,1,0.9367,,0,12,12,6,1,three_way_cognate,1,REAL,FALSA
,,,,,,,,,5bbbdca68f3bd70001e713ef,001,2025-04-30_16h12.01.646,empathy_intonation_perc,2024.1.4,Win32,60.24096386,,,,,,,,,,,,,,187,nomata,,,,,,87.3304,89.3993,1,0,1.5265,,0,13,13,186,1,pseudoword,0,REAL,FALSA
,,,,,,,,,5bbbdca68f3bd70001e713ef,001,2025-04-30_16h12.01.646,empathy_intonation_perc,2024.1.4,Win32,60.24096386,,,,,,,,,,,,,,56,pico,,,,,,89.3996,91.215,1,0,1.2755,,0,14,14,55,1,non_cognate,1,REAL,FALSA
,,,,,,,,,5bbbdca68f3bd70001e713ef,001,2025-04-30_16h12.01.646,empathy_intonation_perc,2024.1.4,Win32,60.24096386,,,,,,,,,,,,,,32,animal,,,,,,91.2153,93.3134,0,1,1.5524,,0,15,15,31,1,two_way_cognate,1,REAL,FALSA
,,,,,,,,,5bbbdca68f3bd70001e713ef,001,2025-04-30_16h12.01.646,empathy_intonation_perc,2024.1.4,Win32,60.24096386,,,,,,,,,,,,,,119,esís,,,,,,93.3138,95.613,1,0,1.7504,,0,16,16,118,1,pseudoword,0,REAL,FALSA
,,,,,,,,,5bbbdca68f3bd70001e713ef,001,2025-04-30_16h12.01.646,empathy_intonation_perc,2024.1.4,Win32,60.24096386,,,,,,,,,,,,,,70,ánimo,,,,,,95.6134,97.8297,0,1,1.6859,,0,17,17,69,1,non_cognate,1,REAL,FALSA
,,,,,,,,,5bbbdca68f3bd70001e713ef,001,2025-04-30_16h12.01.646,empathy_intonation_perc,2024.1.4,Win32,60.24096386,,,,,,,,,,,,,,63,hilo,,,,,,97.8301,99.6465,0,1,1.2679,,0,18,18,62,1,non_cognate,1,REAL,FALSA
,,,,,,,,,5bbbdca68f3bd70001e713ef,001,2025-04-30_16h12.01.646,empathy_intonation_perc,2024.1.4,Win32,60.24096386,,,,,,,,,,,,,,31,civil,,,,,,99.6469,101.3632,1,0,1.1701,,0,19,19,30,1,two_way_cognate,1,REAL,FALSA
,,,,,,,,,5bbbdca68f3bd70001e713ef,001,2025-04-30_16h12.01.646,empathy_intonation_perc,2024.1.4,Win32,60.24096386,,,,,,,,,,,,,,186,rizate,,,,,,101.3637,102.93,0,1,1.0199,,0,20,20,185,1,pseudoword,0,REAL,FALSA
,,,,,,,,,5bbbdca68f3bd70001e713ef,001,2025-04-30_16h12.01.646,empathy_intonation_perc,2024.1.4,Win32,60.24096386,,,,,,,,,,,,,,13,plan,,,,,,102.9304,105.0131,0,1,1.5339,,0,21,21,12,1,three_way_cognate,1,REAL,FALSA
,,,,,,,,,5bbbdca68f3bd70001e713ef,001,2025-04-30_16h12.01.646,empathy_intonation_perc,2024.1.4,Win32,60.24096386,,,,,,,,,,,,,,184,huenos,,,,,,105.0134,106.8965,1,0,1.3367,,0,22,22,183,1,pseudoword,0,REAL,FALSA
,,,,,,,,,5bbbdca68f3bd70001e713ef,001,2025-04-30_16h12.01.646,empathy_intonation_perc,2024.1.4,Win32,60.24096386,,,,,,,,,,,,,,84,aviso,,,,,,106.8969,109.3299,0,1,1.8877,,0,23,23,83,1,non_cognate,1,REAL,FALSA
,,,,,,,,,5bbbdca68f3bd70001e713ef,001,2025-04-30_16h12.01.646,empathy_intonation_perc,2024.1.4,Win32,60.24096386,,,,,,,,,,,,,,146,gió,,,,,,109.3304,110.6819,0,1,0.8093,,0,24,24,145,1,pseudoword,0,REAL,FALSA
,,,,,,,,,5bbbdca68f3bd70001e713ef,001,2025-04-30_16h12.01.646,empathy_intonation_perc,2024.1.4,Win32,60.24096386,,,,,,,,,,,,,,157,seled,,,,,,110.6822,112.5464,0,1,1.3203,,0,25,25,156,1,pseudoword,0,REAL,FALSA
,,,,,,,,,5bbbdca68f3bd70001e713ef,001,2025-04-30_16h12.01.646,empathy_intonation_perc,2024.1.4,Win32,60.24096386,,,,,,,,,,,,,,5,extra,,,,,,112.547,114.5964,0,1,1.5006,,0,26,26,4,1,three_way_cognate,1,REAL,FALSA
,,,,,,,,,5bbbdca68f3bd70001e713ef,001,2025-04-30_16h12.01.646,empathy_intonation_perc,2024.1.4,Win32,60.24096386,,,,,,,,,,,,,,93,tapa,,,,,,114.5968,115.9963,1,0,0.856,,0,27,27,92,1,non_cognate,1,REAL,FALSA
,,,,,,,,,5bbbdca68f3bd70001e713ef,001,2025-04-30_16h12.01.646,empathy_intonation_perc,2024.1.4,Win32,60.24096386,,,,,,,,,,,,,,12,dogma,,,,,,115.9967,117.8299,0,1,1.2864,,0,28,28,11,1,three_way_cognate,1,REAL,FALSA
,,,,,,,,,5bbbdca68f3bd70001e713ef,001,2025-04-30_16h12.01.646,empathy_intonation_perc,2024.1.4,Win32,60.24096386,,,,,,,,,,,,,,153,golla,,,,,,117.8302,119.7797,0,1,1.4007,,0,29,29,152,1,pseudoword,0,REAL,FALSA
,,,,,,,,,5bbbdca68f3bd70001e713ef,001,2025-04-30_16h12.01.646,empathy_intonation_perc,2024.1.4,Win32,60.24096386,,,,,,,,,,,,,,6,horror,,,,,,119.78,121.4467,0,1,1.1198,,0,30,30,5,1,three_way_cognate,1,REAL,FALSA
,,,,,,,,,5bbbdca68f3bd70001e713ef,001,2025-04-30_16h12.01.646,empathy_intonation_perc,2024.1.4,Win32,60.24096386,,,,,,,,,,,,,,33,collar,,,,,,121.447,123.2468,0,1,1.2529,,0,31,31,32,1,two_way_cognate,1,REAL,FALSA
,,,,,,,,,5bbbdca68f3bd70001e713ef,001,2025-04-30_16h12.01.646,empathy_intonation_perc,2024.1.4,Win32,60.24096386,,,,,,,,,,,,,,169,pitis,,,,,,123.2472,124.7132,0,1,0.9226,,0,32,32,168,1,pseudoword,0,REAL,FALSA
,,,,,,,,,5bbbdca68f3bd70001e713ef,001,2025-04-30_16h12.01.646,empathy_intonation_perc,2024.1.4,Win32,60.24096386,,,,,,,,,,,,,,185,aljizo,,,,,,124.7135,126.4467,0,1,1.1881,,0,33,33,184,1,pseudoword,0,REAL,FALSA
,,,,,,,,,5bbbdca68f3bd70001e713ef,001,2025-04-30_16h12.01.646,empathy_intonation_perc,2024.1.4,Win32,60.24096386,,,,,,,,,,,,,,80,cuenco,,,,,,126.447,127.8634,1,0,0.8708,,0,34,34,79,1,non_cognate,1,REAL,FALSA
,,,,,,,,,5bbbdca68f3bd70001e713ef,001,2025-04-30_16h12.01.646,empathy_intonation_perc,2024.1.4,Win32,60.24096386,,,,,,,,,,,,,,36,viable,,,,,,127.864,129.5472,0,1,1.1416,,0,35,35,35,1,two_way_cognate,1,REAL,FALSA
,,,,,,,,,5bbbdca68f3bd70001e713ef,001,2025-04-30_16h12.01.646,empathy_intonation_perc,2024.1.4,Win32,60.24096386,,,,,,,,,,,,,,47,color,,,,,,129.5475,131.08,0,1,0.9882,,0,36,36,46,1,two_way_cognate,1,REAL,FALSA
,,,,,,,,,5bbbdca68f3bd70001e713ef,001,2025-04-30_16h12.01.646,empathy_intonation_perc,2024.1.4,Win32,60.24096386,,,,,,,,,,,,,,16,chat,,,,,,131.0804,133.3466,0,1,1.7187,,0,37,37,15,1,three_way_cognate,1,REAL,FALSA
,,,,,,,,,5bbbdca68f3bd70001e713ef,001,2025-04-30_16h12.01.646,empathy_intonation_perc,2024.1.4,Win32,60.24096386,,,,,,,,,,,,,,57,regalo,,,,,,133.3471,134.7134,1,0,0.8203,,0,38,38,56,1,non_cognate,1,REAL,FALSA
,,,,,,,,,5bbbdca68f3bd70001e713ef,001,2025-04-30_16h12.01.646,empathy_intonation_perc,2024.1.4,Win32,60.24096386,,,,,,,,,,,,,,107,plago,,,,,,134.714,136.2136,1,0,0.9572,,0,39,39,106,1,pseudoword,0,REAL,FALSA
,,,,,,,,,5bbbdca68f3bd70001e713ef,001,2025-04-30_16h12.01.646,empathy_intonation_perc,2024.1.4,Win32,60.24096386,,,,,,,,,,,,,,133,conso,,,,,,136.214,138.0632,0,1,1.303,,0,40,40,132,1,pseudoword,0,REAL,FALSA
,,,,,,,,,5bbbdca68f3bd70001e713ef,001,2025-04-30_16h12.01.646,empathy_intonation_perc,2024.1.4,Win32,60.24096386,,,,,,,,,,,,,,45,total,,,,,,138.0638,139.697,1,0,1.0869,,0,41,41,44,1,two_way_cognate,1,REAL,FALSA
,,,,,,,,,5bbbdca68f3bd70001e713ef,001,2025-04-30_16h12.01.646,empathy_intonation_perc,2024.1.4,Win32,60.24096386,,,,,,,,,,,,,,109,laras,,,,,,139.6975,141.6298,0,1,1.3891,,0,42,42,108,1,pseudoword,0,REAL,FALSA
,,,,,,,,,5bbbdca68f3bd70001e713ef,001,2025-04-30_16h12.01.646,empathy_intonation_perc,2024.1.4,Win32,60.24096386,,,,,,,,,,,,,,18,altar,,,,,,141.63,143.1142,1,0,0.9578,,0,43,43,17,1,three_way_cognate,1,REAL,FALSA
,,,,,,,,,5bbbdca68f3bd70001e713ef,001,2025-04-30_16h12.01.646,empathy_intonation_perc,2024.1.4,Win32,60.24096386,,,,,,,,,,,,,,9,portal,,,,,,143.1146,145.5467,0,1,1.8848,,0,44,44,8,1,three_way_cognate,1,REAL,FALSA
,,,,,,,,,5bbbdca68f3bd70001e713ef,001,2025-04-30_16h12.01.646,empathy_intonation_perc,2024.1.4,Win32,60.24096386,,,,,,,,,,,,,,123,arane,,,,,,145.5472,147.1805,0,1,1.0908,,0,45,45,122,1,pseudoword,0,REAL,FALSA
,,,,,,,,,5bbbdca68f3bd70001e713ef,001,2025-04-30_16h12.01.646,empathy_intonation_perc,2024.1.4,Win32,60.24096386,,,,,,,,,,,,,,23,plural,,,,,,147.1811,149.88,1,0,2.1509,,0,46,46,22,1,three_way_cognate,1,REAL,FALSA
,,,,,,,,,5bbbdca68f3bd70001e713ef,001,2025-04-30_16h12.01.646,empathy_intonation_perc,2024.1.4,Win32,60.24096386,,,,,,,,,,,,,,101,losco,,,,,,149.8805,151.6244,1,0,1.2015,,0,47,47,100,1,pseudoword,0,REAL,FALSA
,,,,,,,,,5bbbdca68f3bd70001e713ef,001,2025-04-30_16h12.01.646,empathy_intonation_perc,2024.1.4,Win32,60.24096386,,,,,,,,,,,,,,39,casual,,,,,,151.6245,153.1135,0,1,0.9691,,0,48,48,38,1,two_way_cognate,1,REAL,FALSA
,,,,,,,,,5bbbdca68f3bd70001e713ef,001,2025-04-30_16h12.01.646,empathy_intonation_perc,2024.1.4,Win32,60.24096386,,,,,,,,,,,,,,129,vinzó,,,,,,153.1138,155.1151,0,1,1.4719,,0,49,49,128,1,pseudoword,0,REAL,FALSA
,,,,,,,,,5bbbdca68f3bd70001e713ef,001,2025-04-30_16h12.01.646,empathy_intonation_perc,2024.1.4,Win32,60.24096386,,,,,,,,,,,,,,51,listo,,,,,,155.1154,157.63,1,0,1.9854,,0,50,50,50,1,non_cognate,1,REAL,FALSA
,,,,,,,,,5bbbdca68f3bd70001e713ef,001,2025-04-30_16h12.01.646,empathy_intonation_perc,2024.1.4,Win32,60.24096386,,,,,,,,,,,,,,20,trauma,,,,,,157.6305,160.3644,1,0,2.2037,,0,51,51,19,1,three_way_cognate,1,REAL,FALSA
,,,,,,,,,5bbbdca68f3bd70001e713ef,001,2025-04-30_16h12.01.646,empathy_intonation_perc,2024.1.4,Win32,60.24096386,,,,,,,,,,,,,,125,ceme,,,,,,160.3648,161.7465,0,1,0.8511,,0,52,52,124,1,pseudoword,0,REAL,FALSA
,,,,,,,,,5bbbdca68f3bd70001e713ef,001,2025-04-30_16h12.01.646,empathy_intonation_perc,2024.1.4,Win32,60.24096386,,,,,,,,,,,,,,124,lobe,,,,,,161.7467,163.4301,0,1,1.1642,,0,53,53,123,1,pseudoword,0,REAL,FALSA
,,,,,,,,,5bbbdca68f3bd70001e713ef,001,2025-04-30_16h12.01.646,empathy_intonation_perc,2024.1.4,Win32,60.24096386,,,,,,,,,,,,,,59,feo,,,,,,163.4307,165.03,1,0,1.0722,,0,54,54,58,1,non_cognate,1,REAL,FALSA
,,,,,,,,,5bbbdca68f3bd70001e713ef,001,2025-04-30_16h12.01.646,empathy_intonation_perc,2024.1.4,Win32,60.24096386,,,,,,,,,,,,,,66,aleta,,,,,,165.0301,166.697,1,0,1.1481,,0,55,55,65,1,non_cognate,1,REAL,FALSA
,,,,,,,,,5bbbdca68f3bd70001e713ef,001,2025-04-30_16h12.01.646,empathy_intonation_perc,2024.1.4,Win32,60.24096386,,,,,,,,,,,,,,26,enigma,,,,,,166.6974,168.3302,0,1,1.0979,,0,56,56,25,1,two_way_cognate,1,REAL,FALSA
,,,,,,,,,5bbbdca68f3bd70001e713ef,001,2025-04-30_16h12.01.646,empathy_intonation_perc,2024.1.4,Win32,60.24096386,,,,,,,,,,,,,,156,ozoso,,,,,,168.3306,170.0468,1,0,1.2025,,0,57,57,155,1,pseudoword,0,REAL,FALSA
,,,,,,,,,5bbbdca68f3bd70001e713ef,001,2025-04-30_16h12.01.646,empathy_intonation_perc,2024.1.4,Win32,60.24096386,,,,,,,,,,,,,,151,prías,,,,,,170.0472,171.797,1,0,1.2141,,0,58,58,150,1,pseudoword,0,REAL,FALSA
,,,,,,,,,5bbbdca68f3bd70001e713ef,001,2025-04-30_16h12.01.646,empathy_intonation_perc,2024.1.4,Win32,60.24096386,,,,,,,,,,,,,,64,rizado,,,,,,171.7975,173.3005,0,1,0.9741,,0,59,59,63,1,non_cognate,1,REAL,FALSA
,,,,,,,,,5bbbdca68f3bd70001e713ef,001,2025-04-30_16h12.01.646,empathy_intonation_perc,2024.1.4,Win32,60.24096386,,,,,,,,,,,,,,175,tradía,,,,,,173.3008,175.9132,1,0,2.0817,,0,60,60,174,1,pseudoword,0,REAL,FALSA
,,,,,,,,,5bbbdca68f3bd70001e713ef,001,2025-04-30_16h12.01.646,empathy_intonation_perc,2024.1.4,Win32,60.24096386,,,,,,,,,,,,,,96,caro,,,,,,175.9135,177.43,1,0,1.0016,,0,61,61,95,1,non_cognate,1,REAL,FALSA
,,,,,,,,,5bbbdca68f3bd70001e713ef,001,2025-04-30_16h12.01.646,empathy_intonation_perc,2024.1.4,Win32,60.24096386,,,,,,,,,,,,,,83,hálito,,,,,,177.4303,179.9802,1,0,2.0227,,0,62,62,82,1,non_cognate,1,REAL,FALSA
,,,,,,,,,5bbbdca68f3bd70001e713ef,001,2025-04-30_16h12.01.646,empathy_intonation_perc,2024.1.4,Win32,60.24096386,,,,,,,,,,,,,,8,kilo,,,,,,179.9804,182.5333,1,0,2.0221,,0,63,63,7,1,three_way_cognate,1,REAL,FALSA
,,,,,,,,,5bbbdca68f3bd70001e713ef,001,2025-04-30_16h12.01.646,empathy_intonation_perc,2024.1.4,Win32,60.24096386,,,,,,,,,,,,,,111,monue,,,,,,182.5337,183.9002,0,1,0.8403,,0,64,64,110,1,pseudoword,0,REAL,FALSA
,,,,,,,,,5bbbdca68f3bd70001e713ef,001,2025-04-30_16h12.01.646,empathy_intonation_perc,2024.1.4,Win32,60.24096386,,,,,,,,,,,,,,53,punta,,,,,,183.9006,185.5466,1,0,1.1168,,0,65,65,52,1,non_cognate,1,REAL,FALSA
,,,,,,,,,5bbbdca68f3bd70001e713ef,001,2025-04-30_16h12.01.646,empathy_intonation_perc,2024.1.4,Win32,60.24096386,,,,,,,,,,,,,,19,mafia,,,,,,185.547,188.2469,0,1,2.1653,,0,66,66,18,1,three_way_cognate,1,REAL,FALSA
,,,,,,,,,5bbbdca68f3bd70001e713ef,001,2025-04-30_16h12.01.646,empathy_intonation_perc,2024.1.4,Win32,60.24096386,,,,,,,,,,,,,,90,venado,,,,,,188.2475,190.2969,0,1,1.5157,,0,67,67,89,1,non_cognate,1,REAL,FALSA
,,,,,,,,,5bbbdca68f3bd70001e713ef,001,2025-04-30_16h12.01.646,empathy_intonation_perc,2024.1.4,Win32,60.24096386,,,,,,,,,,,,,,116,grigir,,,,,,190.2973,191.73,0,1,0.9028,,0,68,68,115,1,pseudoword,0,REAL,FALSA
,,,,,,,,,5bbbdca68f3bd70001e713ef,001,2025-04-30_16h12.01.646,empathy_intonation_perc,2024.1.4,Win32,60.24096386,,,,,,,,,,,,,,77,suave,,,,,,191.7304,193.3966,0,1,1.1335,,0,69,69,76,1,non_cognate,1,REAL,FALSA
,,,,,,,,,5bbbdca68f3bd70001e713ef,001,2025-04-30_16h12.01.646,empathy_intonation_perc,2024.1.4,Win32,60.24096386,,,,,,,,,,,,,,58,colcha,,,,,,193.3971,194.8966,1,0,0.9698,,0,70,70,57,1,non_cognate,1,REAL,FALSA
,,,,,,,,,5bbbdca68f3bd70001e713ef,001,2025-04-30_16h12.01.646,empathy_intonation_perc,2024.1.4,Win32,60.24096386,,,,,,,,,,,,,,110,densó,,,,,,194.8968,196.5636,1,0,1.1484,,0,71,71,109,1,pseudoword,0,REAL,FALSA
,,,,,,,,,5bbbdca68f3bd70001e713ef,001,2025-04-30_16h12.01.646,empathy_intonation_perc,2024.1.4,Win32,60.24096386,,,,,,,,,,,,,,44,editor,,,,,,196.5642,197.8966,0,1,0.7994,,0,72,72,43,1,two_way_cognate,1,REAL,FALSA
,,,,,,,,,5bbbdca68f3bd70001e713ef,001,2025-04-30_16h12.01.646,empathy_intonation_perc,2024.1.4,Win32,60.24096386,,,,,,,,,,,,,,85,enorme,,,,,,197.8968,199.7136,1,0,1.2984,,0,73,73,84,1,non_cognate,1,REAL,FALSA
,,,,,,,,,5bbbdca68f3bd70001e713ef,001,2025-04-30_16h12.01.646,empathy_intonation_perc,2024.1.4,Win32,60.24096386,,,,,,,,,,,,,,136,hueas,,,,,,199.7142,201.9967,1,0,1.7505,,0,74,74,135,1,pseudoword,0,REAL,FALSA
,,,,,,,,,5bbbdca68f3bd70001e713ef,001,2025-04-30_16h12.01.646,empathy_intonation_perc,2024.1.4,Win32,60.24096386,,,,,,,,,,,,,,37,torso,,,,,,201.997,203.5468,1,0,1.0166,,0,75,75,36,1,two_way_cognate,1,REAL,FALSA
,,,,,,,,,5bbbdca68f3bd70001e713ef,001,2025-04-30_16h12.01.646,empathy_intonation_perc,2024.1.4,Win32,60.24096386,,,,,,,,,,,,,,22,mango,,,,,,203.5472,205.5154,0,1,1.4396,,0,76,76,21,1,three_way_cognate,1,REAL,FALSA
,,,,,,,,,5bbbdca68f3bd70001e713ef,001,2025-04-30_16h12.01.646,empathy_intonation_perc,2024.1.4,Win32,60.24096386,,,,,,,,,,,,,,17,clan,,,,,,205.5157,207.3968,0,1,1.3464,,0,77,77,16,1,three_way_cognate,1,REAL,FALSA
,,,,,,,,,5bbbdca68f3bd70001e713ef,001,2025-04-30_16h12.01.646,empathy_intonation_perc,2024.1.4,Win32,60.24096386,,,,,,,,,,,,,,165,chote,,,,,,207.3973,209.0635,0,1,1.1333,,0,78,78,164,1,pseudoword,0,REAL,FALSA
,,,,,,,,,5bbbdca68f3bd70001e713ef,001,2025-04-30_16h12.01.646,empathy_intonation_perc,2024.1.4,Win32,60.24096386,,,,,,,,,,,,,,189,medium,,,,,,209.0637,210.7135,0,1,1.1131,,0,79,79,188,1,pseudoword,0,REAL,FALSA
,,,,,,,,,5bbbdca68f3bd70001e713ef,001,2025-04-30_16h12.01.646,empathy_intonation_perc,2024.1.4,Win32,60.24096386,,,,,,,,,,,,,,131,fuar,,,,,,210.714,213.7325,1,0,2.4898,,0,80,80,130,1,pseudoword,0,REAL,FALSA
,,,,,,,,,5bbbdca68f3bd70001e713ef,001,2025-04-30_16h12.01.646,empathy_intonation_perc,2024.1.4,Win32,60.24096386,,,,,,,,,,,,,,46,mortal,,,,,,213.733,215.8986,1,0,1.6412,,0,81,81,45,1,two_way_cognate,1,REAL,FALSA
,,,,,,,,,5bbbdca68f3bd70001e713ef,001,2025-04-30_16h12.01.646,empathy_intonation_perc,2024.1.4,Win32,60.24096386,,,,,,,,,,,,,,163,llzan,,,,,,215.8988,217.2135,0,1,0.7845,,0,82,82,162,1,pseudoword,0,REAL,FALSA
,,,,,,,,,5bbbdca68f3bd70001e713ef,001,2025-04-30_16h12.01.646,empathy_intonation_perc,2024.1.4,Win32,60.24096386,,,,,,,,,,,,,,105,peniz,,,,,,217.2139,219.0302,0,1,1.2825,,0,83,83,104,1,pseudoword,0,REAL,FALSA
,,,,,,,,,5bbbdca68f3bd70001e713ef,001,2025-04-30_16h12.01.646,empathy_intonation_perc,2024.1.4,Win32,60.24096386,,,,,,,,,,,,,,121,barbs,,,,,,219.0306,220.7969,0,1,1.2351,,0,84,84,120,1,pseudoword,0,REAL,FALSA
,,,,,,,,,5bbbdca68f3bd70001e713ef,001,2025-04-30_16h12.01.646,empathy_intonation_perc,2024.1.4,Win32,60.24096386,,,,,,,,,,,,,,143,hurcos,,,,,,220.7973,222.5638,1,0,1.2319,,0,85,85,142,1,pseudoword,0,REAL,FALSA
,,,,,,,,,5bbbdca68f3bd70001e713ef,001,2025-04-30_16h12.01.646,empathy_intonation_perc,2024.1.4,Win32,60.24096386,,,,,,,,,,,,,,11,golf,,,,,,222.5643,224.0969,0,1,1.0021,,0,86,86,10,1,three_way_cognate,1,REAL,FALSA
,,,,,,,,,5bbbdca68f3bd70001e713ef,001,2025-04-30_16h12.01.646,empathy_intonation_perc,2024.1.4,Win32,60.24096386,,,,,,,,,,,,,,161,civas,,,,,,224.0972,225.6638,1,0,1.0378,,0,87,87,160,1,pseudoword,0,REAL,FALSA
,,,,,,,,,5bbbdca68f3bd70001e713ef,001,2025-04-30_16h12.01.646,empathy_intonation_perc,2024.1.4,Win32,60.24096386,,,,,,,,,,,,,,42,rumor,,,,,,225.6641,227.5318,0,1,1.3392,,0,88,88,41,1,two_way_cognate,1,REAL,FALSA
,,,,,,,,,5bbbdca68f3bd70001e713ef,001,2025-04-30_16h12.01.646,empathy_intonation_perc,2024.1.4,Win32,60.24096386,,,,,,,,,,,,,,38,halo,,,,,,227.5321,230.447,0,1,2.3824,,0,89,89,37,1,two_way_cognate,1,REAL,FALSA
,,,,,,,,,5bbbdca68f3bd70001e713ef,001,2025-04-30_16h12.01.646,empathy_intonation_perc,2024.1.4,Win32,60.24096386,,,,,,,,,,,,,,137,trugo,,,,,,230.4475,231.9137,1,0,0.9328,,0,90,90,136,1,pseudoword,0,REAL,FALSA
,,,,,,,,,5bbbdca68f3bd70001e713ef,001,2025-04-30_16h12.01.646,empathy_intonation_perc,2024.1.4,Win32,60.24096386,,,,,,,,,,,,,,100,épinas,,,,,,231.9141,233.4136,1,0,0.9711,,0,91,91,99,1,pseudoword,0,REAL,FALSA
,,,,,,,,,5bbbdca68f3bd70001e713ef,001,2025-04-30_16h12.01.646,empathy_intonation_perc,2024.1.4,Win32,60.24096386,,,,,,,,,,,,,,24,retina,,,,,,233.414,234.9636,0,1,1.0152,,0,92,92,23,1,three_way_cognate,1,REAL,FALSA
,,,,,,,,,5bbbdca68f3bd70001e713ef,001,2025-04-30_16h12.01.646,empathy_intonation_perc,2024.1.4,Win32,60.24096386,,,,,,,,,,,,,,115,lidena,,,,,,234.964,236.5469,0,1,1.0498,,0,93,93,114,1,pseudoword,0,REAL,FALSA
,,,,,,,,,5bbbdca68f3bd70001e713ef,001,2025-04-30_16h12.01.646,empathy_intonation_perc,2024.1.4,Win32,60.24096386,,,,,,,,,,,,,,40,pelvis,,,,,,236.5474,237.8634,0,1,0.7871,,0,94,94,39,1,two_way_cognate,1,REAL,FALSA
,,,,,,,,,5bbbdca68f3bd70001e713ef,001,2025-04-30_16h12.01.646,empathy_intonation_perc,2024.1.4,Win32,60.24096386,,,,,,,,,,,,,,142,parre,,,,,,237.8635,239.197,0,1,0.8174,,0,95,95,141,1,pseudoword,0,REAL,FALSA
,,,,,,,,,5bbbdca68f3bd70001e713ef,001,2025-04-30_16h12.01.646,empathy_intonation_perc,2024.1.4,Win32,60.24096386,,,,,,,,,,,,,,73,llevar,,,,,,239.1974,240.5802,1,0,0.8476,,0,96,96,72,1,non_cognate,1,REAL,FALSA
,,,,,,,,,5bbbdca68f3bd70001e713ef,001,2025-04-30_16h12.01.646,empathy_intonation_perc,2024.1.4,Win32,60.24096386,,,,,,,,,,,,,,74,ala,,,,,,240.5806,242.1172,0,1,1.0086,,0,97,97,73,1,non_cognate,1,REAL,FALSA
,,,,,,,,,5bbbdca68f3bd70001e713ef,001,2025-04-30_16h12.01.646,empathy_intonation_perc,2024.1.4,Win32,60.24096386,,,,,,,,,,,,,,28,ardor,,,,,,242.1174,243.597,0,1,0.9498,,0,98,98,27,1,two_way_cognate,1,REAL,FALSA
,,,,,,,,,5bbbdca68f3bd70001e713ef,001,2025-04-30_16h12.01.646,empathy_intonation_perc,2024.1.4,Win32,60.24096386,,,,,,,,,,,,,,134,molor,,,,,,243.5974,244.9303,0,1,0.8035,,0,99,99,133,1,pseudoword,0,REAL,FALSA
,,,,,,,,,5bbbdca68f3bd70001e713ef,001,2025-04-30_16h12.01.646,empathy_intonation_perc,2024.1.4,Win32,60.24096386,,,,,,,,,,,,,,94,forro,,,,,,244.9306,247.1137,0,1,1.6516,,0,100,100,93,1,non_cognate,1,REAL,FALSA
,,,,,,,,,5bbbdca68f3bd70001e713ef,001,2025-04-30_16h12.01.646,empathy_intonation_perc,2024.1.4,Win32,60.24096386,,,,,,,,,,,,,,75,patada,,,,,,247.114,248.6301,1,0,0.9827,,0,101,101,74,1,non_cognate,1,REAL,FALSA
,,,,,,,,,5bbbdca68f3bd70001e713ef,001,2025-04-30_16h12.01.646,empathy_intonation_perc,2024.1.4,Win32,60.24096386,,,,,,,,,,,,,,180,pupica,,,,,,248.6304,250.6325,1,0,1.4731,,0,102,102,179,1,pseudoword,0,REAL,FALSA
,,,,,,,,,5bbbdca68f3bd70001e713ef,001,2025-04-30_16h12.01.646,empathy_intonation_perc,2024.1.4,Win32,60.24096386,,,,,,,,,,,,,,95,listo,,,,,,250.6328,252.047,1,0,0.8814,,0,103,103,94,1,non_cognate,1,REAL,FALSA
,,,,,,,,,5bbbdca68f3bd70001e713ef,001,2025-04-30_16h12.01.646,empathy_intonation_perc,2024.1.4,Win32,60.24096386,,,,,,,,,,,,,,176,gripar,,,,,,252.0476,253.7472,1,0,1.1649,,0,104,104,175,1,pseudoword,0,REAL,FALSA
,,,,,,,,,5bbbdca68f3bd70001e713ef,001,2025-04-30_16h12.01.646,empathy_intonation_perc,2024.1.4,Win32,60.24096386,,,,,,,,,,,,,,29,clamor,,,,,,253.7478,255.3134,0,1,1.0389,,0,105,105,28,1,two_way_cognate,1,REAL,FALSA
,,,,,,,,,5bbbdca68f3bd70001e713ef,001,2025-04-30_16h12.01.646,empathy_intonation_perc,2024.1.4,Win32,60.24096386,,,,,,,,,,,,,,162,cengo,,,,,,255.3136,257.1134,0,1,1.2814,,0,106,106,161,1,pseudoword,0,REAL,FALSA
,,,,,,,,,5bbbdca68f3bd70001e713ef,001,2025-04-30_16h12.01.646,empathy_intonation_perc,2024.1.4,Win32,60.24096386,,,,,,,,,,,,,,91,equipo,,,,,,257.1136,260.2803,1,0,2.6513,,0,107,107,90,1,non_cognate,1,REAL,FALSA
,,,,,,,,,5bbbdca68f3bd70001e713ef,001,2025-04-30_16h12.01.646,empathy_intonation_perc,2024.1.4,Win32,60.24096386,,,,,,,,,,,,,,14,aura,,,,,,260.2806,262.5485,0,1,1.7554,,0,108,108,13,1,three_way_cognate,1,REAL,FALSA
,,,,,,,,,5bbbdca68f3bd70001e713ef,001,2025-04-30_16h12.01.646,empathy_intonation_perc,2024.1.4,Win32,60.24096386,,,,,,,,,,,,,,150,cricó,,,,,,262.5489,264.2477,1,0,1.1715,,0,109,109,149,1,pseudoword,0,REAL,FALSA
,,,,,,,,,5bbbdca68f3bd70001e713ef,001,2025-04-30_16h12.01.646,empathy_intonation_perc,2024.1.4,Win32,60.24096386,,,,,,,,,,,,,,135,panté,,,,,,264.248,265.8491,0,1,1.0725,,0,110,110,134,1,pseudoword,0,REAL,FALSA
,,,,,,,,,5bbbdca68f3bd70001e713ef,001,2025-04-30_16h12.01.646,empathy_intonation_perc,2024.1.4,Win32,60.24096386,,,,,,,,,,,,,,113,nasce,,,,,,265.8495,267.2137,0,1,0.8313,,0,111,111,112,1,pseudoword,0,REAL,FALSA
,,,,,,,,,5bbbdca68f3bd70001e713ef,001,2025-04-30_16h12.01.646,empathy_intonation_perc,2024.1.4,Win32,60.24096386,,,,,,,,,,,,,,54,tapón,,,,,,267.2143,269.0303,0,1,1.2822,,0,112,112,53,1,non_cognate,1,REAL,FALSA
,,,,,,,,,5bbbdca68f3bd70001e713ef,001,2025-04-30_16h12.01.646,empathy_intonation_perc,2024.1.4,Win32,60.24096386,,,,,,,,,,,,,,67,llamar,,,,,,269.0305,270.5637,1,0,0.9982,,0,113,113,66,1,non_cognate,1,REAL,FALSA
,,,,,,,,,5bbbdca68f3bd70001e713ef,001,2025-04-30_16h12.01.646,empathy_intonation_perc,2024.1.4,Win32,60.24096386,,,,,,,,,,,,,,120,mauja,,,,,,270.5642,272.1324,0,1,1.0406,,0,114,114,119,1,pseudoword,0,REAL,FALSA
,,,,,,,,,5bbbdca68f3bd70001e713ef,001,2025-04-30_16h12.01.646,empathy_intonation_perc,2024.1.4,Win32,60.24096386,,,,,,,,,,,,,,21,hotel,,,,,,272.1327,274.4304,0,1,1.7674,,0,115,115,20,1,three_way_cognate,1,REAL,FALSA
,,,,,,,,,5bbbdca68f3bd70001e713ef,001,2025-04-30_16h12.01.646,empathy_intonation_perc,2024.1.4,Win32,60.24096386,,,,,,,,,,,,,,108,jauda,,,,,,274.4306,275.8635,0,1,0.9039,,0,116,116,107,1,pseudoword,0,REAL,FALSA
,,,,,,,,,5bbbdca68f3bd70001e713ef,001,2025-04-30_16h12.01.646,empathy_intonation_perc,2024.1.4,Win32,60.24096386,,,,,,,,,,,,,,43,honor,,,,,,275.8639,277.1971,0,1,0.7984,,0,117,117,42,1,two_way_cognate,1,REAL,FALSA
,,,,,,,,,5bbbdca68f3bd70001e713ef,001,2025-04-30_16h12.01.646,empathy_intonation_perc,2024.1.4,Win32,60.24096386,,,,,,,,,,,,,,164,tecia,,,,,,277.1976,278.4806,1,0,0.7541,,0,118,118,163,1,pseudoword,0,REAL,FALSA
,,,,,,,,,5bbbdca68f3bd70001e713ef,001,2025-04-30_16h12.01.646,empathy_intonation_perc,2024.1.4,Win32,60.24096386,,,,,,,,,,,,,,30,fiscal,,,,,,278.4809,280.247,1,0,1.2313,,0,119,119,29,1,two_way_cognate,1,REAL,FALSA
,,,,,,,,,5bbbdca68f3bd70001e713ef,001,2025-04-30_16h12.01.646,empathy_intonation_perc,2024.1.4,Win32,60.24096386,,,,,,,,,,,,,,152,prave,,,,,,280.2474,283.1304,0,1,2.3492,,0,120,120,151,1,pseudoword,0,REAL,FALSA
,,,,,,,,,5bbbdca68f3bd70001e713ef,001,2025-04-30_16h12.01.646,empathy_intonation_perc,2024.1.4,Win32,60.24096386,,,,,,,,,,,,,,190,asumie,,,,,,283.1309,284.7139,0,1,1.0447,,0,121,121,189,1,pseudoword,0,REAL,FALSA
,,,,,,,,,5bbbdca68f3bd70001e713ef,001,2025-04-30_16h12.01.646,empathy_intonation_perc,2024.1.4,Win32,60.24096386,,,,,,,,,,,,,,3,disco,,,,,,284.7144,287.2661,0,1,2.0232,,0,122,122,2,1,three_way_cognate,1,REAL,FALSA
,,,,,,,,,5bbbdca68f3bd70001e713ef,001,2025-04-30_16h12.01.646,empathy_intonation_perc,2024.1.4,Win32,60.24096386,,,,,,,,,,,,,,158,babrá,,,,,,287.2664,288.8972,1,0,1.0983,,0,123,123,157,1,pseudoword,0,REAL,FALSA
,,,,,,,,,5bbbdca68f3bd70001e713ef,001,2025-04-30_16h12.01.646,empathy_intonation_perc,2024.1.4,Win32,60.24096386,,,,,,,,,,,,,,79,suelo,,,,,,288.8977,290.5306,1,0,1.0977,,0,124,124,78,1,non_cognate,1,REAL,FALSA
,,,,,,,,,5bbbdca68f3bd70001e713ef,001,2025-04-30_16h12.01.646,empathy_intonation_perc,2024.1.4,Win32,60.24096386,,,,,,,,,,,,,,132,nocó,,,,,,290.5311,292.6304,1,0,1.5698,,0,125,125,131,1,pseudoword,0,REAL,FALSA
,,,,,,,,,5bbbdca68f3bd70001e713ef,001,2025-04-30_16h12.01.646,empathy_intonation_perc,2024.1.4,Win32,60.24096386,,,,,,,,,,,,,,141,virios,,,,,,292.6307,294.2472,0,1,1.0811,,0,126,126,140,1,pseudoword,0,REAL,FALSA
,,,,,,,,,5bbbdca68f3bd70001e713ef,001,2025-04-30_16h12.01.646,empathy_intonation_perc,2024.1.4,Win32,60.24096386,,,,,,,,,,,,,,126,tobre,,,,,,294.2476,295.9472,1,0,1.1651,,0,127,127,125,1,pseudoword,0,REAL,FALSA
,,,,,,,,,5bbbdca68f3bd70001e713ef,001,2025-04-30_16h12.01.646,empathy_intonation_perc,2024.1.4,Win32,60.24096386,,,,,,,,,,,,,,55,maldad,,,,,,295.9475,297.7474,0,1,1.2633,,0,128,128,54,1,non_cognate,1,REAL,FALSA
,,,,,,,,,5bbbdca68f3bd70001e713ef,001,2025-04-30_16h12.01.646,empathy_intonation_perc,2024.1.4,Win32,60.24096386,,,,,,,,,,,,,,92,flecha,,,,,,297.7477,299.8638,0,1,1.583,,0,129,129,91,1,non_cognate,1,REAL,FALSA
,,,,,,,,,5bbbdca68f3bd70001e713ef,001,2025-04-30_16h12.01.646,empathy_intonation_perc,2024.1.4,Win32,60.24096386,,,,,,,,,,,,,,35,aurora,,,,,,299.8642,302.147,1,0,1.7488,,0,130,130,34,1,two_way_cognate,1,REAL,FALSA
,,,,,,,,,5bbbdca68f3bd70001e713ef,001,2025-04-30_16h12.01.646,empathy_intonation_perc,2024.1.4,Win32,60.24096386,,,,,,,,,,,,,,10,drama,,,,,,302.1475,304.0473,0,1,1.3643,,0,131,131,9,1,three_way_cognate,1,REAL,FALSA
,,,,,,,,,5bbbdca68f3bd70001e713ef,001,2025-04-30_16h12.01.646,empathy_intonation_perc,2024.1.4,Win32,60.24096386,,,,,,,,,,,,,,181,gravés,,,,,,304.0478,305.5307,1,0,0.9474,,0,132,132,180,1,pseudoword,0,REAL,FALSA
,,,,,,,,,5bbbdca68f3bd70001e713ef,001,2025-04-30_16h12.01.646,empathy_intonation_perc,2024.1.4,Win32,60.24096386,,,,,,,,,,,,,,144,diroco,,,,,,305.5315,308.0306,0,1,1.9658,,0,133,133,143,1,pseudoword,0,REAL,FALSA
,,,,,,,,,5bbbdca68f3bd70001e713ef,001,2025-04-30_16h12.01.646,empathy_intonation_perc,2024.1.4,Win32,60.24096386,,,,,,,,,,,,,,183,edioso,,,,,,308.0314,310.2803,1,0,1.7193,,0,134,134,182,1,pseudoword,0,REAL,FALSA
,,,,,,,,,5bbbdca68f3bd70001e713ef,001,2025-04-30_16h12.01.646,empathy_intonation_perc,2024.1.4,Win32,60.24096386,,,,,,,,,,,,,,68,puñal,,,,,,310.2808,311.8477,0,1,1.0404,,0,135,135,67,1,non_cognate,1,REAL,FALSA
,,,,,,,,,5bbbdca68f3bd70001e713ef,001,2025-04-30_16h12.01.646,empathy_intonation_perc,2024.1.4,Win32,60.24096386,,,,,,,,,,,,,,86,cuenco,,,,,,311.8481,313.5676,1,0,1.1907,,0,136,136,85,1,non_cognate,1,REAL,FALSA
,,,,,,,,,5bbbdca68f3bd70001e713ef,001,2025-04-30_16h12.01.646,empathy_intonation_perc,2024.1.4,Win32,60.24096386,,,,,,,,,,,,,,27,piano,,,,,,313.5681,315.251,0,1,1.1571,,0,137,137,26,1,two_way_cognate,1,REAL,FALSA
,,,,,,,,,5bbbdca68f3bd70001e713ef,001,2025-04-30_16h12.01.646,empathy_intonation_perc,2024.1.4,Win32,60.24096386,,,,,,,,,,,,,,122,boñaz,,,,,,315.2513,317.1802,0,1,1.3967,,0,138,138,121,1,pseudoword,0,REAL,FALSA
,,,,,,,,,5bbbdca68f3bd70001e713ef,001,2025-04-30_16h12.01.646,empathy_intonation_perc,2024.1.4,Win32,60.24096386,,,,,,,,,,,,,,173,mibro,,,,,,317.1803,318.5473,0,1,0.8489,,0,139,139,172,1,pseudoword,0,REAL,FALSA
,,,,,,,,,5bbbdca68f3bd70001e713ef,001,2025-04-30_16h12.01.646,empathy_intonation_perc,2024.1.4,Win32,60.24096386,,,,,,,,,,,,,,60,siglo,,,,,,318.548,320.6972,0,1,1.6151,,0,140,140,59,1,non_cognate,1,REAL,FALSA
,,,,,,,,,5bbbdca68f3bd70001e713ef,001,2025-04-30_16h12.01.646,empathy_intonation_perc,2024.1.4,Win32,60.24096386,,,,,,,,,,,,,,25,vigor,,,,,,320.6975,322.4802,0,1,1.2508,,0,141,141,24,1,two_way_cognate,1,REAL,FALSA
,,,,,,,,,5bbbdca68f3bd70001e713ef,001,2025-04-30_16h12.01.646,empathy_intonation_perc,2024.1.4,Win32,60.24096386,,,,,,,,,,,,,,48,pelvis,,,,,,322.4805,323.7804,0,1,0.7852,,0,142,142,47,1,two_way_cognate,1,REAL,FALSA
,,,,,,,,,5bbbdca68f3bd70001e713ef,001,2025-04-30_16h12.01.646,empathy_intonation_perc,2024.1.4,Win32,60.24096386,,,,,,,,,,,,,,166,anfia,,,,,,323.7806,326.0639,0,1,1.7505,,0,143,143,165,1,pseudoword,0,REAL,FALSA
,,,,,,,,,5bbbdca68f3bd70001e713ef,001,2025-04-30_16h12.01.646,empathy_intonation_perc,2024.1.4,Win32,60.24096386,,,,,,,,,,,,,,167,dobbo,,,,,,326.0645,327.4141,0,1,0.815,,0,144,144,166,1,pseudoword,0,REAL,FALSA
,,,,,,,,,5bbbdca68f3bd70001e713ef,001,2025-04-30_16h12.01.646,empathy_intonation_perc,2024.1.4,Win32,60.24096386,,,,,,,,,,,,,,72,rostro,,,,,,327.4149,329.1303,0,1,1.1805,,0,145,145,71,1,non_cognate,1,REAL,FALSA
,,,,,,,,,5bbbdca68f3bd70001e713ef,001,2025-04-30_16h12.01.646,empathy_intonation_perc,2024.1.4,Win32,60.24096386,,,,,,,,,,,,,,61,aduana,,,,,,329.1306,330.6641,1,0,0.9985,,0,146,146,60,1,non_cognate,1,REAL,FALSA
,,,,,,,,,5bbbdca68f3bd70001e713ef,001,2025-04-30_16h12.01.646,empathy_intonation_perc,2024.1.4,Win32,60.24096386,,,,,,,,,,,,,,98,martir,,,,,,330.6647,332.7473,0,1,1.5499,,0,147,147,97,1,pseudoword,0,REAL,FALSA
,,,,,,,,,5bbbdca68f3bd70001e713ef,001,2025-04-30_16h12.01.646,empathy_intonation_perc,2024.1.4,Win32,60.24096386,,,,,,,,,,,,,,62,pegar,,,,,,332.7475,334.3804,1,0,1.0943,,0,148,148,61,1,non_cognate,1,REAL,FALSA
,,,,,,,,,5bbbdca68f3bd70001e713ef,001,2025-04-30_16h12.01.646,empathy_intonation_perc,2024.1.4,Win32,60.24096386,,,,,,,,,,,,,,145,rúo,,,,,,334.3808,337.9641,1,0,3.0504,,0,149,149,144,1,pseudoword,0,REAL,FALSA
,,,,,,,,,5bbbdca68f3bd70001e713ef,001,2025-04-30_16h12.01.646,empathy_intonation_perc,2024.1.4,Win32,60.24096386,,,,,,,,,,,,,,114,dibrea,,,,,,337.9646,339.6141,0,1,1.1143,,0,150,150,113,1,pseudoword,0,REAL,FALSA
,,,,,,,,,5bbbdca68f3bd70001e713ef,001,2025-04-30_16h12.01.646,empathy_intonation_perc,2024.1.4,Win32,60.24096386,,,,,,,,,,,,,,140,chorde,,,,,,339.6147,341.4307,0,1,1.2828,,0,151,151,139,1,pseudoword,0,REAL,FALSA
,,,,,,,,,5bbbdca68f3bd70001e713ef,001,2025-04-30_16h12.01.646,empathy_intonation_perc,2024.1.4,Win32,60.24096386,,,,,,,,,,,,,,99,bugor,,,,,,341.4314,343.1305,0,1,1.1647,,0,152,152,98,1,pseudoword,0,REAL,FALSA
,,,,,,,,,5bbbdca68f3bd70001e713ef,001,2025-04-30_16h12.01.646,empathy_intonation_perc,2024.1.4,Win32,60.24096386,,,,,,,,,,,,,,82,brillo,,,,,,343.1309,344.6164,1,0,0.9571,,0,153,153,81,1,non_cognate,1,REAL,FALSA
,,,,,,,,,5bbbdca68f3bd70001e713ef,001,2025-04-30_16h12.01.646,empathy_intonation_perc,2024.1.4,Win32,60.24096386,,,,,,,,,,,,,,81,sacar,,,,,,344.6169,346.166,1,0,1.0232,,0,154,154,80,1,non_cognate,1,REAL,FALSA
,,,,,,,,,5bbbdca68f3bd70001e713ef,001,2025-04-30_16h12.01.646,empathy_intonation_perc,2024.1.4,Win32,60.24096386,,,,,,,,,,,,,,34,actor,,,,,,346.1664,347.7973,0,1,1.0973,,0,155,155,33,1,two_way_cognate,1,REAL,FALSA
,,,,,,,,,5bbbdca68f3bd70001e713ef,001,2025-04-30_16h12.01.646,empathy_intonation_perc,2024.1.4,Win32,60.24096386,,,,,,,,,,,,,,192,próces,,,,,,347.7978,350.264,0,1,1.9315,,0,156,156,191,1,pseudoword,0,REAL,FALSA
,,,,,,,,,5bbbdca68f3bd70001e713ef,001,2025-04-30_16h12.01.646,empathy_intonation_perc,2024.1.4,Win32,60.24096386,,,,,,,,,,,,,,139,sasos,,,,,,350.2646,352.0304,1,0,1.2317,,0,157,157,138,1,pseudoword,0,REAL,FALSA
,,,,,,,,,5bbbdca68f3bd70001e713ef,001,2025-04-30_16h12.01.646,empathy_intonation_perc,2024.1.4,Win32,60.24096386,,,,,,,,,,,,,,172,dogue,,,,,,352.0307,353.764,0,1,1.2026,,0,158,158,171,1,pseudoword,0,REAL,FALSA
,,,,,,,,,5bbbdca68f3bd70001e713ef,001,2025-04-30_16h12.01.646,empathy_intonation_perc,2024.1.4,Win32,60.24096386,,,,,,,,,,,,,,177,entodo,,,,,,353.7645,356.0665,0,1,1.7722,,0,159,159,176,1,pseudoword,0,REAL,FALSA
,,,,,,,,,5bbbdca68f3bd70001e713ef,001,2025-04-30_16h12.01.646,empathy_intonation_perc,2024.1.4,Win32,60.24096386,,,,,,,,,,,,,,179,suelet,,,,,,356.0669,357.7139,0,1,1.1151,,0,160,160,178,1,pseudoword,0,REAL,FALSA
,,,,,,,,,5bbbdca68f3bd70001e713ef,001,2025-04-30_16h12.01.646,empathy_intonation_perc,2024.1.4,Win32,60.24096386,,,,,,,,,,,,,,168,cobén,,,,,,357.7143,359.2138,0,1,0.9642,,0,161,161,167,1,pseudoword,0,REAL,FALSA
,,,,,,,,,5bbbdca68f3bd70001e713ef,001,2025-04-30_16h12.01.646,empathy_intonation_perc,2024.1.4,Win32,60.24096386,,,,,,,,,,,,,,182,desaro,,,,,,359.2143,360.6304,1,0,0.8833,,0,162,162,181,1,pseudoword,0,REAL,FALSA
,,,,,,,,,5bbbdca68f3bd70001e713ef,001,2025-04-30_16h12.01.646,empathy_intonation_perc,2024.1.4,Win32,60.24096386,,,,,,,,,,,,,,89,muñeca,,,,,,360.6306,362.3138,1,0,1.1532,,0,163,163,88,1,non_cognate,1,REAL,FALSA
,,,,,,,,,5bbbdca68f3bd70001e713ef,001,2025-04-30_16h12.01.646,empathy_intonation_perc,2024.1.4,Win32,60.24096386,,,,,,,,,,,,,,50,sierra,,,,,,362.3143,363.7303,1,0,0.8853,,0,164,164,49,1,non_cognate,1,REAL,FALSA
,,,,,,,,,5bbbdca68f3bd70001e713ef,001,2025-04-30_16h12.01.646,empathy_intonation_perc,2024.1.4,Win32,60.24096386,,,,,,,,,,,,,,106,diebro,,,,,,363.7306,366.0141,0,1,1.7646,,0,165,165,105,1,pseudoword,0,REAL,FALSA
,,,,,,,,,5bbbdca68f3bd70001e713ef,001,2025-04-30_16h12.01.646,empathy_intonation_perc,2024.1.4,Win32,60.24096386,,,,,,,,,,,,,,188,amplir,,,,,,366.0147,367.3805,1,0,0.8309,,0,166,166,187,1,pseudoword,0,REAL,FALSA
,,,,,,,,,5bbbdca68f3bd70001e713ef,001,2025-04-30_16h12.01.646,empathy_intonation_perc,2024.1.4,Win32,60.24096386,,,,,,,,,,,,,,130,dubo,,,,,,367.3809,368.7641,0,1,0.8467,,0,167,167,129,1,pseudoword,0,REAL,FALSA
,,,,,,,,,5bbbdca68f3bd70001e713ef,001,2025-04-30_16h12.01.646,empathy_intonation_perc,2024.1.4,Win32,60.24096386,,,,,,,,,,,,,,174,pabea,,,,,,368.7645,370.4638,0,1,1.1678,,0,168,168,173,1,pseudoword,0,REAL,FALSA
,,,,,,,,,5bbbdca68f3bd70001e713ef,001,2025-04-30_16h12.01.646,empathy_intonation_perc,2024.1.4,Win32,60.24096386,,,,,,,,,,,,,,97,nocita,,,,,,370.4642,374.1972,1,0,3.1994,,0,169,169,96,1,pseudoword,0,REAL,FALSA
,,,,,,,,,5bbbdca68f3bd70001e713ef,001,2025-04-30_16h12.01.646,empathy_intonation_perc,2024.1.4,Win32,60.24096386,,,,,,,,,,,,,,155,kugis,,,,,,374.1978,375.4806,0,1,0.7558,,0,170,170,154,1,pseudoword,0,REAL,FALSA
,,,,,,,,,5bbbdca68f3bd70001e713ef,001,2025-04-30_16h12.01.646,empathy_intonation_perc,2024.1.4,Win32,60.24096386,,,,,,,,,,,,,,4,flora,,,,,,375.481,377.2472,0,1,1.235,,0,171,171,3,1,three_way_cognate,1,REAL,FALSA
,,,,,,,,,5bbbdca68f3bd70001e713ef,001,2025-04-30_16h12.01.646,empathy_intonation_perc,2024.1.4,Win32,60.24096386,,,,,,,,,,,,,,49,teñir,,,,,,377.2475,378.6501,0,1,0.8763,,0,172,172,48,1,non_cognate,1,REAL,FALSA
,,,,,,,,,5bbbdca68f3bd70001e713ef,001,2025-04-30_16h12.01.646,empathy_intonation_perc,2024.1.4,Win32,60.24096386,,,,,,,,,,,,,,147,alla,,,,,,378.6505,380.3806,1,0,1.2041,,0,173,173,146,1,pseudoword,0,REAL,FALSA
,,,,,,,,,5bbbdca68f3bd70001e713ef,001,2025-04-30_16h12.01.646,empathy_intonation_perc,2024.1.4,Win32,60.24096386,,,,,,,,,,,,,,15,test,,,,,,380.381,381.6474,0,1,0.7478,,0,174,174,14,1,three_way_cognate,1,REAL,FALSA
,,,,,,,,,5bbbdca68f3bd70001e713ef,001,2025-04-30_16h12.01.646,empathy_intonation_perc,2024.1.4,Win32,60.24096386,,,,,,,,,,,,,,171,gotro,,,,,,381.6479,384.1139,0,1,1.9345,,0,175,175,170,1,pseudoword,0,REAL,FALSA
,,,,,,,,,5bbbdca68f3bd70001e713ef,001,2025-04-30_16h12.01.646,empathy_intonation_perc,2024.1.4,Win32,60.24096386,,,,,,,,,,,,,,112,samón,,,,,,384.1142,386.3672,1,0,1.7397,,0,176,176,111,1,pseudoword,0,REAL,FALSA
,,,,,,,,,5bbbdca68f3bd70001e713ef,001,2025-04-30_16h12.01.646,empathy_intonation_perc,2024.1.4,Win32,60.24096386,,,,,,,,,,,,,,52,blando,,,,,,386.3675,387.9815,1,0,1.0878,,0,177,177,51,1,non_cognate,1,REAL,FALSA
,,,,,,,,,5bbbdca68f3bd70001e713ef,001,2025-04-30_16h12.01.646,empathy_intonation_perc,2024.1.4,Win32,60.24096386,,,,,,,,,,,,,,160,fomeó,,,,,,387.9818,389.2641,1,0,0.7451,,0,178,178,159,1,pseudoword,0,REAL,FALSA
,,,,,,,,,5bbbdca68f3bd70001e713ef,001,2025-04-30_16h12.01.646,empathy_intonation_perc,2024.1.4,Win32,60.24096386,,,,,,,,,,,,,,88,percha,,,,,,389.2643,391.5976,0,1,1.804,,0,179,179,87,1,non_cognate,1,REAL,FALSA
,,,,,,,,,5bbbdca68f3bd70001e713ef,001,2025-04-30_16h12.01.646,empathy_intonation_perc,2024.1.4,Win32,60.24096386,,,,,,,,,,,,,,178,inichó,,,,,,391.5979,393.5974,1,0,1.4708,,0,180,180,177,1,pseudoword,0,REAL,FALSA
,,,,,,,,,5bbbdca68f3bd70001e713ef,001,2025-04-30_16h12.01.646,empathy_intonation_perc,2024.1.4,Win32,60.24096386,,,,,,,,,,,,,,191,frasis,,,,,,393.5978,395.3473,0,1,1.215,,0,181,181,190,1,pseudoword,0,REAL,FALSA
,,,,,,,,,5bbbdca68f3bd70001e713ef,001,2025-04-30_16h12.01.646,empathy_intonation_perc,2024.1.4,Win32,60.24096386,,,,,,,,,,,,,,102,coyo,,,,,,395.3475,396.8145,0,1,0.9521,,0,182,182,101,1,pseudoword,0,REAL,FALSA
,,,,,,,,,5bbbdca68f3bd70001e713ef,001,2025-04-30_16h12.01.646,empathy_intonation_perc,2024.1.4,Win32,60.24096386,,,,,,,,,,,,,,41,pasta,,,,,,396.8147,398.3142,0,1,0.9689,,0,183,183,40,1,two_way_cognate,1,REAL,FALSA
,,,,,,,,,5bbbdca68f3bd70001e713ef,001,2025-04-30_16h12.01.646,empathy_intonation_perc,2024.1.4,Win32,60.24096386,,,,,,,,,,,,,,103,vueras,,,,,,398.315,399.7307,1,0,0.8807,,0,184,184,102,1,pseudoword,0,REAL,FALSA
,,,,,,,,,5bbbdca68f3bd70001e713ef,001,2025-04-30_16h12.01.646,empathy_intonation_perc,2024.1.4,Win32,60.24096386,,,,,,,,,,,,,,118,bará,,,,,,399.7309,400.8975,1,0,0.6368,,0,185,185,117,1,pseudoword,0,REAL,FALSA
,,,,,,,,,5bbbdca68f3bd70001e713ef,001,2025-04-30_16h12.01.646,empathy_intonation_perc,2024.1.4,Win32,60.24096386,,,,,,,,,,,,,,154,harvé,,,,,,400.8978,402.4143,0,1,0.984,,0,186,186,153,1,pseudoword,0,REAL,FALSA
,,,,,,,,,5bbbdca68f3bd70001e713ef,001,2025-04-30_16h12.01.646,empathy_intonation_perc,2024.1.4,Win32,60.24096386,,,,,,,,,,,,,,149,emén,,,,,,402.4149,403.8473,0,1,0.9021,,0,187,187,148,1,pseudoword,0,REAL,FALSA
,,,,,,,,,5bbbdca68f3bd70001e713ef,001,2025-04-30_16h12.01.646,empathy_intonation_perc,2024.1.4,Win32,60.24096386,,,,,,,,,,,,,,69,tiza,,,,,,403.8477,405.8642,0,1,1.5029,,0,188,188,68,1,non_cognate,1,REAL,FALSA
,,,,,,,,,5bbbdca68f3bd70001e713ef,001,2025-04-30_16h12.01.646,empathy_intonation_perc,2024.1.4,Win32,60.24096386,,,,,,,,,,,,,,65,guerra,,,,,,405.8649,408.0639,1,0,1.6682,,0,189,189,64,1,non_cognate,1,REAL,FALSA
,,,,,,,,,5bbbdca68f3bd70001e713ef,001,2025-04-30_16h12.01.646,empathy_intonation_perc,2024.1.4,Win32,60.24096386,,,,,,,,,,,,,,128,pelí,,,,,,408.0641,410.5475,1,0,1.9647,,0,190,190,127,1,pseudoword,0,REAL,FALSA
,,,,,,,,,5bbbdca68f3bd70001e713ef,001,2025-04-30_16h12.01.646,empathy_intonation_perc,2024.1.4,Win32,60.24096386,,,,,,,,,,,,,,2,tumor,,,,,,410.5479,411.8309,0,1,0.7534,,0,191,191,1,1,three_way_cognate,1,REAL,FALSA
