lextale_instructions.started,lextale_instructions.stopped,lextale_instructions_loop.thisRepN,lextale_instructions_loop.thisTrialN,lextale_instructions_loop.thisN,lextale_instructions_loop.thisIndex,lextale_instructions_loop.ran,instructions_text,continue_text,participant,session,date,expName,psychopyVersion,OS,frameRate,lextale_practice.started,lextale_practice.stopped,key_resp_lextale_practice.keys,key_resp_lextale_practice.corr,key_resp_lextale_practice.rt,key_resp_lextale_practice.duration,lextale_practice_feedback.started,lextale_practice_feedback.stopped,lextale_practice_trials.thisRepN,lextale_practice_trials.thisTrialN,lextale_practice_trials.thisN,lextale_practice_trials.thisIndex,lextale_practice_trials.ran,stim,word,correct_response,prac_button_real,prac_button_false,lextale_check.started,lextale_check.stopped,lextale_trial.started,lextale_trial.stopped,key_resp_lextale_trial.keys,key_resp_lextale_trial.corr,key_resp_lextale_trial.rt,key_resp_lextale_trial.duration,lextail_trials.thisRepN,lextail_trials.thisTrialN,lextail_trials.thisN,lextail_trials.thisIndex,lextail_trials.ran,type,correct_reponse,button_real,button_false
0.0032,14.8321,0,0,0,0,1,"Este es un test de vocabulario en español. 
  
  A continuación vas a ver 90 secuencias de letras que parecen 'españolas'.
  
  Solo algunas de ellas son palabras de verdad.",(presiona la barra espaciadora para continuar),5c1ec17d30f7d70001c1369c,001,2025-05-02_16h54.37.976,empathy_intonation_perc,2024.1.4,Win32,60.60606061,,,,,,,,,,,,,,,,,,,,,,,,,,,,,,,,,,,
14.8325,22.9418,0,1,1,1,1,"Por favor, señala las palabras que tú conoces (aquellas que estás convencido que son palabras españolas, incluso aunque no seas capaz de dar el significado preciso).",(presiona la barra espaciadora para continuar),5c1ec17d30f7d70001c1369c,001,2025-05-02_16h54.37.976,empathy_intonation_perc,2024.1.4,Win32,60.60606061,,,,,,,,,,,,,,,,,,,,,,,,,,,,,,,,,,,
22.9422,32.1677,0,2,2,2,1,Pero cuidado: los errores se penalizan. Por eso no tiene sentido tratar de incrementar tu puntuación marcando como reales palabras que nunca has visto.,(presiona la barra espaciadora para continuar),5c1ec17d30f7d70001c1369c,001,2025-05-02_16h54.37.976,empathy_intonation_perc,2024.1.4,Win32,60.60606061,,,,,,,,,,,,,,,,,,,,,,,,,,,,,,,,,,,
32.168,39.9116,0,3,3,3,1,"Presiona la tecla 1 si piensas que es una palabra real y la tecla 
  0 si piensas que es una palabra falsa. 
  
  Vamos a practicar un poco...",(presiona la barra espaciadora para continuar),5c1ec17d30f7d70001c1369c,001,2025-05-02_16h54.37.976,empathy_intonation_perc,2024.1.4,Win32,60.60606061,,,,,,,,,,,,,,,,,,,,,,,,,,,,,,,,,,,
,,,,,,,,,5c1ec17d30f7d70001c1369c,001,2025-05-02_16h54.37.976,empathy_intonation_perc,2024.1.4,Win32,60.60606061,39.9134,47.7559,1,0,7.3125,,47.7561,48.7546,0,0,0,0,1,0,depiste,0,REAL,FALSA,,,,,,,,,,,,,,,,,
,,,,,,,,,5c1ec17d30f7d70001c1369c,001,2025-05-02_16h54.37.976,empathy_intonation_perc,2024.1.4,Win32,60.60606061,48.7548,52.6023,1,1,3.3163,,52.6024,53.6005,0,1,1,1,1,0,sí,1,REAL,FALSA,,,,,,,,,,,,,,,,,
,,,,,,,,,5c1ec17d30f7d70001c1369c,001,2025-05-02_16h54.37.976,empathy_intonation_perc,2024.1.4,Win32,60.60606061,53.6008,59.2631,1,0,5.1234,,59.2632,60.2623,0,2,2,2,1,0,coné,0,REAL,FALSA,,,,,,,,,,,,,,,,,
,,,,,,,,,5c1ec17d30f7d70001c1369c,001,2025-05-02_16h54.37.976,empathy_intonation_perc,2024.1.4,Win32,60.60606061,60.2627,66.507,0,1,5.7181,,66.5071,67.5064,0,3,3,3,1,0,calpar,0,REAL,FALSA,,,,,,,,,,,,,,,,,
,,,,,,,,,5c1ec17d30f7d70001c1369c,001,2025-05-02_16h54.37.976,empathy_intonation_perc,2024.1.4,Win32,60.60606061,67.5067,72.2526,1,0,4.2145,,72.2526,73.252,0,4,4,4,1,0,joten,0,REAL,FALSA,,,,,,,,,,,,,,,,,
,,,,,,,,,5c1ec17d30f7d70001c1369c,001,2025-05-02_16h54.37.976,empathy_intonation_perc,2024.1.4,Win32,60.60606061,73.2524,79.4974,1,1,5.7091,,79.4975,80.4957,0,5,5,5,1,0,sacapuntas,1,REAL,FALSA,,,,,,,,,,,,,,,,,
,,,,,,,,,5c1ec17d30f7d70001c1369c,001,2025-05-02_16h54.37.976,empathy_intonation_perc,2024.1.4,Win32,60.60606061,80.496,84.8424,1,0,3.823,,84.8425,85.8419,0,6,6,6,1,0,priba,0,REAL,FALSA,,,,,,,,,,,,,,,,,
,,,,,,,,,5c1ec17d30f7d70001c1369c,001,2025-05-02_16h54.37.976,empathy_intonation_perc,2024.1.4,Win32,60.60606061,85.8424,91.7874,0,1,5.4149,,91.7875,92.7865,0,7,7,7,1,0,pelasula,0,REAL,FALSA,,,,,,,,,,,,,,,,,
,,,,,,,,,5c1ec17d30f7d70001c1369c,001,2025-05-02_16h54.37.976,empathy_intonation_perc,2024.1.4,Win32,60.60606061,92.7868,95.2845,1,1,1.9655,,95.2846,96.2838,0,8,8,8,1,0,bien,1,REAL,FALSA,,,,,,,,,,,,,,,,,
,,,,,,,,,5c1ec17d30f7d70001c1369c,001,2025-05-02_16h54.37.976,empathy_intonation_perc,2024.1.4,Win32,60.60606061,96.2841,98.2822,1,1,1.47,,98.2823,99.2814,0,9,9,9,1,0,casa,1,REAL,FALSA,,,,,,,,,,,,,,,,,
,,,,,,,,,5c1ec17d30f7d70001c1369c,001,2025-05-02_16h54.37.976,empathy_intonation_perc,2024.1.4,Win32,60.60606061,99.2818,103.7945,1,0,3.9785,,103.7947,104.7939,0,10,10,10,1,0,lejo,0,REAL,FALSA,,,,,,,,,,,,,,,,,
,,,,,,,,,5c1ec17d30f7d70001c1369c,001,2025-05-02_16h54.37.976,empathy_intonation_perc,2024.1.4,Win32,60.60606061,104.7943,109.9563,1,0,4.6254,,109.9564,110.9553,0,11,11,11,1,0,pretantas,0,REAL,FALSA,,,,,,,,,,,,,,,,,
,,,,,,,,,5c1ec17d30f7d70001c1369c,001,2025-05-02_16h54.37.976,empathy_intonation_perc,2024.1.4,Win32,60.60606061,,,,,,,,,,,,,,,,,,,110.9556,162.6145,,,,,,,,,,,,,,,
,,,,,,,,,5c1ec17d30f7d70001c1369c,001,2025-05-02_16h54.37.976,empathy_intonation_perc,2024.1.4,Win32,60.60606061,,,,,,,,,,,,,,28,ardor,,,,,,162.6215,168.9429,1,0,5.7968,,0,0,0,27,1,two_way_cognate,1,REAL,FALSA
,,,,,,,,,5c1ec17d30f7d70001c1369c,001,2025-05-02_16h54.37.976,empathy_intonation_perc,2024.1.4,Win32,60.60606061,,,,,,,,,,,,,,126,tobre,,,,,,168.9433,174.5717,0,1,5.0942,,0,1,1,125,1,pseudoword,0,REAL,FALSA
,,,,,,,,,5c1ec17d30f7d70001c1369c,001,2025-05-02_16h54.37.976,empathy_intonation_perc,2024.1.4,Win32,60.60606061,,,,,,,,,,,,,,11,golf,,,,,,174.5721,181.3832,1,0,6.2831,,0,2,2,10,1,three_way_cognate,1,REAL,FALSA
,,,,,,,,,5c1ec17d30f7d70001c1369c,001,2025-05-02_16h54.37.976,empathy_intonation_perc,2024.1.4,Win32,60.60606061,,,,,,,,,,,,,,14,aura,,,,,,181.3835,185.6459,1,0,3.7379,,0,3,3,13,1,three_way_cognate,1,REAL,FALSA
,,,,,,,,,5c1ec17d30f7d70001c1369c,001,2025-05-02_16h54.37.976,empathy_intonation_perc,2024.1.4,Win32,60.60606061,,,,,,,,,,,,,,130,dubo,,,,,,185.646,191.5415,0,1,5.3642,,0,4,4,129,1,pseudoword,0,REAL,FALSA
,,,,,,,,,5c1ec17d30f7d70001c1369c,001,2025-05-02_16h54.37.976,empathy_intonation_perc,2024.1.4,Win32,60.60606061,,,,,,,,,,,,,,37,torso,,,,,,191.542,196.4209,1,0,4.3478,,0,5,5,36,1,two_way_cognate,1,REAL,FALSA
,,,,,,,,,5c1ec17d30f7d70001c1369c,001,2025-05-02_16h54.37.976,empathy_intonation_perc,2024.1.4,Win32,60.60606061,,,,,,,,,,,,,,93,tapa,,,,,,196.4213,200.4841,1,0,3.5371,,0,6,6,92,1,non_cognate,1,REAL,FALSA
,,,,,,,,,5c1ec17d30f7d70001c1369c,001,2025-05-02_16h54.37.976,empathy_intonation_perc,2024.1.4,Win32,60.60606061,,,,,,,,,,,,,,45,total,,,,,,200.4845,202.8154,1,0,1.7936,,0,7,7,44,1,two_way_cognate,1,REAL,FALSA
,,,,,,,,,5c1ec17d30f7d70001c1369c,001,2025-05-02_16h54.37.976,empathy_intonation_perc,2024.1.4,Win32,60.60606061,,,,,,,,,,,,,,41,pasta,,,,,,202.8156,209.5101,1,0,6.1869,,0,8,8,40,1,two_way_cognate,1,REAL,FALSA
,,,,,,,,,5c1ec17d30f7d70001c1369c,001,2025-05-02_16h54.37.976,empathy_intonation_perc,2024.1.4,Win32,60.60606061,,,,,,,,,,,,,,72,rostro,,,,,,209.5103,214.9892,1,0,4.9486,,0,9,9,71,1,non_cognate,1,REAL,FALSA
,,,,,,,,,5c1ec17d30f7d70001c1369c,001,2025-05-02_16h54.37.976,empathy_intonation_perc,2024.1.4,Win32,60.60606061,,,,,,,,,,,,,,31,civil,,,,,,214.9894,218.2038,1,0,2.6865,,0,10,10,30,1,two_way_cognate,1,REAL,FALSA
,,,,,,,,,5c1ec17d30f7d70001c1369c,001,2025-05-02_16h54.37.976,empathy_intonation_perc,2024.1.4,Win32,60.60606061,,,,,,,,,,,,,,46,mortal,,,,,,218.2043,225.3312,1,0,6.5909,,0,11,11,45,1,two_way_cognate,1,REAL,FALSA
,,,,,,,,,5c1ec17d30f7d70001c1369c,001,2025-05-02_16h54.37.976,empathy_intonation_perc,2024.1.4,Win32,60.60606061,,,,,,,,,,,,,,90,venado,,,,,,225.3316,230.161,1,0,4.2916,,0,12,12,89,1,non_cognate,1,REAL,FALSA
,,,,,,,,,5c1ec17d30f7d70001c1369c,001,2025-05-02_16h54.37.976,empathy_intonation_perc,2024.1.4,Win32,60.60606061,,,,,,,,,,,,,,181,gravés,,,,,,230.1613,235.6565,1,0,4.9613,,0,13,13,180,1,pseudoword,0,REAL,FALSA
,,,,,,,,,5c1ec17d30f7d70001c1369c,001,2025-05-02_16h54.37.976,empathy_intonation_perc,2024.1.4,Win32,60.60606061,,,,,,,,,,,,,,21,hotel,,,,,,235.6568,238.8038,1,0,2.6168,,0,14,14,20,1,three_way_cognate,1,REAL,FALSA
,,,,,,,,,5c1ec17d30f7d70001c1369c,001,2025-05-02_16h54.37.976,empathy_intonation_perc,2024.1.4,Win32,60.60606061,,,,,,,,,,,,,,69,tiza,,,,,,238.8041,243.2499,1,0,3.9235,,0,15,15,68,1,non_cognate,1,REAL,FALSA
,,,,,,,,,5c1ec17d30f7d70001c1369c,001,2025-05-02_16h54.37.976,empathy_intonation_perc,2024.1.4,Win32,60.60606061,,,,,,,,,,,,,,56,pico,,,,,,243.2501,255.2243,1,0,11.4438,,0,16,16,55,1,non_cognate,1,REAL,FALSA
,,,,,,,,,5c1ec17d30f7d70001c1369c,001,2025-05-02_16h54.37.976,empathy_intonation_perc,2024.1.4,Win32,60.60606061,,,,,,,,,,,,,,73,llevar,,,,,,255.2248,262.768,1,0,7.0091,,0,17,17,72,1,non_cognate,1,REAL,FALSA
,,,,,,,,,5c1ec17d30f7d70001c1369c,001,2025-05-02_16h54.37.976,empathy_intonation_perc,2024.1.4,Win32,60.60606061,,,,,,,,,,,,,,55,maldad,,,,,,262.7683,264.4168,1,0,1.1114,,0,18,18,54,1,non_cognate,1,REAL,FALSA
,,,,,,,,,5c1ec17d30f7d70001c1369c,001,2025-05-02_16h54.37.976,empathy_intonation_perc,2024.1.4,Win32,60.60606061,,,,,,,,,,,,,,49,teñir,,,,,,264.4172,265.9824,1,0,1.0298,,0,19,19,48,1,non_cognate,1,REAL,FALSA
,,,,,,,,,5c1ec17d30f7d70001c1369c,001,2025-05-02_16h54.37.976,empathy_intonation_perc,2024.1.4,Win32,60.60606061,,,,,,,,,,,,,,148,gino,,,,,,265.9827,267.3975,0,1,0.8822,,0,20,20,147,1,pseudoword,0,REAL,FALSA
,,,,,,,,,5c1ec17d30f7d70001c1369c,001,2025-05-02_16h54.37.976,empathy_intonation_perc,2024.1.4,Win32,60.60606061,,,,,,,,,,,,,,85,enorme,,,,,,267.3978,268.7635,1,0,0.8306,,0,21,21,84,1,non_cognate,1,REAL,FALSA
,,,,,,,,,5c1ec17d30f7d70001c1369c,001,2025-05-02_16h54.37.976,empathy_intonation_perc,2024.1.4,Win32,60.60606061,,,,,,,,,,,,,,57,regalo,,,,,,268.7639,270.3957,1,0,1.1018,,0,22,22,56,1,non_cognate,1,REAL,FALSA
,,,,,,,,,5c1ec17d30f7d70001c1369c,001,2025-05-02_16h54.37.976,empathy_intonation_perc,2024.1.4,Win32,60.60606061,,,,,,,,,,,,,,147,alla,,,,,,270.396,273.0768,0,1,2.1515,,0,23,23,146,1,pseudoword,0,REAL,FALSA
,,,,,,,,,5c1ec17d30f7d70001c1369c,001,2025-05-02_16h54.37.976,empathy_intonation_perc,2024.1.4,Win32,60.60606061,,,,,,,,,,,,,,192,próces,,,,,,273.0773,274.3587,1,0,0.7466,,0,24,24,191,1,pseudoword,0,REAL,FALSA
,,,,,,,,,5c1ec17d30f7d70001c1369c,001,2025-05-02_16h54.37.976,empathy_intonation_perc,2024.1.4,Win32,60.60606061,,,,,,,,,,,,,,189,medium,,,,,,274.359,275.6248,1,0,0.729,,0,25,25,188,1,pseudoword,0,REAL,FALSA
,,,,,,,,,5c1ec17d30f7d70001c1369c,001,2025-05-02_16h54.37.976,empathy_intonation_perc,2024.1.4,Win32,60.60606061,,,,,,,,,,,,,,180,pupica,,,,,,275.6253,277.0236,0,1,0.8728,,0,26,26,179,1,pseudoword,0,REAL,FALSA
,,,,,,,,,5c1ec17d30f7d70001c1369c,001,2025-05-02_16h54.37.976,empathy_intonation_perc,2024.1.4,Win32,60.60606061,,,,,,,,,,,,,,182,desaro,,,,,,277.0239,278.0558,1,0,0.496,,0,27,27,181,1,pseudoword,0,REAL,FALSA
,,,,,,,,,5c1ec17d30f7d70001c1369c,001,2025-05-02_16h54.37.976,empathy_intonation_perc,2024.1.4,Win32,60.60606061,,,,,,,,,,,,,,108,jauda,,,,,,278.0562,279.1221,0,1,0.534,,0,28,28,107,1,pseudoword,0,REAL,FALSA
,,,,,,,,,5c1ec17d30f7d70001c1369c,001,2025-05-02_16h54.37.976,empathy_intonation_perc,2024.1.4,Win32,60.60606061,,,,,,,,,,,,,,190,asumie,,,,,,279.1224,281.2869,0,1,1.6357,,0,29,29,189,1,pseudoword,0,REAL,FALSA
,,,,,,,,,5c1ec17d30f7d70001c1369c,001,2025-05-02_16h54.37.976,empathy_intonation_perc,2024.1.4,Win32,60.60606061,,,,,,,,,,,,,,3,disco,,,,,,281.2874,282.1862,1,0,0.3672,,0,30,30,2,1,three_way_cognate,1,REAL,FALSA
,,,,,,,,,5c1ec17d30f7d70001c1369c,001,2025-05-02_16h54.37.976,empathy_intonation_perc,2024.1.4,Win32,60.60606061,,,,,,,,,,,,,,161,civas,,,,,,282.1866,283.0187,1,0,0.2999,,0,31,31,160,1,pseudoword,0,REAL,FALSA
,,,,,,,,,5c1ec17d30f7d70001c1369c,001,2025-05-02_16h54.37.976,empathy_intonation_perc,2024.1.4,Win32,60.60606061,,,,,,,,,,,,,,17,clan,,,,,,283.0189,284.4013,1,0,0.8469,,0,32,32,16,1,three_way_cognate,1,REAL,FALSA
,,,,,,,,,5c1ec17d30f7d70001c1369c,001,2025-05-02_16h54.37.976,empathy_intonation_perc,2024.1.4,Win32,60.60606061,,,,,,,,,,,,,,123,arane,,,,,,284.4016,285.983,0,1,1.0531,,0,33,33,122,1,pseudoword,0,REAL,FALSA
,,,,,,,,,5c1ec17d30f7d70001c1369c,001,2025-05-02_16h54.37.976,empathy_intonation_perc,2024.1.4,Win32,60.60606061,,,,,,,,,,,,,,163,llzan,,,,,,285.9834,286.732,1,0,0.2257,,0,34,34,162,1,pseudoword,0,REAL,FALSA
,,,,,,,,,5c1ec17d30f7d70001c1369c,001,2025-05-02_16h54.37.976,empathy_intonation_perc,2024.1.4,Win32,60.60606061,,,,,,,,,,,,,,36,viable,,,,,,286.7324,288.3309,1,0,1.0757,,0,35,35,35,1,two_way_cognate,1,REAL,FALSA
,,,,,,,,,5c1ec17d30f7d70001c1369c,001,2025-05-02_16h54.37.976,empathy_intonation_perc,2024.1.4,Win32,60.60606061,,,,,,,,,,,,,,81,sacar,,,,,,288.3311,289.3472,1,0,0.486,,0,36,36,80,1,non_cognate,1,REAL,FALSA
,,,,,,,,,5c1ec17d30f7d70001c1369c,001,2025-05-02_16h54.37.976,empathy_intonation_perc,2024.1.4,Win32,60.60606061,,,,,,,,,,,,,,95,listo,,,,,,289.3475,290.2792,0,1,0.4081,,0,37,37,94,1,non_cognate,1,REAL,FALSA
,,,,,,,,,5c1ec17d30f7d70001c1369c,001,2025-05-02_16h54.37.976,empathy_intonation_perc,2024.1.4,Win32,60.60606061,,,,,,,,,,,,,,174,pabea,,,,,,290.2794,290.9459,1,0,0.1399,,0,38,38,173,1,pseudoword,0,REAL,FALSA
,,,,,,,,,5c1ec17d30f7d70001c1369c,001,2025-05-02_16h54.37.976,empathy_intonation_perc,2024.1.4,Win32,60.60606061,,,,,,,,,,,,,,167,dobbo,,,,,,290.9463,291.8284,1,0,0.3573,,0,39,39,166,1,pseudoword,0,REAL,FALSA
,,,,,,,,,5c1ec17d30f7d70001c1369c,001,2025-05-02_16h54.37.976,empathy_intonation_perc,2024.1.4,Win32,60.60606061,,,,,,,,,,,,,,5,extra,,,,,,291.8285,293.4767,1,0,1.1273,,0,40,40,4,1,three_way_cognate,1,REAL,FALSA
,,,,,,,,,5c1ec17d30f7d70001c1369c,001,2025-05-02_16h54.37.976,empathy_intonation_perc,2024.1.4,Win32,60.60606061,,,,,,,,,,,,,,112,samón,,,,,,293.4769,295.0093,1,0,1.0149,,0,41,41,111,1,pseudoword,0,REAL,FALSA
,,,,,,,,,5c1ec17d30f7d70001c1369c,001,2025-05-02_16h54.37.976,empathy_intonation_perc,2024.1.4,Win32,60.60606061,,,,,,,,,,,,,,175,tradía,,,,,,295.0096,296.2581,1,0,0.7156,,0,42,42,174,1,pseudoword,0,REAL,FALSA
,,,,,,,,,5c1ec17d30f7d70001c1369c,001,2025-05-02_16h54.37.976,empathy_intonation_perc,2024.1.4,Win32,60.60606061,,,,,,,,,,,,,,156,ozoso,,,,,,296.2585,297.6401,0,1,0.86,,0,43,43,155,1,pseudoword,0,REAL,FALSA
,,,,,,,,,5c1ec17d30f7d70001c1369c,001,2025-05-02_16h54.37.976,empathy_intonation_perc,2024.1.4,Win32,60.60606061,,,,,,,,,,,,,,104,estulo,,,,,,297.6403,299.2889,0,1,1.1225,,0,44,44,103,1,pseudoword,0,REAL,FALSA
,,,,,,,,,5c1ec17d30f7d70001c1369c,001,2025-05-02_16h54.37.976,empathy_intonation_perc,2024.1.4,Win32,60.60606061,,,,,,,,,,,,,,82,brillo,,,,,,299.2891,300.1386,1,0,0.3221,,0,45,45,81,1,non_cognate,1,REAL,FALSA
,,,,,,,,,5c1ec17d30f7d70001c1369c,001,2025-05-02_16h54.37.976,empathy_intonation_perc,2024.1.4,Win32,60.60606061,,,,,,,,,,,,,,136,hueas,,,,,,300.1389,301.8703,1,0,1.1958,,0,46,46,135,1,pseudoword,0,REAL,FALSA
,,,,,,,,,5c1ec17d30f7d70001c1369c,001,2025-05-02_16h54.37.976,empathy_intonation_perc,2024.1.4,Win32,60.60606061,,,,,,,,,,,,,,30,fiscal,,,,,,301.8707,303.2356,1,0,0.8396,,0,47,47,29,1,two_way_cognate,1,REAL,FALSA
,,,,,,,,,5c1ec17d30f7d70001c1369c,001,2025-05-02_16h54.37.976,empathy_intonation_perc,2024.1.4,Win32,60.60606061,,,,,,,,,,,,,,51,listo,,,,,,303.2358,304.5347,1,0,0.7812,,0,48,48,50,1,non_cognate,1,REAL,FALSA
,,,,,,,,,5c1ec17d30f7d70001c1369c,001,2025-05-02_16h54.37.976,empathy_intonation_perc,2024.1.4,Win32,60.60606061,,,,,,,,,,,,,,24,retina,,,,,,304.535,305.6341,1,0,0.5701,,0,49,49,23,1,three_way_cognate,1,REAL,FALSA
,,,,,,,,,5c1ec17d30f7d70001c1369c,001,2025-05-02_16h54.37.976,empathy_intonation_perc,2024.1.4,Win32,60.60606061,,,,,,,,,,,,,,62,pegar,,,,,,305.6343,306.9497,1,0,0.7905,,0,50,50,61,1,non_cognate,1,REAL,FALSA
,,,,,,,,,5c1ec17d30f7d70001c1369c,001,2025-05-02_16h54.37.976,empathy_intonation_perc,2024.1.4,Win32,60.60606061,,,,,,,,,,,,,,120,mauja,,,,,,306.9499,308.2658,1,0,0.7791,,0,51,51,119,1,pseudoword,0,REAL,FALSA
,,,,,,,,,5c1ec17d30f7d70001c1369c,001,2025-05-02_16h54.37.976,empathy_intonation_perc,2024.1.4,Win32,60.60606061,,,,,,,,,,,,,,171,gotro,,,,,,308.2662,309.781,0,1,0.9939,,0,52,52,170,1,pseudoword,0,REAL,FALSA
,,,,,,,,,5c1ec17d30f7d70001c1369c,001,2025-05-02_16h54.37.976,empathy_intonation_perc,2024.1.4,Win32,60.60606061,,,,,,,,,,,,,,78,rendir,,,,,,309.7813,311.2129,1,0,0.8983,,0,53,53,77,1,non_cognate,1,REAL,FALSA
,,,,,,,,,5c1ec17d30f7d70001c1369c,001,2025-05-02_16h54.37.976,empathy_intonation_perc,2024.1.4,Win32,60.60606061,,,,,,,,,,,,,,132,nocó,,,,,,311.2132,312.3455,1,0,0.6024,,0,54,54,131,1,pseudoword,0,REAL,FALSA
,,,,,,,,,5c1ec17d30f7d70001c1369c,001,2025-05-02_16h54.37.976,empathy_intonation_perc,2024.1.4,Win32,60.60606061,,,,,,,,,,,,,,68,puñal,,,,,,312.346,313.3445,1,0,0.4656,,0,55,55,67,1,non_cognate,1,REAL,FALSA
,,,,,,,,,5c1ec17d30f7d70001c1369c,001,2025-05-02_16h54.37.976,empathy_intonation_perc,2024.1.4,Win32,60.60606061,,,,,,,,,,,,,,105,peniz,,,,,,313.3449,317.0586,1,0,3.1844,,0,56,56,104,1,pseudoword,0,REAL,FALSA
,,,,,,,,,5c1ec17d30f7d70001c1369c,001,2025-05-02_16h54.37.976,empathy_intonation_perc,2024.1.4,Win32,60.60606061,,,,,,,,,,,,,,8,kilo,,,,,,317.0588,318.3239,1,0,0.7305,,0,57,57,7,1,three_way_cognate,1,REAL,FALSA
,,,,,,,,,5c1ec17d30f7d70001c1369c,001,2025-05-02_16h54.37.976,empathy_intonation_perc,2024.1.4,Win32,60.60606061,,,,,,,,,,,,,,185,aljizo,,,,,,318.3243,320.2388,0,1,1.3927,,0,58,58,184,1,pseudoword,0,REAL,FALSA
,,,,,,,,,5c1ec17d30f7d70001c1369c,001,2025-05-02_16h54.37.976,empathy_intonation_perc,2024.1.4,Win32,60.60606061,,,,,,,,,,,,,,80,cuenco,,,,,,320.2391,321.5045,1,0,0.7277,,0,59,59,79,1,non_cognate,1,REAL,FALSA
,,,,,,,,,5c1ec17d30f7d70001c1369c,001,2025-05-02_16h54.37.976,empathy_intonation_perc,2024.1.4,Win32,60.60606061,,,,,,,,,,,,,,134,molor,,,,,,321.5046,323.836,0,1,1.7965,,0,60,60,133,1,pseudoword,0,REAL,FALSA
,,,,,,,,,5c1ec17d30f7d70001c1369c,001,2025-05-02_16h54.37.976,empathy_intonation_perc,2024.1.4,Win32,60.60606061,,,,,,,,,,,,,,26,enigma,,,,,,323.8363,327.6002,1,0,3.2254,,0,61,61,25,1,two_way_cognate,1,REAL,FALSA
,,,,,,,,,5c1ec17d30f7d70001c1369c,001,2025-05-02_16h54.37.976,empathy_intonation_perc,2024.1.4,Win32,60.60606061,,,,,,,,,,,,,,99,bugor,,,,,,327.6006,332.7125,1,0,4.5856,,0,62,62,98,1,pseudoword,0,REAL,FALSA
,,,,,,,,,5c1ec17d30f7d70001c1369c,001,2025-05-02_16h54.37.976,empathy_intonation_perc,2024.1.4,Win32,60.60606061,,,,,,,,,,,,,,117,morrá,,,,,,332.7129,333.9283,0,1,0.6795,,0,63,63,116,1,pseudoword,0,REAL,FALSA
,,,,,,,,,5c1ec17d30f7d70001c1369c,001,2025-05-02_16h54.37.976,empathy_intonation_perc,2024.1.4,Win32,60.60606061,,,,,,,,,,,,,,116,grigir,,,,,,333.9285,334.8443,1,0,0.3854,,0,64,64,115,1,pseudoword,0,REAL,FALSA
,,,,,,,,,5c1ec17d30f7d70001c1369c,001,2025-05-02_16h54.37.976,empathy_intonation_perc,2024.1.4,Win32,60.60606061,,,,,,,,,,,,,,173,mibro,,,,,,334.8447,335.8269,1,0,0.4495,,0,65,65,172,1,pseudoword,0,REAL,FALSA
,,,,,,,,,5c1ec17d30f7d70001c1369c,001,2025-05-02_16h54.37.976,empathy_intonation_perc,2024.1.4,Win32,60.60606061,,,,,,,,,,,,,,115,lidena,,,,,,335.8272,337.4589,1,0,1.1019,,0,66,66,114,1,pseudoword,0,REAL,FALSA
,,,,,,,,,5c1ec17d30f7d70001c1369c,001,2025-05-02_16h54.37.976,empathy_intonation_perc,2024.1.4,Win32,60.60606061,,,,,,,,,,,,,,141,virios,,,,,,337.4593,338.5077,0,1,0.5133,,0,67,67,140,1,pseudoword,0,REAL,FALSA
,,,,,,,,,5c1ec17d30f7d70001c1369c,001,2025-05-02_16h54.37.976,empathy_intonation_perc,2024.1.4,Win32,60.60606061,,,,,,,,,,,,,,71,torta,,,,,,338.5081,339.3072,0,1,0.2739,,0,68,68,70,1,non_cognate,1,REAL,FALSA
,,,,,,,,,5c1ec17d30f7d70001c1369c,001,2025-05-02_16h54.37.976,empathy_intonation_perc,2024.1.4,Win32,60.60606061,,,,,,,,,,,,,,91,equipo,,,,,,339.3076,340.3068,1,0,0.4613,,0,69,69,90,1,non_cognate,1,REAL,FALSA
,,,,,,,,,5c1ec17d30f7d70001c1369c,001,2025-05-02_16h54.37.976,empathy_intonation_perc,2024.1.4,Win32,60.60606061,,,,,,,,,,,,,,2,tumor,,,,,,340.3072,341.106,1,0,0.2708,,0,70,70,1,1,three_way_cognate,1,REAL,FALSA
,,,,,,,,,5c1ec17d30f7d70001c1369c,001,2025-05-02_16h54.37.976,empathy_intonation_perc,2024.1.4,Win32,60.60606061,,,,,,,,,,,,,,43,honor,,,,,,341.1065,342.1052,1,0,0.4639,,0,71,71,42,1,two_way_cognate,1,REAL,FALSA
,,,,,,,,,5c1ec17d30f7d70001c1369c,001,2025-05-02_16h54.37.976,empathy_intonation_perc,2024.1.4,Win32,60.60606061,,,,,,,,,,,,,,50,sierra,,,,,,342.1054,343.4543,1,0,0.8189,,0,72,72,49,1,non_cognate,1,REAL,FALSA
,,,,,,,,,5c1ec17d30f7d70001c1369c,001,2025-05-02_16h54.37.976,empathy_intonation_perc,2024.1.4,Win32,60.60606061,,,,,,,,,,,,,,114,dibrea,,,,,,343.4547,344.853,0,1,0.8733,,0,73,73,113,1,pseudoword,0,REAL,FALSA
,,,,,,,,,5c1ec17d30f7d70001c1369c,001,2025-05-02_16h54.37.976,empathy_intonation_perc,2024.1.4,Win32,60.60606061,,,,,,,,,,,,,,187,nomata,,,,,,344.8534,346.1354,1,0,0.7505,,0,74,74,186,1,pseudoword,0,REAL,FALSA
,,,,,,,,,5c1ec17d30f7d70001c1369c,001,2025-05-02_16h54.37.976,empathy_intonation_perc,2024.1.4,Win32,60.60606061,,,,,,,,,,,,,,135,panté,,,,,,346.1357,347.1347,1,0,0.4734,,0,75,75,134,1,pseudoword,0,REAL,FALSA
,,,,,,,,,5c1ec17d30f7d70001c1369c,001,2025-05-02_16h54.37.976,empathy_intonation_perc,2024.1.4,Win32,60.60606061,,,,,,,,,,,,,,84,aviso,,,,,,347.1351,348.1504,1,0,0.4811,,0,76,76,83,1,non_cognate,1,REAL,FALSA
,,,,,,,,,5c1ec17d30f7d70001c1369c,001,2025-05-02_16h54.37.976,empathy_intonation_perc,2024.1.4,Win32,60.60606061,,,,,,,,,,,,,,61,aduana,,,,,,348.1507,348.8834,0,1,0.202,,0,77,77,60,1,non_cognate,1,REAL,FALSA
,,,,,,,,,5c1ec17d30f7d70001c1369c,001,2025-05-02_16h54.37.976,empathy_intonation_perc,2024.1.4,Win32,60.60606061,,,,,,,,,,,,,,27,piano,,,,,,348.8837,349.7154,1,0,0.3049,,0,78,78,26,1,two_way_cognate,1,REAL,FALSA
,,,,,,,,,5c1ec17d30f7d70001c1369c,001,2025-05-02_16h54.37.976,empathy_intonation_perc,2024.1.4,Win32,60.60606061,,,,,,,,,,,,,,40,pelvis,,,,,,349.7157,350.7816,1,0,0.5385,,0,79,79,39,1,two_way_cognate,1,REAL,FALSA
,,,,,,,,,5c1ec17d30f7d70001c1369c,001,2025-05-02_16h54.37.976,empathy_intonation_perc,2024.1.4,Win32,60.60606061,,,,,,,,,,,,,,184,huenos,,,,,,350.782,352.1137,1,0,0.7979,,0,80,80,183,1,pseudoword,0,REAL,FALSA
,,,,,,,,,5c1ec17d30f7d70001c1369c,001,2025-05-02_16h54.37.976,empathy_intonation_perc,2024.1.4,Win32,60.60606061,,,,,,,,,,,,,,47,color,,,,,,352.114,353.4296,1,0,0.7785,,0,81,81,46,1,two_way_cognate,1,REAL,FALSA
,,,,,,,,,5c1ec17d30f7d70001c1369c,001,2025-05-02_16h54.37.976,empathy_intonation_perc,2024.1.4,Win32,60.60606061,,,,,,,,,,,,,,113,nasce,,,,,,353.4298,354.5119,0,1,0.5554,,0,82,82,112,1,pseudoword,0,REAL,FALSA
,,,,,,,,,5c1ec17d30f7d70001c1369c,001,2025-05-02_16h54.37.976,empathy_intonation_perc,2024.1.4,Win32,60.60606061,,,,,,,,,,,,,,166,anfia,,,,,,354.5124,355.2781,1,0,0.24,,0,83,83,165,1,pseudoword,0,REAL,FALSA
,,,,,,,,,5c1ec17d30f7d70001c1369c,001,2025-05-02_16h54.37.976,empathy_intonation_perc,2024.1.4,Win32,60.60606061,,,,,,,,,,,,,,164,tecia,,,,,,355.2782,356.61,1,0,0.8004,,0,84,84,163,1,pseudoword,0,REAL,FALSA
,,,,,,,,,5c1ec17d30f7d70001c1369c,001,2025-05-02_16h54.37.976,empathy_intonation_perc,2024.1.4,Win32,60.60606061,,,,,,,,,,,,,,150,cricó,,,,,,356.6102,357.7261,0,1,0.5821,,0,85,85,149,1,pseudoword,0,REAL,FALSA
,,,,,,,,,5c1ec17d30f7d70001c1369c,001,2025-05-02_16h54.37.976,empathy_intonation_perc,2024.1.4,Win32,60.60606061,,,,,,,,,,,,,,119,esís,,,,,,357.7267,358.5757,1,0,0.3142,,0,86,86,118,1,pseudoword,0,REAL,FALSA
,,,,,,,,,5c1ec17d30f7d70001c1369c,001,2025-05-02_16h54.37.976,empathy_intonation_perc,2024.1.4,Win32,60.60606061,,,,,,,,,,,,,,32,animal,,,,,,358.5761,360.4242,1,0,1.3118,,0,87,87,31,1,two_way_cognate,1,REAL,FALSA
,,,,,,,,,5c1ec17d30f7d70001c1369c,001,2025-05-02_16h54.37.976,empathy_intonation_perc,2024.1.4,Win32,60.60606061,,,,,,,,,,,,,,109,laras,,,,,,360.4246,361.3395,1,0,0.3917,,0,88,88,108,1,pseudoword,0,REAL,FALSA
,,,,,,,,,5c1ec17d30f7d70001c1369c,001,2025-05-02_16h54.37.976,empathy_intonation_perc,2024.1.4,Win32,60.60606061,,,,,,,,,,,,,,121,barbs,,,,,,361.3398,362.7721,0,1,0.9134,,0,89,89,120,1,pseudoword,0,REAL,FALSA
,,,,,,,,,5c1ec17d30f7d70001c1369c,001,2025-05-02_16h54.37.976,empathy_intonation_perc,2024.1.4,Win32,60.60606061,,,,,,,,,,,,,,111,monue,,,,,,362.7725,364.6042,0,1,1.2999,,0,90,90,110,1,pseudoword,0,REAL,FALSA
,,,,,,,,,5c1ec17d30f7d70001c1369c,001,2025-05-02_16h54.37.976,empathy_intonation_perc,2024.1.4,Win32,60.60606061,,,,,,,,,,,,,,33,collar,,,,,,364.6045,366.3361,0,1,1.1967,,0,91,91,32,1,two_way_cognate,1,REAL,FALSA
,,,,,,,,,5c1ec17d30f7d70001c1369c,001,2025-05-02_16h54.37.976,empathy_intonation_perc,2024.1.4,Win32,60.60606061,,,,,,,,,,,,,,178,inichó,,,,,,366.3365,367.7683,1,0,0.8978,,0,92,92,177,1,pseudoword,0,REAL,FALSA
,,,,,,,,,5c1ec17d30f7d70001c1369c,001,2025-05-02_16h54.37.976,empathy_intonation_perc,2024.1.4,Win32,60.60606061,,,,,,,,,,,,,,118,bará,,,,,,367.7687,368.7842,1,0,0.4804,,0,93,93,117,1,pseudoword,0,REAL,FALSA
,,,,,,,,,5c1ec17d30f7d70001c1369c,001,2025-05-02_16h54.37.976,empathy_intonation_perc,2024.1.4,Win32,60.60606061,,,,,,,,,,,,,,77,suave,,,,,,368.7847,369.6666,1,0,0.3472,,0,94,94,76,1,non_cognate,1,REAL,FALSA
,,,,,,,,,5c1ec17d30f7d70001c1369c,001,2025-05-02_16h54.37.976,empathy_intonation_perc,2024.1.4,Win32,60.60606061,,,,,,,,,,,,,,124,lobe,,,,,,369.6672,370.5491,1,0,0.3474,,0,95,95,123,1,pseudoword,0,REAL,FALSA
,,,,,,,,,5c1ec17d30f7d70001c1369c,001,2025-05-02_16h54.37.976,empathy_intonation_perc,2024.1.4,Win32,60.60606061,,,,,,,,,,,,,,188,amplir,,,,,,370.5494,371.6151,1,0,0.5335,,0,96,96,187,1,pseudoword,0,REAL,FALSA
,,,,,,,,,5c1ec17d30f7d70001c1369c,001,2025-05-02_16h54.37.976,empathy_intonation_perc,2024.1.4,Win32,60.60606061,,,,,,,,,,,,,,65,guerra,,,,,,371.6157,372.9641,1,0,0.8167,,0,97,97,64,1,non_cognate,1,REAL,FALSA
,,,,,,,,,5c1ec17d30f7d70001c1369c,001,2025-05-02_16h54.37.976,empathy_intonation_perc,2024.1.4,Win32,60.60606061,,,,,,,,,,,,,,52,blando,,,,,,372.9646,375.0787,1,0,1.5796,,0,98,98,51,1,non_cognate,1,REAL,FALSA
,,,,,,,,,5c1ec17d30f7d70001c1369c,001,2025-05-02_16h54.37.976,empathy_intonation_perc,2024.1.4,Win32,60.60606061,,,,,,,,,,,,,,76,chocar,,,,,,375.0789,377.0442,1,0,1.4314,,0,99,99,75,1,non_cognate,1,REAL,FALSA
,,,,,,,,,5c1ec17d30f7d70001c1369c,001,2025-05-02_16h54.37.976,empathy_intonation_perc,2024.1.4,Win32,60.60606061,,,,,,,,,,,,,,146,gió,,,,,,377.0448,378.0766,1,0,0.5016,,0,100,100,145,1,pseudoword,0,REAL,FALSA
,,,,,,,,,5c1ec17d30f7d70001c1369c,001,2025-05-02_16h54.37.976,empathy_intonation_perc,2024.1.4,Win32,60.60606061,,,,,,,,,,,,,,74,ala,,,,,,378.077,378.976,1,0,0.3705,,0,101,101,73,1,non_cognate,1,REAL,FALSA
,,,,,,,,,5c1ec17d30f7d70001c1369c,001,2025-05-02_16h54.37.976,empathy_intonation_perc,2024.1.4,Win32,60.60606061,,,,,,,,,,,,,,83,hálito,,,,,,378.9764,379.7752,1,0,0.2727,,0,102,102,82,1,non_cognate,1,REAL,FALSA
,,,,,,,,,5c1ec17d30f7d70001c1369c,001,2025-05-02_16h54.37.976,empathy_intonation_perc,2024.1.4,Win32,60.60606061,,,,,,,,,,,,,,92,flecha,,,,,,379.7755,380.6247,1,0,0.3145,,0,103,103,91,1,non_cognate,1,REAL,FALSA
,,,,,,,,,5c1ec17d30f7d70001c1369c,001,2025-05-02_16h54.37.976,empathy_intonation_perc,2024.1.4,Win32,60.60606061,,,,,,,,,,,,,,89,muñeca,,,,,,380.6251,381.4742,1,0,0.3195,,0,104,104,88,1,non_cognate,1,REAL,FALSA
,,,,,,,,,5c1ec17d30f7d70001c1369c,001,2025-05-02_16h54.37.976,empathy_intonation_perc,2024.1.4,Win32,60.60606061,,,,,,,,,,,,,,79,suelo,,,,,,381.4747,382.3068,1,0,0.3002,,0,105,105,78,1,non_cognate,1,REAL,FALSA
,,,,,,,,,5c1ec17d30f7d70001c1369c,001,2025-05-02_16h54.37.976,empathy_intonation_perc,2024.1.4,Win32,60.60606061,,,,,,,,,,,,,,127,vien,,,,,,382.3072,383.139,1,0,0.2997,,0,106,106,126,1,pseudoword,0,REAL,FALSA
,,,,,,,,,5c1ec17d30f7d70001c1369c,001,2025-05-02_16h54.37.976,empathy_intonation_perc,2024.1.4,Win32,60.60606061,,,,,,,,,,,,,,22,mango,,,,,,383.1392,384.1552,1,0,0.4809,,0,107,107,21,1,three_way_cognate,1,REAL,FALSA
,,,,,,,,,5c1ec17d30f7d70001c1369c,001,2025-05-02_16h54.37.976,empathy_intonation_perc,2024.1.4,Win32,60.60606061,,,,,,,,,,,,,,177,entodo,,,,,,384.1556,385.4042,0,1,0.7138,,0,108,108,176,1,pseudoword,0,REAL,FALSA
,,,,,,,,,5c1ec17d30f7d70001c1369c,001,2025-05-02_16h54.37.976,empathy_intonation_perc,2024.1.4,Win32,60.60606061,,,,,,,,,,,,,,87,muleta,,,,,,385.4048,386.1864,1,0,0.2583,,0,109,109,86,1,non_cognate,1,REAL,FALSA
,,,,,,,,,5c1ec17d30f7d70001c1369c,001,2025-05-02_16h54.37.976,empathy_intonation_perc,2024.1.4,Win32,60.60606061,,,,,,,,,,,,,,183,edioso,,,,,,386.1865,387.1862,1,0,0.4695,,0,110,110,182,1,pseudoword,0,REAL,FALSA
,,,,,,,,,5c1ec17d30f7d70001c1369c,001,2025-05-02_16h54.37.976,empathy_intonation_perc,2024.1.4,Win32,60.60606061,,,,,,,,,,,,,,98,martir,,,,,,387.1867,388.0853,0,1,0.366,,0,111,111,97,1,pseudoword,0,REAL,FALSA
,,,,,,,,,5c1ec17d30f7d70001c1369c,001,2025-05-02_16h54.37.976,empathy_intonation_perc,2024.1.4,Win32,60.60606061,,,,,,,,,,,,,,88,percha,,,,,,388.0859,388.8185,1,0,0.2049,,0,112,112,87,1,non_cognate,1,REAL,FALSA
,,,,,,,,,5c1ec17d30f7d70001c1369c,001,2025-05-02_16h54.37.976,empathy_intonation_perc,2024.1.4,Win32,60.60606061,,,,,,,,,,,,,,70,ánimo,,,,,,388.8186,389.8174,1,0,0.4638,,0,113,113,69,1,non_cognate,1,REAL,FALSA
,,,,,,,,,5c1ec17d30f7d70001c1369c,001,2025-05-02_16h54.37.976,empathy_intonation_perc,2024.1.4,Win32,60.60606061,,,,,,,,,,,,,,38,halo,,,,,,389.8178,390.9166,1,0,0.5687,,0,114,114,37,1,two_way_cognate,1,REAL,FALSA
,,,,,,,,,5c1ec17d30f7d70001c1369c,001,2025-05-02_16h54.37.976,empathy_intonation_perc,2024.1.4,Win32,60.60606061,,,,,,,,,,,,,,128,pelí,,,,,,390.9169,392.4485,0,1,0.9997,,0,115,115,127,1,pseudoword,0,REAL,FALSA
,,,,,,,,,5c1ec17d30f7d70001c1369c,001,2025-05-02_16h54.37.976,empathy_intonation_perc,2024.1.4,Win32,60.60606061,,,,,,,,,,,,,,154,harvé,,,,,,392.4488,393.7471,1,0,0.7751,,0,116,116,153,1,pseudoword,0,REAL,FALSA
,,,,,,,,,5c1ec17d30f7d70001c1369c,001,2025-05-02_16h54.37.976,empathy_intonation_perc,2024.1.4,Win32,60.60606061,,,,,,,,,,,,,,186,rizate,,,,,,393.7473,394.6801,1,0,0.4028,,0,117,117,185,1,pseudoword,0,REAL,FALSA
,,,,,,,,,5c1ec17d30f7d70001c1369c,001,2025-05-02_16h54.37.976,empathy_intonation_perc,2024.1.4,Win32,60.60606061,,,,,,,,,,,,,,44,editor,,,,,,394.6804,395.5458,1,0,0.3413,,0,118,118,43,1,two_way_cognate,1,REAL,FALSA
,,,,,,,,,5c1ec17d30f7d70001c1369c,001,2025-05-02_16h54.37.976,empathy_intonation_perc,2024.1.4,Win32,60.60606061,,,,,,,,,,,,,,42,rumor,,,,,,395.5461,396.4455,0,1,0.3685,,0,119,119,41,1,two_way_cognate,1,REAL,FALSA
,,,,,,,,,5c1ec17d30f7d70001c1369c,001,2025-05-02_16h54.37.976,empathy_intonation_perc,2024.1.4,Win32,60.60606061,,,,,,,,,,,,,,60,siglo,,,,,,396.446,397.3781,1,0,0.4044,,0,120,120,59,1,non_cognate,1,REAL,FALSA
,,,,,,,,,5c1ec17d30f7d70001c1369c,001,2025-05-02_16h54.37.976,empathy_intonation_perc,2024.1.4,Win32,60.60606061,,,,,,,,,,,,,,59,feo,,,,,,397.3784,398.2607,1,0,0.3477,,0,121,121,58,1,non_cognate,1,REAL,FALSA
,,,,,,,,,5c1ec17d30f7d70001c1369c,001,2025-05-02_16h54.37.976,empathy_intonation_perc,2024.1.4,Win32,60.60606061,,,,,,,,,,,,,,13,plan,,,,,,398.2611,399.2268,0,1,0.4353,,0,122,122,12,1,three_way_cognate,1,REAL,FALSA
,,,,,,,,,5c1ec17d30f7d70001c1369c,001,2025-05-02_16h54.37.976,empathy_intonation_perc,2024.1.4,Win32,60.60606061,,,,,,,,,,,,,,170,diabo,,,,,,399.227,400.825,0,1,1.0733,,0,123,123,169,1,pseudoword,0,REAL,FALSA
,,,,,,,,,5c1ec17d30f7d70001c1369c,001,2025-05-02_16h54.37.976,empathy_intonation_perc,2024.1.4,Win32,60.60606061,,,,,,,,,,,,,,18,altar,,,,,,400.8253,402.0573,0,1,0.7057,,0,124,124,17,1,three_way_cognate,1,REAL,FALSA
,,,,,,,,,5c1ec17d30f7d70001c1369c,001,2025-05-02_16h54.37.976,empathy_intonation_perc,2024.1.4,Win32,60.60606061,,,,,,,,,,,,,,153,golla,,,,,,402.0576,539.2819,0,1,136.6911,,0,125,125,152,1,pseudoword,0,REAL,FALSA
,,,,,,,,,5c1ec17d30f7d70001c1369c,001,2025-05-02_16h54.37.976,empathy_intonation_perc,2024.1.4,Win32,60.60606061,,,,,,,,,,,,,,110,densó,,,,,,539.2824,540.8309,1,0,1.0184,,0,126,126,109,1,pseudoword,0,REAL,FALSA
,,,,,,,,,5c1ec17d30f7d70001c1369c,001,2025-05-02_16h54.37.976,empathy_intonation_perc,2024.1.4,Win32,60.60606061,,,,,,,,,,,,,,162,cengo,,,,,,540.8314,542.1464,0,1,0.7822,,0,127,127,161,1,pseudoword,0,REAL,FALSA
,,,,,,,,,5c1ec17d30f7d70001c1369c,001,2025-05-02_16h54.37.976,empathy_intonation_perc,2024.1.4,Win32,60.60606061,,,,,,,,,,,,,,165,chote,,,,,,542.1468,543.362,1,0,0.6895,,0,128,128,164,1,pseudoword,0,REAL,FALSA
,,,,,,,,,5c1ec17d30f7d70001c1369c,001,2025-05-02_16h54.37.976,empathy_intonation_perc,2024.1.4,Win32,60.60606061,,,,,,,,,,,,,,145,rúo,,,,,,543.3625,544.3943,0,1,0.5075,,0,129,129,144,1,pseudoword,0,REAL,FALSA
,,,,,,,,,5c1ec17d30f7d70001c1369c,001,2025-05-02_16h54.37.976,empathy_intonation_perc,2024.1.4,Win32,60.60606061,,,,,,,,,,,,,,10,drama,,,,,,544.3944,546.2098,0,1,1.2789,,0,130,130,9,1,three_way_cognate,1,REAL,FALSA
,,,,,,,,,5c1ec17d30f7d70001c1369c,001,2025-05-02_16h54.37.976,empathy_intonation_perc,2024.1.4,Win32,60.60606061,,,,,,,,,,,,,,25,vigor,,,,,,546.2101,547.2924,1,0,0.5504,,0,131,131,24,1,two_way_cognate,1,REAL,FALSA
,,,,,,,,,5c1ec17d30f7d70001c1369c,001,2025-05-02_16h54.37.976,empathy_intonation_perc,2024.1.4,Win32,60.60606061,,,,,,,,,,,,,,19,mafia,,,,,,547.2925,548.6741,1,0,0.8578,,0,132,132,18,1,three_way_cognate,1,REAL,FALSA
,,,,,,,,,5c1ec17d30f7d70001c1369c,001,2025-05-02_16h54.37.976,empathy_intonation_perc,2024.1.4,Win32,60.60606061,,,,,,,,,,,,,,1,moral,,,,,,548.6743,549.8569,1,0,0.6555,,0,133,133,0,1,three_way_cognate,1,REAL,FALSA
,,,,,,,,,5c1ec17d30f7d70001c1369c,001,2025-05-02_16h54.37.976,empathy_intonation_perc,2024.1.4,Win32,60.60606061,,,,,,,,,,,,,,20,trauma,,,,,,549.8571,551.0055,1,0,0.627,,0,134,134,19,1,three_way_cognate,1,REAL,FALSA
,,,,,,,,,5c1ec17d30f7d70001c1369c,001,2025-05-02_16h54.37.976,empathy_intonation_perc,2024.1.4,Win32,60.60606061,,,,,,,,,,,,,,158,babrá,,,,,,551.0056,551.9219,1,0,0.3992,,0,135,135,157,1,pseudoword,0,REAL,FALSA
,,,,,,,,,5c1ec17d30f7d70001c1369c,001,2025-05-02_16h54.37.976,empathy_intonation_perc,2024.1.4,Win32,60.60606061,,,,,,,,,,,,,,155,kugis,,,,,,551.9222,552.8376,1,0,0.3802,,0,136,136,154,1,pseudoword,0,REAL,FALSA
,,,,,,,,,5c1ec17d30f7d70001c1369c,001,2025-05-02_16h54.37.976,empathy_intonation_perc,2024.1.4,Win32,60.60606061,,,,,,,,,,,,,,34,actor,,,,,,552.8379,553.9365,0,1,0.5754,,0,137,137,33,1,two_way_cognate,1,REAL,FALSA
,,,,,,,,,5c1ec17d30f7d70001c1369c,001,2025-05-02_16h54.37.976,empathy_intonation_perc,2024.1.4,Win32,60.60606061,,,,,,,,,,,,,,159,trcia,,,,,,553.9368,555.7022,0,1,1.2304,,0,138,138,158,1,pseudoword,0,REAL,FALSA
,,,,,,,,,5c1ec17d30f7d70001c1369c,001,2025-05-02_16h54.37.976,empathy_intonation_perc,2024.1.4,Win32,60.60606061,,,,,,,,,,,,,,54,tapón,,,,,,555.7027,557.6674,1,0,1.4385,,0,139,139,53,1,non_cognate,1,REAL,FALSA
,,,,,,,,,5c1ec17d30f7d70001c1369c,001,2025-05-02_16h54.37.976,empathy_intonation_perc,2024.1.4,Win32,60.60606061,,,,,,,,,,,,,,133,conso,,,,,,557.6678,559.3158,0,1,1.1165,,0,140,140,132,1,pseudoword,0,REAL,FALSA
,,,,,,,,,5c1ec17d30f7d70001c1369c,001,2025-05-02_16h54.37.976,empathy_intonation_perc,2024.1.4,Win32,60.60606061,,,,,,,,,,,,,,152,prave,,,,,,559.316,560.3483,1,0,0.494,,0,141,141,151,1,pseudoword,0,REAL,FALSA
,,,,,,,,,5c1ec17d30f7d70001c1369c,001,2025-05-02_16h54.37.976,empathy_intonation_perc,2024.1.4,Win32,60.60606061,,,,,,,,,,,,,,7,albino,,,,,,560.3487,561.4145,1,0,0.5403,,0,142,142,6,1,three_way_cognate,1,REAL,FALSA
,,,,,,,,,5c1ec17d30f7d70001c1369c,001,2025-05-02_16h54.37.976,empathy_intonation_perc,2024.1.4,Win32,60.60606061,,,,,,,,,,,,,,58,colcha,,,,,,561.4148,562.5968,1,0,0.6485,,0,143,143,57,1,non_cognate,1,REAL,FALSA
,,,,,,,,,5c1ec17d30f7d70001c1369c,001,2025-05-02_16h54.37.976,empathy_intonation_perc,2024.1.4,Win32,60.60606061,,,,,,,,,,,,,,86,cuenco,,,,,,562.597,564.2956,1,0,1.1612,,0,144,144,85,1,non_cognate,1,REAL,FALSA
,,,,,,,,,5c1ec17d30f7d70001c1369c,001,2025-05-02_16h54.37.976,empathy_intonation_perc,2024.1.4,Win32,60.60606061,,,,,,,,,,,,,,16,chat,,,,,,564.2959,565.5277,1,0,0.6974,,0,145,145,15,1,three_way_cognate,1,REAL,FALSA
,,,,,,,,,5c1ec17d30f7d70001c1369c,001,2025-05-02_16h54.37.976,empathy_intonation_perc,2024.1.4,Win32,60.60606061,,,,,,,,,,,,,,35,aurora,,,,,,565.5281,566.7934,1,0,0.7292,,0,146,146,34,1,two_way_cognate,1,REAL,FALSA
,,,,,,,,,5c1ec17d30f7d70001c1369c,001,2025-05-02_16h54.37.976,empathy_intonation_perc,2024.1.4,Win32,60.60606061,,,,,,,,,,,,,,160,fomeó,,,,,,566.7939,567.7423,1,0,0.4233,,0,147,147,159,1,pseudoword,0,REAL,FALSA
,,,,,,,,,5c1ec17d30f7d70001c1369c,001,2025-05-02_16h54.37.976,empathy_intonation_perc,2024.1.4,Win32,60.60606061,,,,,,,,,,,,,,48,pelvis,,,,,,567.7426,568.4921,1,0,0.2143,,0,148,148,47,1,two_way_cognate,1,REAL,FALSA
,,,,,,,,,5c1ec17d30f7d70001c1369c,001,2025-05-02_16h54.37.976,empathy_intonation_perc,2024.1.4,Win32,60.60606061,,,,,,,,,,,,,,12,dogma,,,,,,568.4925,569.6079,1,0,0.5799,,0,149,149,11,1,three_way_cognate,1,REAL,FALSA
,,,,,,,,,5c1ec17d30f7d70001c1369c,001,2025-05-02_16h54.37.976,empathy_intonation_perc,2024.1.4,Win32,60.60606061,,,,,,,,,,,,,,39,casual,,,,,,569.6083,571.123,0,1,0.9789,,0,150,150,38,1,two_way_cognate,1,REAL,FALSA
,,,,,,,,,5c1ec17d30f7d70001c1369c,001,2025-05-02_16h54.37.976,empathy_intonation_perc,2024.1.4,Win32,60.60606061,,,,,,,,,,,,,,140,chorde,,,,,,571.1232,572.9552,1,0,1.2971,,0,151,151,139,1,pseudoword,0,REAL,FALSA
,,,,,,,,,5c1ec17d30f7d70001c1369c,001,2025-05-02_16h54.37.976,empathy_intonation_perc,2024.1.4,Win32,60.60606061,,,,,,,,,,,,,,107,plago,,,,,,572.9556,574.1711,1,0,0.6867,,0,152,152,106,1,pseudoword,0,REAL,FALSA
,,,,,,,,,5c1ec17d30f7d70001c1369c,001,2025-05-02_16h54.37.976,empathy_intonation_perc,2024.1.4,Win32,60.60606061,,,,,,,,,,,,,,168,cobén,,,,,,574.1714,575.7694,1,0,1.066,,0,153,153,167,1,pseudoword,0,REAL,FALSA
,,,,,,,,,5c1ec17d30f7d70001c1369c,001,2025-05-02_16h54.37.976,empathy_intonation_perc,2024.1.4,Win32,60.60606061,,,,,,,,,,,,,,75,patada,,,,,,575.7697,577.4184,0,1,1.1131,,0,154,154,74,1,non_cognate,1,REAL,FALSA
,,,,,,,,,5c1ec17d30f7d70001c1369c,001,2025-05-02_16h54.37.976,empathy_intonation_perc,2024.1.4,Win32,60.60606061,,,,,,,,,,,,,,151,prías,,,,,,577.4187,578.7841,1,0,0.8371,,0,155,155,150,1,pseudoword,0,REAL,FALSA
,,,,,,,,,5c1ec17d30f7d70001c1369c,001,2025-05-02_16h54.37.976,empathy_intonation_perc,2024.1.4,Win32,60.60606061,,,,,,,,,,,,,,102,coyo,,,,,,578.7845,579.7165,1,0,0.4042,,0,156,156,101,1,pseudoword,0,REAL,FALSA
,,,,,,,,,5c1ec17d30f7d70001c1369c,001,2025-05-02_16h54.37.976,empathy_intonation_perc,2024.1.4,Win32,60.60606061,,,,,,,,,,,,,,64,rizado,,,,,,579.7169,581.0983,1,0,0.8606,,0,157,157,63,1,non_cognate,1,REAL,FALSA
,,,,,,,,,5c1ec17d30f7d70001c1369c,001,2025-05-02_16h54.37.976,empathy_intonation_perc,2024.1.4,Win32,60.60606061,,,,,,,,,,,,,,106,diebro,,,,,,581.0984,584.7789,1,0,3.1556,,0,158,158,105,1,pseudoword,0,REAL,FALSA
,,,,,,,,,5c1ec17d30f7d70001c1369c,001,2025-05-02_16h54.37.976,empathy_intonation_perc,2024.1.4,Win32,60.60606061,,,,,,,,,,,,,,66,aleta,,,,,,584.7791,586.2614,1,0,0.9521,,0,159,159,65,1,non_cognate,1,REAL,FALSA
,,,,,,,,,5c1ec17d30f7d70001c1369c,001,2025-05-02_16h54.37.976,empathy_intonation_perc,2024.1.4,Win32,60.60606061,,,,,,,,,,,,,,97,nocita,,,,,,586.2617,587.2939,1,0,0.5001,,0,160,160,96,1,pseudoword,0,REAL,FALSA
,,,,,,,,,5c1ec17d30f7d70001c1369c,001,2025-05-02_16h54.37.976,empathy_intonation_perc,2024.1.4,Win32,60.60606061,,,,,,,,,,,,,,63,hilo,,,,,,587.2943,588.3092,1,0,0.4936,,0,161,161,62,1,non_cognate,1,REAL,FALSA
,,,,,,,,,5c1ec17d30f7d70001c1369c,001,2025-05-02_16h54.37.976,empathy_intonation_perc,2024.1.4,Win32,60.60606061,,,,,,,,,,,,,,138,tator,,,,,,588.3094,589.392,0,1,0.5685,,0,162,162,137,1,pseudoword,0,REAL,FALSA
,,,,,,,,,5c1ec17d30f7d70001c1369c,001,2025-05-02_16h54.37.976,empathy_intonation_perc,2024.1.4,Win32,60.60606061,,,,,,,,,,,,,,9,portal,,,,,,589.3923,590.3576,1,0,0.4439,,0,163,163,8,1,three_way_cognate,1,REAL,FALSA
,,,,,,,,,5c1ec17d30f7d70001c1369c,001,2025-05-02_16h54.37.976,empathy_intonation_perc,2024.1.4,Win32,60.60606061,,,,,,,,,,,,,,172,dogue,,,,,,590.3577,591.7235,1,0,0.8453,,0,164,164,171,1,pseudoword,0,REAL,FALSA
,,,,,,,,,5c1ec17d30f7d70001c1369c,001,2025-05-02_16h54.37.976,empathy_intonation_perc,2024.1.4,Win32,60.60606061,,,,,,,,,,,,,,144,diroco,,,,,,591.7239,592.6063,1,0,0.3536,,0,165,165,143,1,pseudoword,0,REAL,FALSA
,,,,,,,,,5c1ec17d30f7d70001c1369c,001,2025-05-02_16h54.37.976,empathy_intonation_perc,2024.1.4,Win32,60.60606061,,,,,,,,,,,,,,4,flora,,,,,,592.6067,594.155,1,0,1.0211,,0,166,166,3,1,three_way_cognate,1,REAL,FALSA
,,,,,,,,,5c1ec17d30f7d70001c1369c,001,2025-05-02_16h54.37.976,empathy_intonation_perc,2024.1.4,Win32,60.60606061,,,,,,,,,,,,,,149,emén,,,,,,594.1554,595.4377,0,1,0.7551,,0,167,167,148,1,pseudoword,0,REAL,FALSA
,,,,,,,,,5c1ec17d30f7d70001c1369c,001,2025-05-02_16h54.37.976,empathy_intonation_perc,2024.1.4,Win32,60.60606061,,,,,,,,,,,,,,6,horror,,,,,,595.4381,596.6695,1,0,0.7034,,0,168,168,5,1,three_way_cognate,1,REAL,FALSA
,,,,,,,,,5c1ec17d30f7d70001c1369c,001,2025-05-02_16h54.37.976,empathy_intonation_perc,2024.1.4,Win32,60.60606061,,,,,,,,,,,,,,179,suelet,,,,,,596.6696,597.6689,1,0,0.4656,,0,169,169,178,1,pseudoword,0,REAL,FALSA
,,,,,,,,,5c1ec17d30f7d70001c1369c,001,2025-05-02_16h54.37.976,empathy_intonation_perc,2024.1.4,Win32,60.60606061,,,,,,,,,,,,,,53,punta,,,,,,597.6692,598.518,1,0,0.3195,,0,170,170,52,1,non_cognate,1,REAL,FALSA
,,,,,,,,,5c1ec17d30f7d70001c1369c,001,2025-05-02_16h54.37.976,empathy_intonation_perc,2024.1.4,Win32,60.60606061,,,,,,,,,,,,,,29,clamor,,,,,,598.5183,599.5172,1,0,0.4659,,0,171,171,28,1,two_way_cognate,1,REAL,FALSA
,,,,,,,,,5c1ec17d30f7d70001c1369c,001,2025-05-02_16h54.37.976,empathy_intonation_perc,2024.1.4,Win32,60.60606061,,,,,,,,,,,,,,137,trugo,,,,,,599.5174,600.4,1,0,0.3505,,0,172,172,136,1,pseudoword,0,REAL,FALSA
,,,,,,,,,5c1ec17d30f7d70001c1369c,001,2025-05-02_16h54.37.976,empathy_intonation_perc,2024.1.4,Win32,60.60606061,,,,,,,,,,,,,,101,losco,,,,,,600.4002,601.4487,0,1,0.5262,,0,173,173,100,1,pseudoword,0,REAL,FALSA
,,,,,,,,,5c1ec17d30f7d70001c1369c,001,2025-05-02_16h54.37.976,empathy_intonation_perc,2024.1.4,Win32,60.60606061,,,,,,,,,,,,,,96,caro,,,,,,601.4489,602.5481,0,1,0.5652,,0,174,174,95,1,non_cognate,1,REAL,FALSA
,,,,,,,,,5c1ec17d30f7d70001c1369c,001,2025-05-02_16h54.37.976,empathy_intonation_perc,2024.1.4,Win32,60.60606061,,,,,,,,,,,,,,191,frasis,,,,,,602.5485,603.8972,0,1,0.8138,,0,175,175,190,1,pseudoword,0,REAL,FALSA
,,,,,,,,,5c1ec17d30f7d70001c1369c,001,2025-05-02_16h54.37.976,empathy_intonation_perc,2024.1.4,Win32,60.60606061,,,,,,,,,,,,,,94,forro,,,,,,603.8975,604.9137,1,0,0.4849,,0,176,176,93,1,non_cognate,1,REAL,FALSA
,,,,,,,,,5c1ec17d30f7d70001c1369c,001,2025-05-02_16h54.37.976,empathy_intonation_perc,2024.1.4,Win32,60.60606061,,,,,,,,,,,,,,103,vueras,,,,,,604.914,606.0459,1,0,0.5988,,0,177,177,102,1,pseudoword,0,REAL,FALSA
,,,,,,,,,5c1ec17d30f7d70001c1369c,001,2025-05-02_16h54.37.976,empathy_intonation_perc,2024.1.4,Win32,60.60606061,,,,,,,,,,,,,,131,fuar,,,,,,606.0463,606.6451,0,1,0.0675,,0,178,178,130,1,pseudoword,0,REAL,FALSA
,,,,,,,,,5c1ec17d30f7d70001c1369c,001,2025-05-02_16h54.37.976,empathy_intonation_perc,2024.1.4,Win32,60.60606061,,,,,,,,,,,,,,23,plural,,,,,,606.6455,607.2448,0,1,0.0683,,0,179,179,22,1,three_way_cognate,1,REAL,FALSA
,,,,,,,,,5c1ec17d30f7d70001c1369c,001,2025-05-02_16h54.37.976,empathy_intonation_perc,2024.1.4,Win32,60.60606061,,,,,,,,,,,,,,122,boñaz,,,,,,607.2453,608.4435,1,0,0.6769,,0,180,180,121,1,pseudoword,0,REAL,FALSA
,,,,,,,,,5c1ec17d30f7d70001c1369c,001,2025-05-02_16h54.37.976,empathy_intonation_perc,2024.1.4,Win32,60.60606061,,,,,,,,,,,,,,176,gripar,,,,,,608.4437,609.3093,1,0,0.3408,,0,181,181,175,1,pseudoword,0,REAL,FALSA
,,,,,,,,,5c1ec17d30f7d70001c1369c,001,2025-05-02_16h54.37.976,empathy_intonation_perc,2024.1.4,Win32,60.60606061,,,,,,,,,,,,,,142,parre,,,,,,609.3095,611.0917,0,1,1.2467,,0,182,182,141,1,pseudoword,0,REAL,FALSA
,,,,,,,,,5c1ec17d30f7d70001c1369c,001,2025-05-02_16h54.37.976,empathy_intonation_perc,2024.1.4,Win32,60.60606061,,,,,,,,,,,,,,125,ceme,,,,,,611.0923,611.9405,1,0,0.3231,,0,183,183,124,1,pseudoword,0,REAL,FALSA
,,,,,,,,,5c1ec17d30f7d70001c1369c,001,2025-05-02_16h54.37.976,empathy_intonation_perc,2024.1.4,Win32,60.60606061,,,,,,,,,,,,,,143,hurcos,,,,,,611.9408,612.6732,1,0,0.2092,,0,184,184,142,1,pseudoword,0,REAL,FALSA
,,,,,,,,,5c1ec17d30f7d70001c1369c,001,2025-05-02_16h54.37.976,empathy_intonation_perc,2024.1.4,Win32,60.60606061,,,,,,,,,,,,,,15,test,,,,,,612.6734,613.2893,1,0,0.0946,,0,185,185,14,1,three_way_cognate,1,REAL,FALSA
,,,,,,,,,5c1ec17d30f7d70001c1369c,001,2025-05-02_16h54.37.976,empathy_intonation_perc,2024.1.4,Win32,60.60606061,,,,,,,,,,,,,,67,llamar,,,,,,613.2894,615.2552,1,0,1.4293,,0,186,186,66,1,non_cognate,1,REAL,FALSA
,,,,,,,,,5c1ec17d30f7d70001c1369c,001,2025-05-02_16h54.37.976,empathy_intonation_perc,2024.1.4,Win32,60.60606061,,,,,,,,,,,,,,100,épinas,,,,,,615.2556,616.2705,1,0,0.4848,,0,187,187,99,1,pseudoword,0,REAL,FALSA
,,,,,,,,,5c1ec17d30f7d70001c1369c,001,2025-05-02_16h54.37.976,empathy_intonation_perc,2024.1.4,Win32,60.60606061,,,,,,,,,,,,,,157,seled,,,,,,616.2707,617.5693,0,1,0.7762,,0,188,188,156,1,pseudoword,0,REAL,FALSA
,,,,,,,,,5c1ec17d30f7d70001c1369c,001,2025-05-02_16h54.37.976,empathy_intonation_perc,2024.1.4,Win32,60.60606061,,,,,,,,,,,,,,129,vinzó,,,,,,617.5695,619.0019,1,0,0.9089,,0,189,189,128,1,pseudoword,0,REAL,FALSA
,,,,,,,,,5c1ec17d30f7d70001c1369c,001,2025-05-02_16h54.37.976,empathy_intonation_perc,2024.1.4,Win32,60.60606061,,,,,,,,,,,,,,169,pitis,,,,,,619.0022,620.3843,0,1,0.8508,,0,190,190,168,1,pseudoword,0,REAL,FALSA
,,,,,,,,,5c1ec17d30f7d70001c1369c,001,2025-05-02_16h54.37.976,empathy_intonation_perc,2024.1.4,Win32,60.60606061,,,,,,,,,,,,,,139,sasos,,,,,,620.3846,622.1166,1,0,1.2,,0,191,191,138,1,pseudoword,0,REAL,FALSA
