lextale_instructions.started,lextale_instructions.stopped,lextale_instructions_loop.thisRepN,lextale_instructions_loop.thisTrialN,lextale_instructions_loop.thisN,lextale_instructions_loop.thisIndex,lextale_instructions_loop.ran,instructions_text,continue_text,participant,session,date,expName,psychopyVersion,OS,frameRate,lextale_practice.started,lextale_practice.stopped,key_resp_lextale_practice.keys,key_resp_lextale_practice.corr,key_resp_lextale_practice.rt,key_resp_lextale_practice.duration,lextale_practice_feedback.started,lextale_practice_feedback.stopped,lextale_practice_trials.thisRepN,lextale_practice_trials.thisTrialN,lextale_practice_trials.thisN,lextale_practice_trials.thisIndex,lextale_practice_trials.ran,stim,word,correct_response,prac_button_real,prac_button_false,lextale_check.started,lextale_check.stopped,lextale_trial.started,lextale_trial.stopped,key_resp_lextale_trial.keys,key_resp_lextale_trial.corr,key_resp_lextale_trial.rt,key_resp_lextale_trial.duration,lextail_trials.thisRepN,lextail_trials.thisTrialN,lextail_trials.thisN,lextail_trials.thisIndex,lextail_trials.ran,type,correct_reponse,button_real,button_false
0.008,9.3736,0,0,0,0,1,"Este es un test de vocabulario en español. 
  
  A continuación vas a ver 90 secuencias de letras que parecen 'españolas'.
  
  Solo algunas de ellas son palabras de verdad.",(presiona la barra espaciadora para continuar),5e5832478c2b6f03f9acd234,001,2025-05-20_14h04.27.192,empathy_intonation_perc,2024.1.4,Linux x86_64,29.94011976,,,,,,,,,,,,,,,,,,,,,,,,,,,,,,,,,,,
9.3782,17.96,0,1,1,1,1,"Por favor, señala las palabras que tú conoces (aquellas que estás convencido que son palabras españolas, incluso aunque no seas capaz de dar el significado preciso).",(presiona la barra espaciadora para continuar),5e5832478c2b6f03f9acd234,001,2025-05-20_14h04.27.192,empathy_intonation_perc,2024.1.4,Linux x86_64,29.94011976,,,,,,,,,,,,,,,,,,,,,,,,,,,,,,,,,,,
17.9609,31.0594,0,2,2,2,1,Pero cuidado: los errores se penalizan. Por eso no tiene sentido tratar de incrementar tu puntuación marcando como reales palabras que nunca has visto.,(presiona la barra espaciadora para continuar),5e5832478c2b6f03f9acd234,001,2025-05-20_14h04.27.192,empathy_intonation_perc,2024.1.4,Linux x86_64,29.94011976,,,,,,,,,,,,,,,,,,,,,,,,,,,,,,,,,,,
31.0597,42.3972,0,3,3,3,1,"Presiona la tecla 1 si piensas que es una palabra real y la tecla 
  0 si piensas que es una palabra falsa. 
  
  Vamos a practicar un poco...",(presiona la barra espaciadora para continuar),5e5832478c2b6f03f9acd234,001,2025-05-20_14h04.27.192,empathy_intonation_perc,2024.1.4,Linux x86_64,29.94011976,,,,,,,,,,,,,,,,,,,,,,,,,,,,,,,,,,,
,,,,,,,,,5e5832478c2b6f03f9acd234,001,2025-05-20_14h04.27.192,empathy_intonation_perc,2024.1.4,Linux x86_64,29.94011976,42.4053,45.409,1,0,2.4602,,45.4096,46.4278,0,0,0,0,1,0,depiste,0,REAL,FALSA,,,,,,,,,,,,,,,,,
,,,,,,,,,5e5832478c2b6f03f9acd234,001,2025-05-20_14h04.27.192,empathy_intonation_perc,2024.1.4,Linux x86_64,29.94011976,46.4307,48.5038,1,1,1.5433,,48.5038,49.4871,0,1,1,1,1,0,sí,1,REAL,FALSA,,,,,,,,,,,,,,,,,
,,,,,,,,,5e5832478c2b6f03f9acd234,001,2025-05-20_14h04.27.192,empathy_intonation_perc,2024.1.4,Linux x86_64,29.94011976,49.4883,51.7067,0,1,1.683,,51.7069,52.6829,0,2,2,2,1,0,coné,0,REAL,FALSA,,,,,,,,,,,,,,,,,
,,,,,,,,,5e5832478c2b6f03f9acd234,001,2025-05-20_14h04.27.192,empathy_intonation_perc,2024.1.4,Linux x86_64,29.94011976,52.6839,54.4501,1,0,1.2066,,54.4501,55.4561,0,3,3,3,1,0,calpar,0,REAL,FALSA,,,,,,,,,,,,,,,,,
,,,,,,,,,5e5832478c2b6f03f9acd234,001,2025-05-20_14h04.27.192,empathy_intonation_perc,2024.1.4,Linux x86_64,29.94011976,55.4572,57.4012,0,1,1.4034,,57.4013,58.384,0,4,4,4,1,0,joten,0,REAL,FALSA,,,,,,,,,,,,,,,,,
,,,,,,,,,5e5832478c2b6f03f9acd234,001,2025-05-20_14h04.27.192,empathy_intonation_perc,2024.1.4,Linux x86_64,29.94011976,58.3861,60.0109,1,1,1.0575,,60.0114,60.9884,0,5,5,5,1,0,sacapuntas,1,REAL,FALSA,,,,,,,,,,,,,,,,,
,,,,,,,,,5e5832478c2b6f03f9acd234,001,2025-05-20_14h04.27.192,empathy_intonation_perc,2024.1.4,Linux x86_64,29.94011976,60.9896,62.5296,1,0,0.9825,,62.5297,63.53,0,6,6,6,1,0,priba,0,REAL,FALSA,,,,,,,,,,,,,,,,,
,,,,,,,,,5e5832478c2b6f03f9acd234,001,2025-05-20_14h04.27.192,empathy_intonation_perc,2024.1.4,Linux x86_64,29.94011976,63.5318,66.2667,1,0,2.1621,,66.267,67.2594,0,7,7,7,1,0,pelasula,0,REAL,FALSA,,,,,,,,,,,,,,,,,
,,,,,,,,,5e5832478c2b6f03f9acd234,001,2025-05-20_14h04.27.192,empathy_intonation_perc,2024.1.4,Linux x86_64,29.94011976,67.2603,68.9991,1,1,1.1246,0.0376,69.0017,69.9059,0,8,8,8,1,0,bien,1,REAL,FALSA,,,,,,,,,,,,,,,,,
,,,,,,,,,5e5832478c2b6f03f9acd234,001,2025-05-20_14h04.27.192,empathy_intonation_perc,2024.1.4,Linux x86_64,29.94011976,69.9506,71.3804,1,1,0.8943,,71.3805,72.3685,0,9,9,9,1,0,casa,1,REAL,FALSA,,,,,,,,,,,,,,,,,
,,,,,,,,,5e5832478c2b6f03f9acd234,001,2025-05-20_14h04.27.192,empathy_intonation_perc,2024.1.4,Linux x86_64,29.94011976,72.3694,73.7257,0,1,0.8048,,73.7258,74.7346,0,10,10,10,1,0,lejo,0,REAL,FALSA,,,,,,,,,,,,,,,,,
,,,,,,,,,5e5832478c2b6f03f9acd234,001,2025-05-20_14h04.27.192,empathy_intonation_perc,2024.1.4,Linux x86_64,29.94011976,74.7361,77.2092,1,0,1.9294,,77.2093,78.1973,0,11,11,11,1,0,pretantas,0,REAL,FALSA,,,,,,,,,,,,,,,,,
,,,,,,,,,5e5832478c2b6f03f9acd234,001,2025-05-20_14h04.27.192,empathy_intonation_perc,2024.1.4,Linux x86_64,29.94011976,,,,,,,,,,,,,,,,,,,78.1981,87.0128,,,,,,,,,,,,,,,
,,,,,,,,,5e5832478c2b6f03f9acd234,001,2025-05-20_14h04.27.192,empathy_intonation_perc,2024.1.4,Linux x86_64,29.94011976,,,,,,,,,,,,,,52,blando,,,,,,87.055,88.7872,0,1,1.1925,,0,0,0,51,1,non_cognate,1,REAL,FALSA
,,,,,,,,,5e5832478c2b6f03f9acd234,001,2025-05-20_14h04.27.192,empathy_intonation_perc,2024.1.4,Linux x86_64,29.94011976,,,,,,,,,,,,,,170,diabo,,,,,,88.7881,92.1086,0,1,2.7644,,0,1,1,169,1,pseudoword,0,REAL,FALSA
,,,,,,,,,5e5832478c2b6f03f9acd234,001,2025-05-20_14h04.27.192,empathy_intonation_perc,2024.1.4,Linux x86_64,29.94011976,,,,,,,,,,,,,,43,honor,,,,,,92.1096,93.669,1,0,0.9683,,0,2,2,42,1,two_way_cognate,1,REAL,FALSA
,,,,,,,,,5e5832478c2b6f03f9acd234,001,2025-05-20_14h04.27.192,empathy_intonation_perc,2024.1.4,Linux x86_64,29.94011976,,,,,,,,,,,,,,34,actor,,,,,,93.6722,95.3494,1,0,1.1362,,0,3,3,33,1,two_way_cognate,1,REAL,FALSA
,,,,,,,,,5e5832478c2b6f03f9acd234,001,2025-05-20_14h04.27.192,empathy_intonation_perc,2024.1.4,Linux x86_64,29.94011976,,,,,,,,,,,,,,86,cuenco,,,,,,95.3504,97.1156,1,0,1.2125,,0,4,4,85,1,non_cognate,1,REAL,FALSA
,,,,,,,,,5e5832478c2b6f03f9acd234,001,2025-05-20_14h04.27.192,empathy_intonation_perc,2024.1.4,Linux x86_64,29.94011976,,,,,,,,,,,,,,48,pelvis,,,,,,97.1162,99.2357,0,1,1.5383,,0,5,5,47,1,two_way_cognate,1,REAL,FALSA
,,,,,,,,,5e5832478c2b6f03f9acd234,001,2025-05-20_14h04.27.192,empathy_intonation_perc,2024.1.4,Linux x86_64,29.94011976,,,,,,,,,,,,,,163,llzan,,,,,,99.2362,100.9125,0,1,1.0949,,0,6,6,162,1,pseudoword,0,REAL,FALSA
,,,,,,,,,5e5832478c2b6f03f9acd234,001,2025-05-20_14h04.27.192,empathy_intonation_perc,2024.1.4,Linux x86_64,29.94011976,,,,,,,,,,,,,,175,tradía,,,,,,100.9133,102.4439,1,0,0.9122,,0,7,7,174,1,pseudoword,0,REAL,FALSA
,,,,,,,,,5e5832478c2b6f03f9acd234,001,2025-05-20_14h04.27.192,empathy_intonation_perc,2024.1.4,Linux x86_64,29.94011976,,,,,,,,,,,,,,117,morrá,,,,,,102.4447,104.5533,1,0,1.5306,,0,8,8,116,1,pseudoword,0,REAL,FALSA
,,,,,,,,,5e5832478c2b6f03f9acd234,001,2025-05-20_14h04.27.192,empathy_intonation_perc,2024.1.4,Linux x86_64,29.94011976,,,,,,,,,,,,,,29,clamor,,,,,,104.5537,106.3404,0,1,1.1984,,0,9,9,28,1,two_way_cognate,1,REAL,FALSA
,,,,,,,,,5e5832478c2b6f03f9acd234,001,2025-05-20_14h04.27.192,empathy_intonation_perc,2024.1.4,Linux x86_64,29.94011976,,,,,,,,,,,,,,44,editor,,,,,,106.342,108.8855,1,0,1.9821,,0,10,10,43,1,two_way_cognate,1,REAL,FALSA
,,,,,,,,,5e5832478c2b6f03f9acd234,001,2025-05-20_14h04.27.192,empathy_intonation_perc,2024.1.4,Linux x86_64,29.94011976,,,,,,,,,,,,,,176,gripar,,,,,,108.8871,110.6954,1,0,1.2103,,0,11,11,175,1,pseudoword,0,REAL,FALSA
,,,,,,,,,5e5832478c2b6f03f9acd234,001,2025-05-20_14h04.27.192,empathy_intonation_perc,2024.1.4,Linux x86_64,29.94011976,,,,,,,,,,,,,,71,torta,,,,,,110.6974,112.2053,1,0,0.9307,,0,12,12,70,1,non_cognate,1,REAL,FALSA
,,,,,,,,,5e5832478c2b6f03f9acd234,001,2025-05-20_14h04.27.192,empathy_intonation_perc,2024.1.4,Linux x86_64,29.94011976,,,,,,,,,,,,,,63,hilo,,,,,,112.2328,114.1094,0,1,1.2991,,0,13,13,62,1,non_cognate,1,REAL,FALSA
,,,,,,,,,5e5832478c2b6f03f9acd234,001,2025-05-20_14h04.27.192,empathy_intonation_perc,2024.1.4,Linux x86_64,29.94011976,,,,,,,,,,,,,,53,punta,,,,,,114.1099,115.6874,1,0,0.9664,,0,14,14,52,1,non_cognate,1,REAL,FALSA
,,,,,,,,,5e5832478c2b6f03f9acd234,001,2025-05-20_14h04.27.192,empathy_intonation_perc,2024.1.4,Linux x86_64,29.94011976,,,,,,,,,,,,,,26,enigma,,,,,,115.6915,117.2392,1,0,0.9538,,0,15,15,25,1,two_way_cognate,1,REAL,FALSA
,,,,,,,,,5e5832478c2b6f03f9acd234,001,2025-05-20_14h04.27.192,empathy_intonation_perc,2024.1.4,Linux x86_64,29.94011976,,,,,,,,,,,,,,79,suelo,,,,,,117.2451,119.0972,1,0,1.217,,0,16,16,78,1,non_cognate,1,REAL,FALSA
,,,,,,,,,5e5832478c2b6f03f9acd234,001,2025-05-20_14h04.27.192,empathy_intonation_perc,2024.1.4,Linux x86_64,29.94011976,,,,,,,,,,,,,,55,maldad,,,,,,119.1013,121.2202,0,1,1.5225,,0,17,17,54,1,non_cognate,1,REAL,FALSA
,,,,,,,,,5e5832478c2b6f03f9acd234,001,2025-05-20_14h04.27.192,empathy_intonation_perc,2024.1.4,Linux x86_64,29.94011976,,,,,,,,,,,,,,177,entodo,,,,,,121.2229,123.2353,0,1,1.443,,0,18,18,176,1,pseudoword,0,REAL,FALSA
,,,,,,,,,5e5832478c2b6f03f9acd234,001,2025-05-20_14h04.27.192,empathy_intonation_perc,2024.1.4,Linux x86_64,29.94011976,,,,,,,,,,,,,,108,jauda,,,,,,123.2389,124.9598,0,1,1.1337,,0,19,19,107,1,pseudoword,0,REAL,FALSA
,,,,,,,,,5e5832478c2b6f03f9acd234,001,2025-05-20_14h04.27.192,empathy_intonation_perc,2024.1.4,Linux x86_64,29.94011976,,,,,,,,,,,,,,114,dibrea,,,,,,124.9621,126.5029,0,1,0.9231,,0,20,20,113,1,pseudoword,0,REAL,FALSA
,,,,,,,,,5e5832478c2b6f03f9acd234,001,2025-05-20_14h04.27.192,empathy_intonation_perc,2024.1.4,Linux x86_64,29.94011976,,,,,,,,,,,,,,116,grigir,,,,,,126.5041,128.1672,0,1,1.0587,,0,21,21,115,1,pseudoword,0,REAL,FALSA
,,,,,,,,,5e5832478c2b6f03f9acd234,001,2025-05-20_14h04.27.192,empathy_intonation_perc,2024.1.4,Linux x86_64,29.94011976,,,,,,,,,,,,,,88,percha,,,,,,128.1702,130.1421,1,0,1.3278,,0,22,22,87,1,non_cognate,1,REAL,FALSA
,,,,,,,,,5e5832478c2b6f03f9acd234,001,2025-05-20_14h04.27.192,empathy_intonation_perc,2024.1.4,Linux x86_64,29.94011976,,,,,,,,,,,,,,118,bará,,,,,,130.1462,131.5399,1,0,0.8195,,0,23,23,117,1,pseudoword,0,REAL,FALSA
,,,,,,,,,5e5832478c2b6f03f9acd234,001,2025-05-20_14h04.27.192,empathy_intonation_perc,2024.1.4,Linux x86_64,29.94011976,,,,,,,,,,,,,,104,estulo,,,,,,131.5406,133.0846,1,0,0.8789,,0,24,24,103,1,pseudoword,0,REAL,FALSA
,,,,,,,,,5e5832478c2b6f03f9acd234,001,2025-05-20_14h04.27.192,empathy_intonation_perc,2024.1.4,Linux x86_64,29.94011976,,,,,,,,,,,,,,69,tiza,,,,,,133.113,134.9931,0,1,1.2512,,0,25,25,68,1,non_cognate,1,REAL,FALSA
,,,,,,,,,5e5832478c2b6f03f9acd234,001,2025-05-20_14h04.27.192,empathy_intonation_perc,2024.1.4,Linux x86_64,29.94011976,,,,,,,,,,,,,,64,rizado,,,,,,134.9968,137.5352,1,0,1.7576,,0,26,26,63,1,non_cognate,1,REAL,FALSA
,,,,,,,,,5e5832478c2b6f03f9acd234,001,2025-05-20_14h04.27.192,empathy_intonation_perc,2024.1.4,Linux x86_64,29.94011976,,,,,,,,,,,,,,102,coyo,,,,,,137.5365,138.9547,0,1,0.8654,,0,27,27,101,1,pseudoword,0,REAL,FALSA
,,,,,,,,,5e5832478c2b6f03f9acd234,001,2025-05-20_14h04.27.192,empathy_intonation_perc,2024.1.4,Linux x86_64,29.94011976,,,,,,,,,,,,,,153,golla,,,,,,138.9559,140.6283,1,0,1.12,,0,28,28,152,1,pseudoword,0,REAL,FALSA
,,,,,,,,,5e5832478c2b6f03f9acd234,001,2025-05-20_14h04.27.192,empathy_intonation_perc,2024.1.4,Linux x86_64,29.94011976,,,,,,,,,,,,,,158,babrá,,,,,,140.6294,142.6464,0,1,1.4849,,0,29,29,157,1,pseudoword,0,REAL,FALSA
,,,,,,,,,5e5832478c2b6f03f9acd234,001,2025-05-20_14h04.27.192,empathy_intonation_perc,2024.1.4,Linux x86_64,29.94011976,,,,,,,,,,,,,,36,viable,,,,,,142.647,143.9988,1,0,0.8013,,0,30,30,35,1,two_way_cognate,1,REAL,FALSA
,,,,,,,,,5e5832478c2b6f03f9acd234,001,2025-05-20_14h04.27.192,empathy_intonation_perc,2024.1.4,Linux x86_64,29.94011976,,,,,,,,,,,,,,162,cengo,,,,,,143.9995,145.7072,0,1,1.1682,,0,31,31,161,1,pseudoword,0,REAL,FALSA
,,,,,,,,,5e5832478c2b6f03f9acd234,001,2025-05-20_14h04.27.192,empathy_intonation_perc,2024.1.4,Linux x86_64,29.94011976,,,,,,,,,,,,,,40,pelvis,,,,,,145.7078,147.9751,1,0,1.7236,,0,32,32,39,1,two_way_cognate,1,REAL,FALSA
,,,,,,,,,5e5832478c2b6f03f9acd234,001,2025-05-20_14h04.27.192,empathy_intonation_perc,2024.1.4,Linux x86_64,29.94011976,,,,,,,,,,,,,,145,rúo,,,,,,147.9757,150.514,1,0,2.0007,,0,33,33,144,1,pseudoword,0,REAL,FALSA
,,,,,,,,,5e5832478c2b6f03f9acd234,001,2025-05-20_14h04.27.192,empathy_intonation_perc,2024.1.4,Linux x86_64,29.94011976,,,,,,,,,,,,,,130,dubo,,,,,,150.5147,151.8799,0,1,0.8105,,0,34,34,129,1,pseudoword,0,REAL,FALSA
,,,,,,,,,5e5832478c2b6f03f9acd234,001,2025-05-20_14h04.27.192,empathy_intonation_perc,2024.1.4,Linux x86_64,29.94011976,,,,,,,,,,,,,,142,parre,,,,,,151.8807,153.8132,1,0,1.3702,,0,35,35,141,1,pseudoword,0,REAL,FALSA
,,,,,,,,,5e5832478c2b6f03f9acd234,001,2025-05-20_14h04.27.192,empathy_intonation_perc,2024.1.4,Linux x86_64,29.94011976,,,,,,,,,,,,,,187,nomata,,,,,,153.8152,155.8153,0,1,1.4454,,0,36,36,186,1,pseudoword,0,REAL,FALSA
,,,,,,,,,5e5832478c2b6f03f9acd234,001,2025-05-20_14h04.27.192,empathy_intonation_perc,2024.1.4,Linux x86_64,29.94011976,,,,,,,,,,,,,,92,flecha,,,,,,155.8163,157.2446,1,0,0.8712,,0,37,37,91,1,non_cognate,1,REAL,FALSA
,,,,,,,,,5e5832478c2b6f03f9acd234,001,2025-05-20_14h04.27.192,empathy_intonation_perc,2024.1.4,Linux x86_64,29.94011976,,,,,,,,,,,,,,76,chocar,,,,,,157.2463,159.0666,1,0,1.2527,,0,38,38,75,1,non_cognate,1,REAL,FALSA
,,,,,,,,,5e5832478c2b6f03f9acd234,001,2025-05-20_14h04.27.192,empathy_intonation_perc,2024.1.4,Linux x86_64,29.94011976,,,,,,,,,,,,,,164,tecia,,,,,,159.0689,160.4449,0,1,0.824,,0,39,39,163,1,pseudoword,0,REAL,FALSA
,,,,,,,,,5e5832478c2b6f03f9acd234,001,2025-05-20_14h04.27.192,empathy_intonation_perc,2024.1.4,Linux x86_64,29.94011976,,,,,,,,,,,,,,98,martir,,,,,,160.4457,162.3958,0,1,1.4153,,0,40,40,97,1,pseudoword,0,REAL,FALSA
,,,,,,,,,5e5832478c2b6f03f9acd234,001,2025-05-20_14h04.27.192,empathy_intonation_perc,2024.1.4,Linux x86_64,29.94011976,,,,,,,,,,,,,,168,cobén,,,,,,162.3976,164.3472,0,1,1.4041,,0,41,41,167,1,pseudoword,0,REAL,FALSA
,,,,,,,,,5e5832478c2b6f03f9acd234,001,2025-05-20_14h04.27.192,empathy_intonation_perc,2024.1.4,Linux x86_64,29.94011976,,,,,,,,,,,,,,143,hurcos,,,,,,164.348,165.9158,0,1,1.0015,,0,42,42,142,1,pseudoword,0,REAL,FALSA
,,,,,,,,,5e5832478c2b6f03f9acd234,001,2025-05-20_14h04.27.192,empathy_intonation_perc,2024.1.4,Linux x86_64,29.94011976,,,,,,,,,,,,,,37,torso,,,,,,165.9167,167.1009,1,0,0.6265,,0,43,43,36,1,two_way_cognate,1,REAL,FALSA
,,,,,,,,,5e5832478c2b6f03f9acd234,001,2025-05-20_14h04.27.192,empathy_intonation_perc,2024.1.4,Linux x86_64,29.94011976,,,,,,,,,,,,,,186,rizate,,,,,,167.1027,168.6829,1,0,1.007,,0,44,44,185,1,pseudoword,0,REAL,FALSA
,,,,,,,,,5e5832478c2b6f03f9acd234,001,2025-05-20_14h04.27.192,empathy_intonation_perc,2024.1.4,Linux x86_64,29.94011976,,,,,,,,,,,,,,151,prías,,,,,,168.6843,170.0901,1,0,0.8329,,0,45,45,150,1,pseudoword,0,REAL,FALSA
,,,,,,,,,5e5832478c2b6f03f9acd234,001,2025-05-20_14h04.27.192,empathy_intonation_perc,2024.1.4,Linux x86_64,29.94011976,,,,,,,,,,,,,,119,esís,,,,,,170.0916,171.6112,0,1,0.9624,,0,46,46,118,1,pseudoword,0,REAL,FALSA
,,,,,,,,,5e5832478c2b6f03f9acd234,001,2025-05-20_14h04.27.192,empathy_intonation_perc,2024.1.4,Linux x86_64,29.94011976,,,,,,,,,,,,,,74,ala,,,,,,171.6144,173.1523,0,1,0.9643,0.0044,0,47,47,73,1,non_cognate,1,REAL,FALSA
,,,,,,,,,5e5832478c2b6f03f9acd234,001,2025-05-20_14h04.27.192,empathy_intonation_perc,2024.1.4,Linux x86_64,29.94011976,,,,,,,,,,,,,,75,patada,,,,,,173.154,175.3557,0,1,1.6324,,0,48,48,74,1,non_cognate,1,REAL,FALSA
,,,,,,,,,5e5832478c2b6f03f9acd234,001,2025-05-20_14h04.27.192,empathy_intonation_perc,2024.1.4,Linux x86_64,29.94011976,,,,,,,,,,,,,,165,chote,,,,,,175.3567,177.4823,0,1,1.3854,0.0101,0,49,49,164,1,pseudoword,0,REAL,FALSA
,,,,,,,,,5e5832478c2b6f03f9acd234,001,2025-05-20_14h04.27.192,empathy_intonation_perc,2024.1.4,Linux x86_64,29.94011976,,,,,,,,,,,,,,6,horror,,,,,,177.5105,181.2133,1,0,3.0175,,0,50,50,5,1,three_way_cognate,1,REAL,FALSA
,,,,,,,,,5e5832478c2b6f03f9acd234,001,2025-05-20_14h04.27.192,empathy_intonation_perc,2024.1.4,Linux x86_64,29.94011976,,,,,,,,,,,,,,33,collar,,,,,,181.2174,183.0858,1,0,1.2793,,0,51,51,32,1,two_way_cognate,1,REAL,FALSA
,,,,,,,,,5e5832478c2b6f03f9acd234,001,2025-05-20_14h04.27.192,empathy_intonation_perc,2024.1.4,Linux x86_64,29.94011976,,,,,,,,,,,,,,22,mango,,,,,,183.0905,184.8606,1,0,1.1814,,0,52,52,21,1,three_way_cognate,1,REAL,FALSA
,,,,,,,,,5e5832478c2b6f03f9acd234,001,2025-05-20_14h04.27.192,empathy_intonation_perc,2024.1.4,Linux x86_64,29.94011976,,,,,,,,,,,,,,172,dogue,,,,,,184.8634,186.6439,0,1,1.099,,0,53,53,171,1,pseudoword,0,REAL,FALSA
,,,,,,,,,5e5832478c2b6f03f9acd234,001,2025-05-20_14h04.27.192,empathy_intonation_perc,2024.1.4,Linux x86_64,29.94011976,,,,,,,,,,,,,,136,hueas,,,,,,186.6472,188.9826,0,1,1.6742,,0,54,54,135,1,pseudoword,0,REAL,FALSA
,,,,,,,,,5e5832478c2b6f03f9acd234,001,2025-05-20_14h04.27.192,empathy_intonation_perc,2024.1.4,Linux x86_64,29.94011976,,,,,,,,,,,,,,147,alla,,,,,,188.9835,190.2923,1,0,0.7559,,0,55,55,146,1,pseudoword,0,REAL,FALSA
,,,,,,,,,5e5832478c2b6f03f9acd234,001,2025-05-20_14h04.27.192,empathy_intonation_perc,2024.1.4,Linux x86_64,29.94011976,,,,,,,,,,,,,,173,mibro,,,,,,190.2928,192.035,0,1,1.2005,,0,56,56,172,1,pseudoword,0,REAL,FALSA
,,,,,,,,,5e5832478c2b6f03f9acd234,001,2025-05-20_14h04.27.192,empathy_intonation_perc,2024.1.4,Linux x86_64,29.94011976,,,,,,,,,,,,,,101,losco,,,,,,192.0361,193.6517,1,0,1.0743,,0,57,57,100,1,pseudoword,0,REAL,FALSA
,,,,,,,,,5e5832478c2b6f03f9acd234,001,2025-05-20_14h04.27.192,empathy_intonation_perc,2024.1.4,Linux x86_64,29.94011976,,,,,,,,,,,,,,129,vinzó,,,,,,193.6526,195.5516,1,0,1.3554,,0,58,58,128,1,pseudoword,0,REAL,FALSA
,,,,,,,,,5e5832478c2b6f03f9acd234,001,2025-05-20_14h04.27.192,empathy_intonation_perc,2024.1.4,Linux x86_64,29.94011976,,,,,,,,,,,,,,90,venado,,,,,,195.5538,196.8955,1,0,0.8042,,0,59,59,89,1,non_cognate,1,REAL,FALSA
,,,,,,,,,5e5832478c2b6f03f9acd234,001,2025-05-20_14h04.27.192,empathy_intonation_perc,2024.1.4,Linux x86_64,29.94011976,,,,,,,,,,,,,,124,lobe,,,,,,196.8963,198.1735,0,1,0.7235,,0,60,60,123,1,pseudoword,0,REAL,FALSA
,,,,,,,,,5e5832478c2b6f03f9acd234,001,2025-05-20_14h04.27.192,empathy_intonation_perc,2024.1.4,Linux x86_64,29.94011976,,,,,,,,,,,,,,123,arane,,,,,,198.1744,199.7117,0,1,1.0104,,0,61,61,122,1,pseudoword,0,REAL,FALSA
,,,,,,,,,5e5832478c2b6f03f9acd234,001,2025-05-20_14h04.27.192,empathy_intonation_perc,2024.1.4,Linux x86_64,29.94011976,,,,,,,,,,,,,,54,tapón,,,,,,199.7123,201.3254,1,0,1.0727,,0,62,62,53,1,non_cognate,1,REAL,FALSA
,,,,,,,,,5e5832478c2b6f03f9acd234,001,2025-05-20_14h04.27.192,empathy_intonation_perc,2024.1.4,Linux x86_64,29.94011976,,,,,,,,,,,,,,12,dogma,,,,,,201.3258,202.7639,0,1,0.886,,0,63,63,11,1,three_way_cognate,1,REAL,FALSA
,,,,,,,,,5e5832478c2b6f03f9acd234,001,2025-05-20_14h04.27.192,empathy_intonation_perc,2024.1.4,Linux x86_64,29.94011976,,,,,,,,,,,,,,93,tapa,,,,,,202.7646,204.1686,1,0,0.8576,,0,64,64,92,1,non_cognate,1,REAL,FALSA
,,,,,,,,,5e5832478c2b6f03f9acd234,001,2025-05-20_14h04.27.192,empathy_intonation_perc,2024.1.4,Linux x86_64,29.94011976,,,,,,,,,,,,,,184,huenos,,,,,,204.1694,205.6967,0,1,1.0061,,0,65,65,183,1,pseudoword,0,REAL,FALSA
,,,,,,,,,5e5832478c2b6f03f9acd234,001,2025-05-20_14h04.27.192,empathy_intonation_perc,2024.1.4,Linux x86_64,29.94011976,,,,,,,,,,,,,,107,plago,,,,,,205.6981,206.9906,1,0,0.7269,,0,66,66,106,1,pseudoword,0,REAL,FALSA
,,,,,,,,,5e5832478c2b6f03f9acd234,001,2025-05-20_14h04.27.192,empathy_intonation_perc,2024.1.4,Linux x86_64,29.94011976,,,,,,,,,,,,,,28,ardor,,,,,,206.9913,209.4155,0,1,1.8812,,0,67,67,27,1,two_way_cognate,1,REAL,FALSA
,,,,,,,,,5e5832478c2b6f03f9acd234,001,2025-05-20_14h04.27.192,empathy_intonation_perc,2024.1.4,Linux x86_64,29.94011976,,,,,,,,,,,,,,2,tumor,,,,,,209.4169,211.0889,1,0,1.1174,,0,68,68,1,1,three_way_cognate,1,REAL,FALSA
,,,,,,,,,5e5832478c2b6f03f9acd234,001,2025-05-20_14h04.27.192,empathy_intonation_perc,2024.1.4,Linux x86_64,29.94011976,,,,,,,,,,,,,,100,épinas,,,,,,211.0896,212.7599,1,0,1.1278,,0,69,69,99,1,pseudoword,0,REAL,FALSA
,,,,,,,,,5e5832478c2b6f03f9acd234,001,2025-05-20_14h04.27.192,empathy_intonation_perc,2024.1.4,Linux x86_64,29.94011976,,,,,,,,,,,,,,14,aura,,,,,,212.7608,214.7137,1,0,1.4134,,0,70,70,13,1,three_way_cognate,1,REAL,FALSA
,,,,,,,,,5e5832478c2b6f03f9acd234,001,2025-05-20_14h04.27.192,empathy_intonation_perc,2024.1.4,Linux x86_64,29.94011976,,,,,,,,,,,,,,156,ozoso,,,,,,214.714,216.0943,0,1,0.795,,0,71,71,155,1,pseudoword,0,REAL,FALSA
,,,,,,,,,5e5832478c2b6f03f9acd234,001,2025-05-20_14h04.27.192,empathy_intonation_perc,2024.1.4,Linux x86_64,29.94011976,,,,,,,,,,,,,,42,rumor,,,,,,216.0949,218.6026,1,0,1.9503,,0,72,72,41,1,two_way_cognate,1,REAL,FALSA
,,,,,,,,,5e5832478c2b6f03f9acd234,001,2025-05-20_14h04.27.192,empathy_intonation_perc,2024.1.4,Linux x86_64,29.94011976,,,,,,,,,,,,,,84,aviso,,,,,,218.6031,220.4799,1,0,1.3304,,0,73,73,83,1,non_cognate,1,REAL,FALSA
,,,,,,,,,5e5832478c2b6f03f9acd234,001,2025-05-20_14h04.27.192,empathy_intonation_perc,2024.1.4,Linux x86_64,29.94011976,,,,,,,,,,,,,,192,próces,,,,,,220.4808,221.9157,1,0,0.8965,,0,74,74,191,1,pseudoword,0,REAL,FALSA
,,,,,,,,,5e5832478c2b6f03f9acd234,001,2025-05-20_14h04.27.192,empathy_intonation_perc,2024.1.4,Linux x86_64,29.94011976,,,,,,,,,,,,,,61,aduana,,,,,,221.9165,223.4616,0,1,0.9607,,0,75,75,60,1,non_cognate,1,REAL,FALSA
,,,,,,,,,5e5832478c2b6f03f9acd234,001,2025-05-20_14h04.27.192,empathy_intonation_perc,2024.1.4,Linux x86_64,29.94011976,,,,,,,,,,,,,,103,vueras,,,,,,223.4626,225.6129,0,1,1.5892,,0,76,76,102,1,pseudoword,0,REAL,FALSA
,,,,,,,,,5e5832478c2b6f03f9acd234,001,2025-05-20_14h04.27.192,empathy_intonation_perc,2024.1.4,Linux x86_64,29.94011976,,,,,,,,,,,,,,60,siglo,,,,,,225.6135,227.007,0,1,0.8454,,0,77,77,59,1,non_cognate,1,REAL,FALSA
,,,,,,,,,5e5832478c2b6f03f9acd234,001,2025-05-20_14h04.27.192,empathy_intonation_perc,2024.1.4,Linux x86_64,29.94011976,,,,,,,,,,,,,,125,ceme,,,,,,227.0103,228.4587,0,1,0.83,0.0409,0,78,78,124,1,pseudoword,0,REAL,FALSA
,,,,,,,,,5e5832478c2b6f03f9acd234,001,2025-05-20_14h04.27.192,empathy_intonation_perc,2024.1.4,Linux x86_64,29.94011976,,,,,,,,,,,,,,120,mauja,,,,,,228.4942,230.3233,0,1,1.1052,,0,79,79,119,1,pseudoword,0,REAL,FALSA
,,,,,,,,,5e5832478c2b6f03f9acd234,001,2025-05-20_14h04.27.192,empathy_intonation_perc,2024.1.4,Linux x86_64,29.94011976,,,,,,,,,,,,,,18,altar,,,,,,230.3623,232.1371,1,0,1.1131,0.0286,0,80,80,17,1,three_way_cognate,1,REAL,FALSA
,,,,,,,,,5e5832478c2b6f03f9acd234,001,2025-05-20_14h04.27.192,empathy_intonation_perc,2024.1.4,Linux x86_64,29.94011976,,,,,,,,,,,,,,19,mafia,,,,,,232.1403,234.0133,1,0,1.206,,0,81,81,18,1,three_way_cognate,1,REAL,FALSA
,,,,,,,,,5e5832478c2b6f03f9acd234,001,2025-05-20_14h04.27.192,empathy_intonation_perc,2024.1.4,Linux x86_64,29.94011976,,,,,,,,,,,,,,3,disco,,,,,,234.0159,235.8529,1,0,1.1818,0.0089,0,82,82,2,1,three_way_cognate,1,REAL,FALSA
,,,,,,,,,5e5832478c2b6f03f9acd234,001,2025-05-20_14h04.27.192,empathy_intonation_perc,2024.1.4,Linux x86_64,29.94011976,,,,,,,,,,,,,,152,prave,,,,,,235.8975,237.3141,0,1,0.863,,0,83,83,151,1,pseudoword,0,REAL,FALSA
,,,,,,,,,5e5832478c2b6f03f9acd234,001,2025-05-20_14h04.27.192,empathy_intonation_perc,2024.1.4,Linux x86_64,29.94011976,,,,,,,,,,,,,,50,sierra,,,,,,237.3146,238.5923,1,0,0.7422,,0,84,84,49,1,non_cognate,1,REAL,FALSA
,,,,,,,,,5e5832478c2b6f03f9acd234,001,2025-05-20_14h04.27.192,empathy_intonation_perc,2024.1.4,Linux x86_64,29.94011976,,,,,,,,,,,,,,94,forro,,,,,,238.5933,239.9465,0,1,0.7986,,0,85,85,93,1,non_cognate,1,REAL,FALSA
,,,,,,,,,5e5832478c2b6f03f9acd234,001,2025-05-20_14h04.27.192,empathy_intonation_perc,2024.1.4,Linux x86_64,29.94011976,,,,,,,,,,,,,,77,suave,,,,,,239.95,241.2999,0,1,0.795,,0,86,86,76,1,non_cognate,1,REAL,FALSA
,,,,,,,,,5e5832478c2b6f03f9acd234,001,2025-05-20_14h04.27.192,empathy_intonation_perc,2024.1.4,Linux x86_64,29.94011976,,,,,,,,,,,,,,188,amplir,,,,,,241.3014,244.2344,0,1,2.401,,0,87,87,187,1,pseudoword,0,REAL,FALSA
,,,,,,,,,5e5832478c2b6f03f9acd234,001,2025-05-20_14h04.27.192,empathy_intonation_perc,2024.1.4,Linux x86_64,29.94011976,,,,,,,,,,,,,,178,inichó,,,,,,244.2354,246.1225,1,0,1.3311,,0,88,88,177,1,pseudoword,0,REAL,FALSA
,,,,,,,,,5e5832478c2b6f03f9acd234,001,2025-05-20_14h04.27.192,empathy_intonation_perc,2024.1.4,Linux x86_64,29.94011976,,,,,,,,,,,,,,150,cricó,,,,,,246.1234,247.5043,0,1,0.8282,,0,89,89,149,1,pseudoword,0,REAL,FALSA
,,,,,,,,,5e5832478c2b6f03f9acd234,001,2025-05-20_14h04.27.192,empathy_intonation_perc,2024.1.4,Linux x86_64,29.94011976,,,,,,,,,,,,,,141,virios,,,,,,247.5048,249.0302,0,1,0.9845,,0,90,90,140,1,pseudoword,0,REAL,FALSA
,,,,,,,,,5e5832478c2b6f03f9acd234,001,2025-05-20_14h04.27.192,empathy_intonation_perc,2024.1.4,Linux x86_64,29.94011976,,,,,,,,,,,,,,73,llevar,,,,,,249.0313,250.8799,1,0,1.3185,,0,91,91,72,1,non_cognate,1,REAL,FALSA
,,,,,,,,,5e5832478c2b6f03f9acd234,001,2025-05-20_14h04.27.192,empathy_intonation_perc,2024.1.4,Linux x86_64,29.94011976,,,,,,,,,,,,,,27,piano,,,,,,250.881,252.8172,1,0,1.387,,0,92,92,26,1,two_way_cognate,1,REAL,FALSA
,,,,,,,,,5e5832478c2b6f03f9acd234,001,2025-05-20_14h04.27.192,empathy_intonation_perc,2024.1.4,Linux x86_64,29.94011976,,,,,,,,,,,,,,78,rendir,,,,,,252.8177,255.0337,0,1,1.6624,,0,93,93,77,1,non_cognate,1,REAL,FALSA
,,,,,,,,,5e5832478c2b6f03f9acd234,001,2025-05-20_14h04.27.192,empathy_intonation_perc,2024.1.4,Linux x86_64,29.94011976,,,,,,,,,,,,,,38,halo,,,,,,255.0343,257.9461,1,0,2.3668,,0,94,94,37,1,two_way_cognate,1,REAL,FALSA
,,,,,,,,,5e5832478c2b6f03f9acd234,001,2025-05-20_14h04.27.192,empathy_intonation_perc,2024.1.4,Linux x86_64,29.94011976,,,,,,,,,,,,,,65,guerra,,,,,,257.9472,259.1617,1,0,0.68,,0,95,95,64,1,non_cognate,1,REAL,FALSA
,,,,,,,,,5e5832478c2b6f03f9acd234,001,2025-05-20_14h04.27.192,empathy_intonation_perc,2024.1.4,Linux x86_64,29.94011976,,,,,,,,,,,,,,99,bugor,,,,,,259.1625,260.647,0,1,0.9303,,0,96,96,98,1,pseudoword,0,REAL,FALSA
,,,,,,,,,5e5832478c2b6f03f9acd234,001,2025-05-20_14h04.27.192,empathy_intonation_perc,2024.1.4,Linux x86_64,29.94011976,,,,,,,,,,,,,,131,fuar,,,,,,260.6477,261.8636,0,1,0.6656,,0,97,97,130,1,pseudoword,0,REAL,FALSA
,,,,,,,,,5e5832478c2b6f03f9acd234,001,2025-05-20_14h04.27.192,empathy_intonation_perc,2024.1.4,Linux x86_64,29.94011976,,,,,,,,,,,,,,87,muleta,,,,,,261.8646,263.3118,1,0,0.8817,,0,98,98,86,1,non_cognate,1,REAL,FALSA
,,,,,,,,,5e5832478c2b6f03f9acd234,001,2025-05-20_14h04.27.192,empathy_intonation_perc,2024.1.4,Linux x86_64,29.94011976,,,,,,,,,,,,,,81,sacar,,,,,,263.3134,264.6719,0,1,0.8353,,0,99,99,80,1,non_cognate,1,REAL,FALSA
,,,,,,,,,5e5832478c2b6f03f9acd234,001,2025-05-20_14h04.27.192,empathy_intonation_perc,2024.1.4,Linux x86_64,29.94011976,,,,,,,,,,,,,,57,regalo,,,,,,264.6726,266.1603,1,0,0.922,,0,100,100,56,1,non_cognate,1,REAL,FALSA
,,,,,,,,,5e5832478c2b6f03f9acd234,001,2025-05-20_14h04.27.192,empathy_intonation_perc,2024.1.4,Linux x86_64,29.94011976,,,,,,,,,,,,,,95,listo,,,,,,266.161,267.626,1,0,0.8827,,0,101,101,94,1,non_cognate,1,REAL,FALSA
,,,,,,,,,5e5832478c2b6f03f9acd234,001,2025-05-20_14h04.27.192,empathy_intonation_perc,2024.1.4,Linux x86_64,29.94011976,,,,,,,,,,,,,,174,pabea,,,,,,267.6268,269.0981,0,1,0.9443,,0,102,102,173,1,pseudoword,0,REAL,FALSA
,,,,,,,,,5e5832478c2b6f03f9acd234,001,2025-05-20_14h04.27.192,empathy_intonation_perc,2024.1.4,Linux x86_64,29.94011976,,,,,,,,,,,,,,20,trauma,,,,,,269.1001,270.632,1,0,0.9337,,0,103,103,19,1,three_way_cognate,1,REAL,FALSA
,,,,,,,,,5e5832478c2b6f03f9acd234,001,2025-05-20_14h04.27.192,empathy_intonation_perc,2024.1.4,Linux x86_64,29.94011976,,,,,,,,,,,,,,46,mortal,,,,,,270.6329,272.3221,1,0,1.1348,,0,104,104,45,1,two_way_cognate,1,REAL,FALSA
,,,,,,,,,5e5832478c2b6f03f9acd234,001,2025-05-20_14h04.27.192,empathy_intonation_perc,2024.1.4,Linux x86_64,29.94011976,,,,,,,,,,,,,,110,densó,,,,,,272.3239,273.964,1,0,1.1017,,0,105,105,109,1,pseudoword,0,REAL,FALSA
,,,,,,,,,5e5832478c2b6f03f9acd234,001,2025-05-20_14h04.27.192,empathy_intonation_perc,2024.1.4,Linux x86_64,29.94011976,,,,,,,,,,,,,,113,nasce,,,,,,273.9652,275.2101,0,1,0.6665,,0,106,106,112,1,pseudoword,0,REAL,FALSA
,,,,,,,,,5e5832478c2b6f03f9acd234,001,2025-05-20_14h04.27.192,empathy_intonation_perc,2024.1.4,Linux x86_64,29.94011976,,,,,,,,,,,,,,190,asumie,,,,,,275.2118,276.9282,0,1,1.1466,,0,107,107,189,1,pseudoword,0,REAL,FALSA
,,,,,,,,,5e5832478c2b6f03f9acd234,001,2025-05-20_14h04.27.192,empathy_intonation_perc,2024.1.4,Linux x86_64,29.94011976,,,,,,,,,,,,,,112,samón,,,,,,276.9296,278.5983,0,1,1.0767,,0,108,108,111,1,pseudoword,0,REAL,FALSA
,,,,,,,,,5e5832478c2b6f03f9acd234,001,2025-05-20_14h04.27.192,empathy_intonation_perc,2024.1.4,Linux x86_64,29.94011976,,,,,,,,,,,,,,106,diebro,,,,,,278.6027,280.0487,1,0,0.8717,,0,109,109,105,1,pseudoword,0,REAL,FALSA
,,,,,,,,,5e5832478c2b6f03f9acd234,001,2025-05-20_14h04.27.192,empathy_intonation_perc,2024.1.4,Linux x86_64,29.94011976,,,,,,,,,,,,,,126,tobre,,,,,,280.0491,281.8725,0,1,1.2527,,0,110,110,125,1,pseudoword,0,REAL,FALSA
,,,,,,,,,5e5832478c2b6f03f9acd234,001,2025-05-20_14h04.27.192,empathy_intonation_perc,2024.1.4,Linux x86_64,29.94011976,,,,,,,,,,,,,,144,diroco,,,,,,281.873,283.2598,0,1,0.7941,,0,111,111,143,1,pseudoword,0,REAL,FALSA
,,,,,,,,,5e5832478c2b6f03f9acd234,001,2025-05-20_14h04.27.192,empathy_intonation_perc,2024.1.4,Linux x86_64,29.94011976,,,,,,,,,,,,,,49,teñir,,,,,,283.2608,284.9137,1,0,1.027,,0,112,112,48,1,non_cognate,1,REAL,FALSA
,,,,,,,,,5e5832478c2b6f03f9acd234,001,2025-05-20_14h04.27.192,empathy_intonation_perc,2024.1.4,Linux x86_64,29.94011976,,,,,,,,,,,,,,68,puñal,,,,,,284.9407,286.7751,1,0,1.2131,,0,113,113,67,1,non_cognate,1,REAL,FALSA
,,,,,,,,,5e5832478c2b6f03f9acd234,001,2025-05-20_14h04.27.192,empathy_intonation_perc,2024.1.4,Linux x86_64,29.94011976,,,,,,,,,,,,,,155,kugis,,,,,,286.7769,288.0757,0,1,0.6852,,0,114,114,154,1,pseudoword,0,REAL,FALSA
,,,,,,,,,5e5832478c2b6f03f9acd234,001,2025-05-20_14h04.27.192,empathy_intonation_perc,2024.1.4,Linux x86_64,29.94011976,,,,,,,,,,,,,,47,color,,,,,,288.077,289.3709,1,0,0.7198,0.0064,0,115,115,46,1,two_way_cognate,1,REAL,FALSA
,,,,,,,,,5e5832478c2b6f03f9acd234,001,2025-05-20_14h04.27.192,empathy_intonation_perc,2024.1.4,Linux x86_64,29.94011976,,,,,,,,,,,,,,181,gravés,,,,,,289.3996,291.3873,1,0,1.4485,,0,116,116,180,1,pseudoword,0,REAL,FALSA
,,,,,,,,,5e5832478c2b6f03f9acd234,001,2025-05-20_14h04.27.192,empathy_intonation_perc,2024.1.4,Linux x86_64,29.94011976,,,,,,,,,,,,,,191,frasis,,,,,,291.4154,292.778,0,1,0.7752,,0,117,117,190,1,pseudoword,0,REAL,FALSA
,,,,,,,,,5e5832478c2b6f03f9acd234,001,2025-05-20_14h04.27.192,empathy_intonation_perc,2024.1.4,Linux x86_64,29.94011976,,,,,,,,,,,,,,189,medium,,,,,,292.8116,294.4027,1,0,0.9522,,0,118,118,188,1,pseudoword,0,REAL,FALSA
,,,,,,,,,5e5832478c2b6f03f9acd234,001,2025-05-20_14h04.27.192,empathy_intonation_perc,2024.1.4,Linux x86_64,29.94011976,,,,,,,,,,,,,,41,pasta,,,,,,294.4032,295.739,1,0,0.7592,,0,119,119,40,1,two_way_cognate,1,REAL,FALSA
,,,,,,,,,5e5832478c2b6f03f9acd234,001,2025-05-20_14h04.27.192,empathy_intonation_perc,2024.1.4,Linux x86_64,29.94011976,,,,,,,,,,,,,,140,chorde,,,,,,295.7398,297.1804,0,1,0.8283,,0,120,120,139,1,pseudoword,0,REAL,FALSA
,,,,,,,,,5e5832478c2b6f03f9acd234,001,2025-05-20_14h04.27.192,empathy_intonation_perc,2024.1.4,Linux x86_64,29.94011976,,,,,,,,,,,,,,35,aurora,,,,,,297.1814,299.104,1,0,1.2992,,0,121,121,34,1,two_way_cognate,1,REAL,FALSA
,,,,,,,,,5e5832478c2b6f03f9acd234,001,2025-05-20_14h04.27.192,empathy_intonation_perc,2024.1.4,Linux x86_64,29.94011976,,,,,,,,,,,,,,135,panté,,,,,,299.1059,300.6806,0,1,0.9771,,0,122,122,134,1,pseudoword,0,REAL,FALSA
,,,,,,,,,5e5832478c2b6f03f9acd234,001,2025-05-20_14h04.27.192,empathy_intonation_perc,2024.1.4,Linux x86_64,29.94011976,,,,,,,,,,,,,,148,gino,,,,,,300.6823,302.3612,0,1,1.0998,,0,123,123,147,1,pseudoword,0,REAL,FALSA
,,,,,,,,,5e5832478c2b6f03f9acd234,001,2025-05-20_14h04.27.192,empathy_intonation_perc,2024.1.4,Linux x86_64,29.94011976,,,,,,,,,,,,,,139,sasos,,,,,,302.3622,303.9092,0,1,0.9439,,0,124,124,138,1,pseudoword,0,REAL,FALSA
,,,,,,,,,5e5832478c2b6f03f9acd234,001,2025-05-20_14h04.27.192,empathy_intonation_perc,2024.1.4,Linux x86_64,29.94011976,,,,,,,,,,,,,,1,moral,,,,,,303.9109,305.4418,1,0,0.9593,,0,125,125,0,1,three_way_cognate,1,REAL,FALSA
,,,,,,,,,5e5832478c2b6f03f9acd234,001,2025-05-20_14h04.27.192,empathy_intonation_perc,2024.1.4,Linux x86_64,29.94011976,,,,,,,,,,,,,,66,aleta,,,,,,305.447,307.076,1,0,1.0492,,0,126,126,65,1,non_cognate,1,REAL,FALSA
,,,,,,,,,5e5832478c2b6f03f9acd234,001,2025-05-20_14h04.27.192,empathy_intonation_perc,2024.1.4,Linux x86_64,29.94011976,,,,,,,,,,,,,,56,pico,,,,,,307.0773,308.5547,1,0,0.8363,,0,127,127,55,1,non_cognate,1,REAL,FALSA
,,,,,,,,,5e5832478c2b6f03f9acd234,001,2025-05-20_14h04.27.192,empathy_intonation_perc,2024.1.4,Linux x86_64,29.94011976,,,,,,,,,,,,,,154,harvé,,,,,,308.556,309.7662,0,1,0.6261,,0,128,128,153,1,pseudoword,0,REAL,FALSA
,,,,,,,,,5e5832478c2b6f03f9acd234,001,2025-05-20_14h04.27.192,empathy_intonation_perc,2024.1.4,Linux x86_64,29.94011976,,,,,,,,,,,,,,59,feo,,,,,,309.7717,311.2012,0,1,0.8063,,0,129,129,58,1,non_cognate,1,REAL,FALSA
,,,,,,,,,5e5832478c2b6f03f9acd234,001,2025-05-20_14h04.27.192,empathy_intonation_perc,2024.1.4,Linux x86_64,29.94011976,,,,,,,,,,,,,,30,fiscal,,,,,,311.2032,313.0836,1,0,1.2908,,0,130,130,29,1,two_way_cognate,1,REAL,FALSA
,,,,,,,,,5e5832478c2b6f03f9acd234,001,2025-05-20_14h04.27.192,empathy_intonation_perc,2024.1.4,Linux x86_64,29.94011976,,,,,,,,,,,,,,7,albino,,,,,,313.1217,314.9387,1,0,1.1523,,0,131,131,6,1,three_way_cognate,1,REAL,FALSA
,,,,,,,,,5e5832478c2b6f03f9acd234,001,2025-05-20_14h04.27.192,empathy_intonation_perc,2024.1.4,Linux x86_64,29.94011976,,,,,,,,,,,,,,128,pelí,,,,,,314.9427,316.4409,0,1,0.9023,,0,132,132,127,1,pseudoword,0,REAL,FALSA
,,,,,,,,,5e5832478c2b6f03f9acd234,001,2025-05-20_14h04.27.192,empathy_intonation_perc,2024.1.4,Linux x86_64,29.94011976,,,,,,,,,,,,,,8,kilo,,,,,,316.471,318.2978,1,0,1.2084,,0,133,133,7,1,three_way_cognate,1,REAL,FALSA
,,,,,,,,,5e5832478c2b6f03f9acd234,001,2025-05-20_14h04.27.192,empathy_intonation_perc,2024.1.4,Linux x86_64,29.94011976,,,,,,,,,,,,,,182,desaro,,,,,,318.3109,319.9841,0,1,1.0058,,0,134,134,181,1,pseudoword,0,REAL,FALSA
,,,,,,,,,5e5832478c2b6f03f9acd234,001,2025-05-20_14h04.27.192,empathy_intonation_perc,2024.1.4,Linux x86_64,29.94011976,,,,,,,,,,,,,,31,civil,,,,,,319.9854,321.5803,1,0,0.9635,,0,135,135,30,1,two_way_cognate,1,REAL,FALSA
,,,,,,,,,5e5832478c2b6f03f9acd234,001,2025-05-20_14h04.27.192,empathy_intonation_perc,2024.1.4,Linux x86_64,29.94011976,,,,,,,,,,,,,,4,flora,,,,,,321.6108,323.3885,1,0,1.1035,0.0134,0,136,136,3,1,three_way_cognate,1,REAL,FALSA
,,,,,,,,,5e5832478c2b6f03f9acd234,001,2025-05-20_14h04.27.192,empathy_intonation_perc,2024.1.4,Linux x86_64,29.94011976,,,,,,,,,,,,,,180,pupica,,,,,,323.3911,325.3032,0,1,1.1865,,0,137,137,179,1,pseudoword,0,REAL,FALSA
,,,,,,,,,5e5832478c2b6f03f9acd234,001,2025-05-20_14h04.27.192,empathy_intonation_perc,2024.1.4,Linux x86_64,29.94011976,,,,,,,,,,,,,,85,enorme,,,,,,325.3214,327.2295,1,0,1.2665,,0,138,138,84,1,non_cognate,1,REAL,FALSA
,,,,,,,,,5e5832478c2b6f03f9acd234,001,2025-05-20_14h04.27.192,empathy_intonation_perc,2024.1.4,Linux x86_64,29.94011976,,,,,,,,,,,,,,179,suelet,,,,,,327.2356,328.5649,0,1,0.7423,,0,139,139,178,1,pseudoword,0,REAL,FALSA
,,,,,,,,,5e5832478c2b6f03f9acd234,001,2025-05-20_14h04.27.192,empathy_intonation_perc,2024.1.4,Linux x86_64,29.94011976,,,,,,,,,,,,,,115,lidena,,,,,,328.5655,329.8177,0,1,0.7042,,0,140,140,114,1,pseudoword,0,REAL,FALSA
,,,,,,,,,5e5832478c2b6f03f9acd234,001,2025-05-20_14h04.27.192,empathy_intonation_perc,2024.1.4,Linux x86_64,29.94011976,,,,,,,,,,,,,,121,barbs,,,,,,329.8189,331.0437,0,1,0.6772,,0,141,141,120,1,pseudoword,0,REAL,FALSA
,,,,,,,,,5e5832478c2b6f03f9acd234,001,2025-05-20_14h04.27.192,empathy_intonation_perc,2024.1.4,Linux x86_64,29.94011976,,,,,,,,,,,,,,82,brillo,,,,,,331.0443,332.5156,0,1,0.9316,,0,142,142,81,1,non_cognate,1,REAL,FALSA
,,,,,,,,,5e5832478c2b6f03f9acd234,001,2025-05-20_14h04.27.192,empathy_intonation_perc,2024.1.4,Linux x86_64,29.94011976,,,,,,,,,,,,,,122,boñaz,,,,,,332.5165,333.9503,0,1,0.8804,,0,143,143,121,1,pseudoword,0,REAL,FALSA
,,,,,,,,,5e5832478c2b6f03f9acd234,001,2025-05-20_14h04.27.192,empathy_intonation_perc,2024.1.4,Linux x86_64,29.94011976,,,,,,,,,,,,,,127,vien,,,,,,333.9516,335.4233,1,0,0.9328,,0,144,144,126,1,pseudoword,0,REAL,FALSA
,,,,,,,,,5e5832478c2b6f03f9acd234,001,2025-05-20_14h04.27.192,empathy_intonation_perc,2024.1.4,Linux x86_64,29.94011976,,,,,,,,,,,,,,89,muñeca,,,,,,335.424,337.0385,0,1,1.0645,,0,145,145,88,1,non_cognate,1,REAL,FALSA
,,,,,,,,,5e5832478c2b6f03f9acd234,001,2025-05-20_14h04.27.192,empathy_intonation_perc,2024.1.4,Linux x86_64,29.94011976,,,,,,,,,,,,,,10,drama,,,,,,337.0394,338.3503,1,0,0.779,,0,146,146,9,1,three_way_cognate,1,REAL,FALSA
,,,,,,,,,5e5832478c2b6f03f9acd234,001,2025-05-20_14h04.27.192,empathy_intonation_perc,2024.1.4,Linux x86_64,29.94011976,,,,,,,,,,,,,,32,animal,,,,,,338.3526,339.7012,1,0,0.8129,,0,147,147,31,1,two_way_cognate,1,REAL,FALSA
,,,,,,,,,5e5832478c2b6f03f9acd234,001,2025-05-20_14h04.27.192,empathy_intonation_perc,2024.1.4,Linux x86_64,29.94011976,,,,,,,,,,,,,,67,llamar,,,,,,339.7022,342.6422,0,1,2.3989,,0,148,148,66,1,non_cognate,1,REAL,FALSA
,,,,,,,,,5e5832478c2b6f03f9acd234,001,2025-05-20_14h04.27.192,empathy_intonation_perc,2024.1.4,Linux x86_64,29.94011976,,,,,,,,,,,,,,185,aljizo,,,,,,342.6428,344.108,0,1,0.9093,,0,149,149,184,1,pseudoword,0,REAL,FALSA
,,,,,,,,,5e5832478c2b6f03f9acd234,001,2025-05-20_14h04.27.192,empathy_intonation_perc,2024.1.4,Linux x86_64,29.94011976,,,,,,,,,,,,,,183,edioso,,,,,,344.1086,345.6592,0,1,1.0015,,0,150,150,182,1,pseudoword,0,REAL,FALSA
,,,,,,,,,5e5832478c2b6f03f9acd234,001,2025-05-20_14h04.27.192,empathy_intonation_perc,2024.1.4,Linux x86_64,29.94011976,,,,,,,,,,,,,,109,laras,,,,,,345.6598,346.999,0,1,0.7975,,0,151,151,108,1,pseudoword,0,REAL,FALSA
,,,,,,,,,5e5832478c2b6f03f9acd234,001,2025-05-20_14h04.27.192,empathy_intonation_perc,2024.1.4,Linux x86_64,29.94011976,,,,,,,,,,,,,,133,conso,,,,,,347.0001,348.3427,0,1,0.809,,0,152,152,132,1,pseudoword,0,REAL,FALSA
,,,,,,,,,5e5832478c2b6f03f9acd234,001,2025-05-20_14h04.27.192,empathy_intonation_perc,2024.1.4,Linux x86_64,29.94011976,,,,,,,,,,,,,,91,equipo,,,,,,348.3438,349.6871,1,0,0.7925,,0,153,153,90,1,non_cognate,1,REAL,FALSA
,,,,,,,,,5e5832478c2b6f03f9acd234,001,2025-05-20_14h04.27.192,empathy_intonation_perc,2024.1.4,Linux x86_64,29.94011976,,,,,,,,,,,,,,25,vigor,,,,,,349.6874,351.5984,1,0,1.3918,,0,154,154,24,1,two_way_cognate,1,REAL,FALSA
,,,,,,,,,5e5832478c2b6f03f9acd234,001,2025-05-20_14h04.27.192,empathy_intonation_perc,2024.1.4,Linux x86_64,29.94011976,,,,,,,,,,,,,,17,clan,,,,,,351.599,353.0506,1,0,0.9235,,0,155,155,16,1,three_way_cognate,1,REAL,FALSA
,,,,,,,,,5e5832478c2b6f03f9acd234,001,2025-05-20_14h04.27.192,empathy_intonation_perc,2024.1.4,Linux x86_64,29.94011976,,,,,,,,,,,,,,21,hotel,,,,,,353.0512,354.3051,1,0,0.6822,,0,156,156,20,1,three_way_cognate,1,REAL,FALSA
,,,,,,,,,5e5832478c2b6f03f9acd234,001,2025-05-20_14h04.27.192,empathy_intonation_perc,2024.1.4,Linux x86_64,29.94011976,,,,,,,,,,,,,,134,molor,,,,,,354.3063,355.5481,0,1,0.6996,,0,157,157,133,1,pseudoword,0,REAL,FALSA
,,,,,,,,,5e5832478c2b6f03f9acd234,001,2025-05-20_14h04.27.192,empathy_intonation_perc,2024.1.4,Linux x86_64,29.94011976,,,,,,,,,,,,,,132,nocó,,,,,,355.5499,356.868,0,1,0.7825,,0,158,158,131,1,pseudoword,0,REAL,FALSA
,,,,,,,,,5e5832478c2b6f03f9acd234,001,2025-05-20_14h04.27.192,empathy_intonation_perc,2024.1.4,Linux x86_64,29.94011976,,,,,,,,,,,,,,146,gió,,,,,,356.8947,358.1061,0,1,0.6764,,0,159,159,145,1,pseudoword,0,REAL,FALSA
,,,,,,,,,5e5832478c2b6f03f9acd234,001,2025-05-20_14h04.27.192,empathy_intonation_perc,2024.1.4,Linux x86_64,29.94011976,,,,,,,,,,,,,,24,retina,,,,,,358.1071,359.8308,1,0,1.1457,,0,160,160,23,1,three_way_cognate,1,REAL,FALSA
,,,,,,,,,5e5832478c2b6f03f9acd234,001,2025-05-20_14h04.27.192,empathy_intonation_perc,2024.1.4,Linux x86_64,29.94011976,,,,,,,,,,,,,,23,plural,,,,,,359.8327,361.1328,1,0,0.7418,,0,161,161,22,1,three_way_cognate,1,REAL,FALSA
,,,,,,,,,5e5832478c2b6f03f9acd234,001,2025-05-20_14h04.27.192,empathy_intonation_perc,2024.1.4,Linux x86_64,29.94011976,,,,,,,,,,,,,,111,monue,,,,,,361.1337,362.4721,0,1,0.7846,,0,162,162,110,1,pseudoword,0,REAL,FALSA
,,,,,,,,,5e5832478c2b6f03f9acd234,001,2025-05-20_14h04.27.192,empathy_intonation_perc,2024.1.4,Linux x86_64,29.94011976,,,,,,,,,,,,,,160,fomeó,,,,,,362.4743,363.943,0,1,0.8833,,0,163,163,159,1,pseudoword,0,REAL,FALSA
,,,,,,,,,5e5832478c2b6f03f9acd234,001,2025-05-20_14h04.27.192,empathy_intonation_perc,2024.1.4,Linux x86_64,29.94011976,,,,,,,,,,,,,,97,nocita,,,,,,363.944,365.3003,0,1,0.7783,,0,164,164,96,1,pseudoword,0,REAL,FALSA
,,,,,,,,,5e5832478c2b6f03f9acd234,001,2025-05-20_14h04.27.192,empathy_intonation_perc,2024.1.4,Linux x86_64,29.94011976,,,,,,,,,,,,,,72,rostro,,,,,,365.3015,366.6787,0,1,0.8188,,0,165,165,71,1,non_cognate,1,REAL,FALSA
,,,,,,,,,5e5832478c2b6f03f9acd234,001,2025-05-20_14h04.27.192,empathy_intonation_perc,2024.1.4,Linux x86_64,29.94011976,,,,,,,,,,,,,,166,anfia,,,,,,366.6807,368.036,0,1,0.7624,,0,166,166,165,1,pseudoword,0,REAL,FALSA
,,,,,,,,,5e5832478c2b6f03f9acd234,001,2025-05-20_14h04.27.192,empathy_intonation_perc,2024.1.4,Linux x86_64,29.94011976,,,,,,,,,,,,,,39,casual,,,,,,368.0373,369.2354,1,0,0.6602,,0,167,167,38,1,two_way_cognate,1,REAL,FALSA
,,,,,,,,,5e5832478c2b6f03f9acd234,001,2025-05-20_14h04.27.192,empathy_intonation_perc,2024.1.4,Linux x86_64,29.94011976,,,,,,,,,,,,,,70,ánimo,,,,,,369.2366,370.7267,1,0,0.8771,,0,168,168,69,1,non_cognate,1,REAL,FALSA
,,,,,,,,,5e5832478c2b6f03f9acd234,001,2025-05-20_14h04.27.192,empathy_intonation_perc,2024.1.4,Linux x86_64,29.94011976,,,,,,,,,,,,,,83,hálito,,,,,,370.7275,372.171,1,0,0.8699,,0,169,169,82,1,non_cognate,1,REAL,FALSA
,,,,,,,,,5e5832478c2b6f03f9acd234,001,2025-05-20_14h04.27.192,empathy_intonation_perc,2024.1.4,Linux x86_64,29.94011976,,,,,,,,,,,,,,159,trcia,,,,,,372.1738,373.3609,0,1,0.6594,,0,170,170,158,1,pseudoword,0,REAL,FALSA
,,,,,,,,,5e5832478c2b6f03f9acd234,001,2025-05-20_14h04.27.192,empathy_intonation_perc,2024.1.4,Linux x86_64,29.94011976,,,,,,,,,,,,,,62,pegar,,,,,,373.3654,375.76,1,0,1.8597,,0,171,171,61,1,non_cognate,1,REAL,FALSA
,,,,,,,,,5e5832478c2b6f03f9acd234,001,2025-05-20_14h04.27.192,empathy_intonation_perc,2024.1.4,Linux x86_64,29.94011976,,,,,,,,,,,,,,161,civas,,,,,,375.7645,377.1097,0,1,0.7107,,0,172,172,160,1,pseudoword,0,REAL,FALSA
,,,,,,,,,5e5832478c2b6f03f9acd234,001,2025-05-20_14h04.27.192,empathy_intonation_perc,2024.1.4,Linux x86_64,29.94011976,,,,,,,,,,,,,,157,seled,,,,,,377.113,378.6386,0,1,0.9485,,0,173,173,156,1,pseudoword,0,REAL,FALSA
,,,,,,,,,5e5832478c2b6f03f9acd234,001,2025-05-20_14h04.27.192,empathy_intonation_perc,2024.1.4,Linux x86_64,29.94011976,,,,,,,,,,,,,,13,plan,,,,,,378.6405,380.0911,1,0,0.8617,,0,174,174,12,1,three_way_cognate,1,REAL,FALSA
,,,,,,,,,5e5832478c2b6f03f9acd234,001,2025-05-20_14h04.27.192,empathy_intonation_perc,2024.1.4,Linux x86_64,29.94011976,,,,,,,,,,,,,,80,cuenco,,,,,,380.0937,381.5127,1,0,0.8079,,0,175,175,79,1,non_cognate,1,REAL,FALSA
,,,,,,,,,5e5832478c2b6f03f9acd234,001,2025-05-20_14h04.27.192,empathy_intonation_perc,2024.1.4,Linux x86_64,29.94011976,,,,,,,,,,,,,,96,caro,,,,,,381.5143,383.8291,0,1,1.6896,,0,176,176,95,1,non_cognate,1,REAL,FALSA
,,,,,,,,,5e5832478c2b6f03f9acd234,001,2025-05-20_14h04.27.192,empathy_intonation_perc,2024.1.4,Linux x86_64,29.94011976,,,,,,,,,,,,,,9,portal,,,,,,383.8343,385.269,1,0,0.7968,,0,177,177,8,1,three_way_cognate,1,REAL,FALSA
,,,,,,,,,5e5832478c2b6f03f9acd234,001,2025-05-20_14h04.27.192,empathy_intonation_perc,2024.1.4,Linux x86_64,29.94011976,,,,,,,,,,,,,,169,pitis,,,,,,385.2705,387.0822,0,1,1.1995,,0,178,178,168,1,pseudoword,0,REAL,FALSA
,,,,,,,,,5e5832478c2b6f03f9acd234,001,2025-05-20_14h04.27.192,empathy_intonation_perc,2024.1.4,Linux x86_64,29.94011976,,,,,,,,,,,,,,138,tator,,,,,,387.0839,388.4739,0,1,0.7804,,0,179,179,137,1,pseudoword,0,REAL,FALSA
,,,,,,,,,5e5832478c2b6f03f9acd234,001,2025-05-20_14h04.27.192,empathy_intonation_perc,2024.1.4,Linux x86_64,29.94011976,,,,,,,,,,,,,,167,dobbo,,,,,,388.4763,389.8208,0,1,0.7184,,0,180,180,166,1,pseudoword,0,REAL,FALSA
,,,,,,,,,5e5832478c2b6f03f9acd234,001,2025-05-20_14h04.27.192,empathy_intonation_perc,2024.1.4,Linux x86_64,29.94011976,,,,,,,,,,,,,,16,chat,,,,,,389.8243,391.4655,0,1,0.9706,,0,181,181,15,1,three_way_cognate,1,REAL,FALSA
,,,,,,,,,5e5832478c2b6f03f9acd234,001,2025-05-20_14h04.27.192,empathy_intonation_perc,2024.1.4,Linux x86_64,29.94011976,,,,,,,,,,,,,,51,listo,,,,,,391.4685,392.8465,1,0,0.8004,,0,182,182,50,1,non_cognate,1,REAL,FALSA
,,,,,,,,,5e5832478c2b6f03f9acd234,001,2025-05-20_14h04.27.192,empathy_intonation_perc,2024.1.4,Linux x86_64,29.94011976,,,,,,,,,,,,,,15,test,,,,,,392.8483,394.2329,1,0,0.7645,,0,183,183,14,1,three_way_cognate,1,REAL,FALSA
,,,,,,,,,5e5832478c2b6f03f9acd234,001,2025-05-20_14h04.27.192,empathy_intonation_perc,2024.1.4,Linux x86_64,29.94011976,,,,,,,,,,,,,,5,extra,,,,,,394.2357,395.9304,1,0,1.0987,,0,184,184,4,1,three_way_cognate,1,REAL,FALSA
,,,,,,,,,5e5832478c2b6f03f9acd234,001,2025-05-20_14h04.27.192,empathy_intonation_perc,2024.1.4,Linux x86_64,29.94011976,,,,,,,,,,,,,,105,peniz,,,,,,395.9326,397.8792,0,1,1.2327,,0,185,185,104,1,pseudoword,0,REAL,FALSA
,,,,,,,,,5e5832478c2b6f03f9acd234,001,2025-05-20_14h04.27.192,empathy_intonation_perc,2024.1.4,Linux x86_64,29.94011976,,,,,,,,,,,,,,45,total,,,,,,397.8814,399.327,1,0,0.8135,,0,186,186,44,1,two_way_cognate,1,REAL,FALSA
,,,,,,,,,5e5832478c2b6f03f9acd234,001,2025-05-20_14h04.27.192,empathy_intonation_perc,2024.1.4,Linux x86_64,29.94011976,,,,,,,,,,,,,,11,golf,,,,,,399.3285,401.1203,1,0,1.2013,,0,187,187,10,1,three_way_cognate,1,REAL,FALSA
,,,,,,,,,5e5832478c2b6f03f9acd234,001,2025-05-20_14h04.27.192,empathy_intonation_perc,2024.1.4,Linux x86_64,29.94011976,,,,,,,,,,,,,,149,emén,,,,,,401.1462,402.461,0,1,0.7298,,0,188,188,148,1,pseudoword,0,REAL,FALSA
,,,,,,,,,5e5832478c2b6f03f9acd234,001,2025-05-20_14h04.27.192,empathy_intonation_perc,2024.1.4,Linux x86_64,29.94011976,,,,,,,,,,,,,,58,colcha,,,,,,402.4632,403.7997,0,1,0.7566,,0,189,189,57,1,non_cognate,1,REAL,FALSA
,,,,,,,,,5e5832478c2b6f03f9acd234,001,2025-05-20_14h04.27.192,empathy_intonation_perc,2024.1.4,Linux x86_64,29.94011976,,,,,,,,,,,,,,171,gotro,,,,,,403.8022,405.1353,0,1,0.6786,,0,190,190,170,1,pseudoword,0,REAL,FALSA
,,,,,,,,,5e5832478c2b6f03f9acd234,001,2025-05-20_14h04.27.192,empathy_intonation_perc,2024.1.4,Linux x86_64,29.94011976,,,,,,,,,,,,,,137,trugo,,,,,,405.1369,406.3809,0,1,0.6534,,0,191,191,136,1,pseudoword,0,REAL,FALSA
