lextale_instructions.started,lextale_instructions.stopped,lextale_instructions_loop.thisRepN,lextale_instructions_loop.thisTrialN,lextale_instructions_loop.thisN,lextale_instructions_loop.thisIndex,lextale_instructions_loop.ran,instructions_text,continue_text,participant,session,date,expName,psychopyVersion,OS,frameRate,lextale_practice.started,lextale_practice.stopped,key_resp_lextale_practice.keys,key_resp_lextale_practice.corr,key_resp_lextale_practice.rt,key_resp_lextale_practice.duration,lextale_practice_feedback.started,lextale_practice_feedback.stopped,lextale_practice_trials.thisRepN,lextale_practice_trials.thisTrialN,lextale_practice_trials.thisN,lextale_practice_trials.thisIndex,lextale_practice_trials.ran,stim,word,correct_response,prac_button_real,prac_button_false,lextale_check.started,lextale_check.stopped,lextale_trial.started,lextale_trial.stopped,key_resp_lextale_trial.keys,key_resp_lextale_trial.corr,key_resp_lextale_trial.rt,key_resp_lextale_trial.duration,lextail_trials.thisRepN,lextail_trials.thisTrialN,lextail_trials.thisN,lextail_trials.thisIndex,lextail_trials.ran,type,correct_reponse,button_real,button_false
0.014,9.755,0,0,0,0,1,"Este es un test de vocabulario en español. 
  
  A continuación vas a ver 90 secuencias de letras que parecen 'españolas'.
  
  Solo algunas de ellas son palabras de verdad.",(presiona la barra espaciadora para continuar),5fbe72941cf1d201bc50c1d4,001,2025-05-04_21h23.23.370,empathy_intonation_perc,2024.1.4,Win32,60.0240096,,,,,,,,,,,,,,,,,,,,,,,,,,,,,,,,,,,
9.756,19.255,0,1,1,1,1,"Por favor, señala las palabras que tú conoces (aquellas que estás convencido que son palabras españolas, incluso aunque no seas capaz de dar el significado preciso).",(presiona la barra espaciadora para continuar),5fbe72941cf1d201bc50c1d4,001,2025-05-04_21h23.23.370,empathy_intonation_perc,2024.1.4,Win32,60.0240096,,,,,,,,,,,,,,,,,,,,,,,,,,,,,,,,,,,
19.255,28.067,0,2,2,2,1,Pero cuidado: los errores se penalizan. Por eso no tiene sentido tratar de incrementar tu puntuación marcando como reales palabras que nunca has visto.,(presiona la barra espaciadora para continuar),5fbe72941cf1d201bc50c1d4,001,2025-05-04_21h23.23.370,empathy_intonation_perc,2024.1.4,Win32,60.0240096,,,,,,,,,,,,,,,,,,,,,,,,,,,,,,,,,,,
28.067,43.938,0,3,3,3,1,"Presiona la tecla 1 si piensas que es una palabra real y la tecla 
  0 si piensas que es una palabra falsa. 
  
  Vamos a practicar un poco...",(presiona la barra espaciadora para continuar),5fbe72941cf1d201bc50c1d4,001,2025-05-04_21h23.23.370,empathy_intonation_perc,2024.1.4,Win32,60.0240096,,,,,,,,,,,,,,,,,,,,,,,,,,,,,,,,,,,
,,,,,,,,,5fbe72941cf1d201bc50c1d4,001,2025-05-04_21h23.23.370,empathy_intonation_perc,2024.1.4,Win32,60.0240096,43.946,44.974,1,0,0.489,,44.975,45.978,0,0,0,0,1,0,depiste,0,REAL,FALSA,,,,,,,,,,,,,,,,,
,,,,,,,,,5fbe72941cf1d201bc50c1d4,001,2025-05-04_21h23.23.370,empathy_intonation_perc,2024.1.4,Win32,60.0240096,45.978,47.867,1,1,1.369,,47.867,48.871,0,1,1,1,1,0,sí,1,REAL,FALSA,,,,,,,,,,,,,,,,,
,,,,,,,,,5fbe72941cf1d201bc50c1d4,001,2025-05-04_21h23.23.370,empathy_intonation_perc,2024.1.4,Win32,60.0240096,48.872,50.158,0,1,0.752,,50.158,51.162,0,2,2,2,1,0,coné,0,REAL,FALSA,,,,,,,,,,,,,,,,,
,,,,,,,,,5fbe72941cf1d201bc50c1d4,001,2025-05-04_21h23.23.370,empathy_intonation_perc,2024.1.4,Win32,60.0240096,51.163,52.817,1,0,1.115,,52.817,53.82,0,3,3,3,1,0,calpar,0,REAL,FALSA,,,,,,,,,,,,,,,,,
,,,,,,,,,5fbe72941cf1d201bc50c1d4,001,2025-05-04_21h23.23.370,empathy_intonation_perc,2024.1.4,Win32,60.0240096,53.821,55.393,0,1,1.051,,55.393,56.396,0,4,4,4,1,0,joten,0,REAL,FALSA,,,,,,,,,,,,,,,,,
,,,,,,,,,5fbe72941cf1d201bc50c1d4,001,2025-05-04_21h23.23.370,empathy_intonation_perc,2024.1.4,Win32,60.0240096,56.397,58.168,1,1,1.251,,58.168,59.172,0,5,5,5,1,0,sacapuntas,1,REAL,FALSA,,,,,,,,,,,,,,,,,
,,,,,,,,,5fbe72941cf1d201bc50c1d4,001,2025-05-04_21h23.23.370,empathy_intonation_perc,2024.1.4,Win32,60.0240096,59.173,60.546,0,1,0.846,,60.546,61.547,0,6,6,6,1,0,priba,0,REAL,FALSA,,,,,,,,,,,,,,,,,
,,,,,,,,,5fbe72941cf1d201bc50c1d4,001,2025-05-04_21h23.23.370,empathy_intonation_perc,2024.1.4,Win32,60.0240096,61.55,63.771,0,1,1.68,,63.771,64.774,0,7,7,7,1,0,pelasula,0,REAL,FALSA,,,,,,,,,,,,,,,,,
,,,,,,,,,5fbe72941cf1d201bc50c1d4,001,2025-05-04_21h23.23.370,empathy_intonation_perc,2024.1.4,Win32,60.0240096,64.775,66.062,1,1,0.756,,66.062,67.065,0,8,8,8,1,0,bien,1,REAL,FALSA,,,,,,,,,,,,,,,,,
,,,,,,,,,5fbe72941cf1d201bc50c1d4,001,2025-05-04_21h23.23.370,empathy_intonation_perc,2024.1.4,Win32,60.0240096,67.066,68.286,1,1,0.69,,68.286,69.289,0,9,9,9,1,0,casa,1,REAL,FALSA,,,,,,,,,,,,,,,,,
,,,,,,,,,5fbe72941cf1d201bc50c1d4,001,2025-05-04_21h23.23.370,empathy_intonation_perc,2024.1.4,Win32,60.0240096,69.29,70.694,1,0,0.876,,70.694,71.698,0,10,10,10,1,0,lejo,0,REAL,FALSA,,,,,,,,,,,,,,,,,
,,,,,,,,,5fbe72941cf1d201bc50c1d4,001,2025-05-04_21h23.23.370,empathy_intonation_perc,2024.1.4,Win32,60.0240096,71.699,73.287,0,1,1.058,,73.287,74.29,0,11,11,11,1,0,pretantas,0,REAL,FALSA,,,,,,,,,,,,,,,,,
,,,,,,,,,5fbe72941cf1d201bc50c1d4,001,2025-05-04_21h23.23.370,empathy_intonation_perc,2024.1.4,Win32,60.0240096,,,,,,,,,,,,,,,,,,,74.29,81.263,,,,,,,,,,,,,,,
,,,,,,,,,5fbe72941cf1d201bc50c1d4,001,2025-05-04_21h23.23.370,empathy_intonation_perc,2024.1.4,Win32,60.0240096,,,,,,,,,,,,,,123,arane,,,,,,81.275,83.12,0,1,1.309,,0,0,0,122,1,pseudoword,0,REAL,FALSA
,,,,,,,,,5fbe72941cf1d201bc50c1d4,001,2025-05-04_21h23.23.370,empathy_intonation_perc,2024.1.4,Win32,60.0240096,,,,,,,,,,,,,,40,pelvis,,,,,,83.12,84.791,0,1,1.149,,0,1,1,39,1,two_way_cognate,1,REAL,FALSA
,,,,,,,,,5fbe72941cf1d201bc50c1d4,001,2025-05-04_21h23.23.370,empathy_intonation_perc,2024.1.4,Win32,60.0240096,,,,,,,,,,,,,,70,ánimo,,,,,,84.792,86.631,1,0,1.302,,0,2,2,69,1,non_cognate,1,REAL,FALSA
,,,,,,,,,5fbe72941cf1d201bc50c1d4,001,2025-05-04_21h23.23.370,empathy_intonation_perc,2024.1.4,Win32,60.0240096,,,,,,,,,,,,,,37,torso,,,,,,86.632,87.835,1,0,0.68,,0,3,3,36,1,two_way_cognate,1,REAL,FALSA
,,,,,,,,,5fbe72941cf1d201bc50c1d4,001,2025-05-04_21h23.23.370,empathy_intonation_perc,2024.1.4,Win32,60.0240096,,,,,,,,,,,,,,80,cuenco,,,,,,87.836,89.759,0,1,1.39,,0,4,4,79,1,non_cognate,1,REAL,FALSA
,,,,,,,,,5fbe72941cf1d201bc50c1d4,001,2025-05-04_21h23.23.370,empathy_intonation_perc,2024.1.4,Win32,60.0240096,,,,,,,,,,,,,,27,piano,,,,,,89.759,90.946,1,0,0.663,,0,5,5,26,1,two_way_cognate,1,REAL,FALSA
,,,,,,,,,5fbe72941cf1d201bc50c1d4,001,2025-05-04_21h23.23.370,empathy_intonation_perc,2024.1.4,Win32,60.0240096,,,,,,,,,,,,,,114,dibrea,,,,,,90.946,92.384,0,1,0.907,,0,6,6,113,1,pseudoword,0,REAL,FALSA
,,,,,,,,,5fbe72941cf1d201bc50c1d4,001,2025-05-04_21h23.23.370,empathy_intonation_perc,2024.1.4,Win32,60.0240096,,,,,,,,,,,,,,173,mibro,,,,,,92.385,93.739,0,1,0.823,,0,7,7,172,1,pseudoword,0,REAL,FALSA
,,,,,,,,,5fbe72941cf1d201bc50c1d4,001,2025-05-04_21h23.23.370,empathy_intonation_perc,2024.1.4,Win32,60.0240096,,,,,,,,,,,,,,186,rizate,,,,,,93.741,95.36,0,1,1.074,,0,8,8,185,1,pseudoword,0,REAL,FALSA
,,,,,,,,,5fbe72941cf1d201bc50c1d4,001,2025-05-04_21h23.23.370,empathy_intonation_perc,2024.1.4,Win32,60.0240096,,,,,,,,,,,,,,71,torta,,,,,,95.361,97.05,0,1,1.152,,0,9,9,70,1,non_cognate,1,REAL,FALSA
,,,,,,,,,5fbe72941cf1d201bc50c1d4,001,2025-05-04_21h23.23.370,empathy_intonation_perc,2024.1.4,Win32,60.0240096,,,,,,,,,,,,,,18,altar,,,,,,97.05,98.337,1,0,0.773,,0,10,10,17,1,three_way_cognate,1,REAL,FALSA
,,,,,,,,,5fbe72941cf1d201bc50c1d4,001,2025-05-04_21h23.23.370,empathy_intonation_perc,2024.1.4,Win32,60.0240096,,,,,,,,,,,,,,67,llamar,,,,,,98.337,99.625,1,0,0.765,,0,11,11,66,1,non_cognate,1,REAL,FALSA
,,,,,,,,,5fbe72941cf1d201bc50c1d4,001,2025-05-04_21h23.23.370,empathy_intonation_perc,2024.1.4,Win32,60.0240096,,,,,,,,,,,,,,60,siglo,,,,,,99.625,101.164,0,1,1.006,,0,12,12,59,1,non_cognate,1,REAL,FALSA
,,,,,,,,,5fbe72941cf1d201bc50c1d4,001,2025-05-04_21h23.23.370,empathy_intonation_perc,2024.1.4,Win32,60.0240096,,,,,,,,,,,,,,72,rostro,,,,,,101.164,102.769,0,1,1.082,,0,13,13,71,1,non_cognate,1,REAL,FALSA
,,,,,,,,,5fbe72941cf1d201bc50c1d4,001,2025-05-04_21h23.23.370,empathy_intonation_perc,2024.1.4,Win32,60.0240096,,,,,,,,,,,,,,115,lidena,,,,,,102.77,104.241,0,1,0.937,,0,14,14,114,1,pseudoword,0,REAL,FALSA
,,,,,,,,,5fbe72941cf1d201bc50c1d4,001,2025-05-04_21h23.23.370,empathy_intonation_perc,2024.1.4,Win32,60.0240096,,,,,,,,,,,,,,43,honor,,,,,,104.241,105.678,1,0,0.916,,0,15,15,42,1,two_way_cognate,1,REAL,FALSA
,,,,,,,,,5fbe72941cf1d201bc50c1d4,001,2025-05-04_21h23.23.370,empathy_intonation_perc,2024.1.4,Win32,60.0240096,,,,,,,,,,,,,,122,boñaz,,,,,,105.679,107.435,1,0,1.229,,0,16,16,121,1,pseudoword,0,REAL,FALSA
,,,,,,,,,5fbe72941cf1d201bc50c1d4,001,2025-05-04_21h23.23.370,empathy_intonation_perc,2024.1.4,Win32,60.0240096,,,,,,,,,,,,,,52,blando,,,,,,107.436,108.773,0,1,0.814,,0,17,17,51,1,non_cognate,1,REAL,FALSA
,,,,,,,,,5fbe72941cf1d201bc50c1d4,001,2025-05-04_21h23.23.370,empathy_intonation_perc,2024.1.4,Win32,60.0240096,,,,,,,,,,,,,,134,molor,,,,,,108.774,110.562,0,1,1.256,,0,18,18,133,1,pseudoword,0,REAL,FALSA
,,,,,,,,,5fbe72941cf1d201bc50c1d4,001,2025-05-04_21h23.23.370,empathy_intonation_perc,2024.1.4,Win32,60.0240096,,,,,,,,,,,,,,93,tapa,,,,,,110.563,112.518,1,0,1.413,,0,19,19,92,1,non_cognate,1,REAL,FALSA
,,,,,,,,,5fbe72941cf1d201bc50c1d4,001,2025-05-04_21h23.23.370,empathy_intonation_perc,2024.1.4,Win32,60.0240096,,,,,,,,,,,,,,106,diebro,,,,,,112.518,113.856,0,1,0.817,,0,20,20,105,1,pseudoword,0,REAL,FALSA
,,,,,,,,,5fbe72941cf1d201bc50c1d4,001,2025-05-04_21h23.23.370,empathy_intonation_perc,2024.1.4,Win32,60.0240096,,,,,,,,,,,,,,10,drama,,,,,,113.857,115.16,1,0,0.771,,0,21,21,9,1,three_way_cognate,1,REAL,FALSA
,,,,,,,,,5fbe72941cf1d201bc50c1d4,001,2025-05-04_21h23.23.370,empathy_intonation_perc,2024.1.4,Win32,60.0240096,,,,,,,,,,,,,,158,babrá,,,,,,115.161,116.515,0,1,0.826,,0,22,22,157,1,pseudoword,0,REAL,FALSA
,,,,,,,,,5fbe72941cf1d201bc50c1d4,001,2025-05-04_21h23.23.370,empathy_intonation_perc,2024.1.4,Win32,60.0240096,,,,,,,,,,,,,,159,trcia,,,,,,116.516,117.886,0,1,0.838,,0,23,23,158,1,pseudoword,0,REAL,FALSA
,,,,,,,,,5fbe72941cf1d201bc50c1d4,001,2025-05-04_21h23.23.370,empathy_intonation_perc,2024.1.4,Win32,60.0240096,,,,,,,,,,,,,,54,tapón,,,,,,117.887,119.291,0,1,0.88,,0,24,24,53,1,non_cognate,1,REAL,FALSA
,,,,,,,,,5fbe72941cf1d201bc50c1d4,001,2025-05-04_21h23.23.370,empathy_intonation_perc,2024.1.4,Win32,60.0240096,,,,,,,,,,,,,,65,guerra,,,,,,119.291,120.546,1,0,0.713,,0,25,25,64,1,non_cognate,1,REAL,FALSA
,,,,,,,,,5fbe72941cf1d201bc50c1d4,001,2025-05-04_21h23.23.370,empathy_intonation_perc,2024.1.4,Win32,60.0240096,,,,,,,,,,,,,,104,estulo,,,,,,120.546,122.318,1,0,1.241,,0,26,26,103,1,pseudoword,0,REAL,FALSA
,,,,,,,,,5fbe72941cf1d201bc50c1d4,001,2025-05-04_21h23.23.370,empathy_intonation_perc,2024.1.4,Win32,60.0240096,,,,,,,,,,,,,,81,sacar,,,,,,122.318,123.607,1,0,0.764,,0,27,27,80,1,non_cognate,1,REAL,FALSA
,,,,,,,,,5fbe72941cf1d201bc50c1d4,001,2025-05-04_21h23.23.370,empathy_intonation_perc,2024.1.4,Win32,60.0240096,,,,,,,,,,,,,,151,prías,,,,,,123.611,124.96,0,1,0.812,,0,28,28,150,1,pseudoword,0,REAL,FALSA
,,,,,,,,,5fbe72941cf1d201bc50c1d4,001,2025-05-04_21h23.23.370,empathy_intonation_perc,2024.1.4,Win32,60.0240096,,,,,,,,,,,,,,59,feo,,,,,,124.961,126.181,1,0,0.688,,0,29,29,58,1,non_cognate,1,REAL,FALSA
,,,,,,,,,5fbe72941cf1d201bc50c1d4,001,2025-05-04_21h23.23.370,empathy_intonation_perc,2024.1.4,Win32,60.0240096,,,,,,,,,,,,,,15,test,,,,,,126.181,127.335,1,0,0.619,,0,30,30,14,1,three_way_cognate,1,REAL,FALSA
,,,,,,,,,5fbe72941cf1d201bc50c1d4,001,2025-05-04_21h23.23.370,empathy_intonation_perc,2024.1.4,Win32,60.0240096,,,,,,,,,,,,,,111,monue,,,,,,127.335,128.656,0,1,0.794,,0,31,31,110,1,pseudoword,0,REAL,FALSA
,,,,,,,,,5fbe72941cf1d201bc50c1d4,001,2025-05-04_21h23.23.370,empathy_intonation_perc,2024.1.4,Win32,60.0240096,,,,,,,,,,,,,,75,patada,,,,,,128.657,130.094,0,1,0.909,,0,32,32,74,1,non_cognate,1,REAL,FALSA
,,,,,,,,,5fbe72941cf1d201bc50c1d4,001,2025-05-04_21h23.23.370,empathy_intonation_perc,2024.1.4,Win32,60.0240096,,,,,,,,,,,,,,7,albino,,,,,,130.095,131.298,1,0,0.678,,0,33,33,6,1,three_way_cognate,1,REAL,FALSA
,,,,,,,,,5fbe72941cf1d201bc50c1d4,001,2025-05-04_21h23.23.370,empathy_intonation_perc,2024.1.4,Win32,60.0240096,,,,,,,,,,,,,,94,forro,,,,,,131.299,132.636,1,0,0.802,,0,34,34,93,1,non_cognate,1,REAL,FALSA
,,,,,,,,,5fbe72941cf1d201bc50c1d4,001,2025-05-04_21h23.23.370,empathy_intonation_perc,2024.1.4,Win32,60.0240096,,,,,,,,,,,,,,154,harvé,,,,,,132.637,134.074,0,1,0.911,,0,35,35,153,1,pseudoword,0,REAL,FALSA
,,,,,,,,,5fbe72941cf1d201bc50c1d4,001,2025-05-04_21h23.23.370,empathy_intonation_perc,2024.1.4,Win32,60.0240096,,,,,,,,,,,,,,168,cobén,,,,,,134.075,135.362,0,1,0.771,,0,36,36,167,1,pseudoword,0,REAL,FALSA
,,,,,,,,,5fbe72941cf1d201bc50c1d4,001,2025-05-04_21h23.23.370,empathy_intonation_perc,2024.1.4,Win32,60.0240096,,,,,,,,,,,,,,2,tumor,,,,,,135.362,136.5,1,0,0.606,,0,37,37,1,1,three_way_cognate,1,REAL,FALSA
,,,,,,,,,5fbe72941cf1d201bc50c1d4,001,2025-05-04_21h23.23.370,empathy_intonation_perc,2024.1.4,Win32,60.0240096,,,,,,,,,,,,,,164,tecia,,,,,,136.501,137.82,0,1,0.789,,0,38,38,163,1,pseudoword,0,REAL,FALSA
,,,,,,,,,5fbe72941cf1d201bc50c1d4,001,2025-05-04_21h23.23.370,empathy_intonation_perc,2024.1.4,Win32,60.0240096,,,,,,,,,,,,,,148,gino,,,,,,137.821,139.358,1,0,1.011,,0,39,39,147,1,pseudoword,0,REAL,FALSA
,,,,,,,,,5fbe72941cf1d201bc50c1d4,001,2025-05-04_21h23.23.370,empathy_intonation_perc,2024.1.4,Win32,60.0240096,,,,,,,,,,,,,,179,suelet,,,,,,139.359,140.646,0,1,0.766,,0,40,40,178,1,pseudoword,0,REAL,FALSA
,,,,,,,,,5fbe72941cf1d201bc50c1d4,001,2025-05-04_21h23.23.370,empathy_intonation_perc,2024.1.4,Win32,60.0240096,,,,,,,,,,,,,,135,panté,,,,,,140.647,142.085,0,1,0.904,,0,41,41,134,1,pseudoword,0,REAL,FALSA
,,,,,,,,,5fbe72941cf1d201bc50c1d4,001,2025-05-04_21h23.23.370,empathy_intonation_perc,2024.1.4,Win32,60.0240096,,,,,,,,,,,,,,83,hálito,,,,,,142.085,143.439,0,1,0.834,,0,42,42,82,1,non_cognate,1,REAL,FALSA
,,,,,,,,,5fbe72941cf1d201bc50c1d4,001,2025-05-04_21h23.23.370,empathy_intonation_perc,2024.1.4,Win32,60.0240096,,,,,,,,,,,,,,141,virios,,,,,,143.439,144.977,0,1,1.002,,0,43,43,140,1,pseudoword,0,REAL,FALSA
,,,,,,,,,5fbe72941cf1d201bc50c1d4,001,2025-05-04_21h23.23.370,empathy_intonation_perc,2024.1.4,Win32,60.0240096,,,,,,,,,,,,,,84,aviso,,,,,,144.978,146.215,1,0,0.711,,0,44,44,83,1,non_cognate,1,REAL,FALSA
,,,,,,,,,5fbe72941cf1d201bc50c1d4,001,2025-05-04_21h23.23.370,empathy_intonation_perc,2024.1.4,Win32,60.0240096,,,,,,,,,,,,,,16,chat,,,,,,146.215,147.536,1,0,0.808,,0,45,45,15,1,three_way_cognate,1,REAL,FALSA
,,,,,,,,,5fbe72941cf1d201bc50c1d4,001,2025-05-04_21h23.23.370,empathy_intonation_perc,2024.1.4,Win32,60.0240096,,,,,,,,,,,,,,118,bará,,,,,,147.536,149.008,0,1,0.946,,0,46,46,117,1,pseudoword,0,REAL,FALSA
,,,,,,,,,5fbe72941cf1d201bc50c1d4,001,2025-05-04_21h23.23.370,empathy_intonation_perc,2024.1.4,Win32,60.0240096,,,,,,,,,,,,,,77,suave,,,,,,149.009,150.312,1,0,0.767,,0,47,47,76,1,non_cognate,1,REAL,FALSA
,,,,,,,,,5fbe72941cf1d201bc50c1d4,001,2025-05-04_21h23.23.370,empathy_intonation_perc,2024.1.4,Win32,60.0240096,,,,,,,,,,,,,,57,regalo,,,,,,150.313,151.5,1,0,0.653,,0,48,48,56,1,non_cognate,1,REAL,FALSA
,,,,,,,,,5fbe72941cf1d201bc50c1d4,001,2025-05-04_21h23.23.370,empathy_intonation_perc,2024.1.4,Win32,60.0240096,,,,,,,,,,,,,,124,lobe,,,,,,151.5,152.687,0,1,0.67,,0,49,49,123,1,pseudoword,0,REAL,FALSA
,,,,,,,,,5fbe72941cf1d201bc50c1d4,001,2025-05-04_21h23.23.370,empathy_intonation_perc,2024.1.4,Win32,60.0240096,,,,,,,,,,,,,,160,fomeó,,,,,,152.688,153.941,0,1,0.717,,0,50,50,159,1,pseudoword,0,REAL,FALSA
,,,,,,,,,5fbe72941cf1d201bc50c1d4,001,2025-05-04_21h23.23.370,empathy_intonation_perc,2024.1.4,Win32,60.0240096,,,,,,,,,,,,,,21,hotel,,,,,,153.941,155.029,1,0,0.568,,0,51,51,20,1,three_way_cognate,1,REAL,FALSA
,,,,,,,,,5fbe72941cf1d201bc50c1d4,001,2025-05-04_21h23.23.370,empathy_intonation_perc,2024.1.4,Win32,60.0240096,,,,,,,,,,,,,,102,coyo,,,,,,155.029,156.199,0,1,0.645,,0,52,52,101,1,pseudoword,0,REAL,FALSA
,,,,,,,,,5fbe72941cf1d201bc50c1d4,001,2025-05-04_21h23.23.370,empathy_intonation_perc,2024.1.4,Win32,60.0240096,,,,,,,,,,,,,,96,caro,,,,,,156.199,157.352,1,0,0.623,,0,53,53,95,1,non_cognate,1,REAL,FALSA
,,,,,,,,,5fbe72941cf1d201bc50c1d4,001,2025-05-04_21h23.23.370,empathy_intonation_perc,2024.1.4,Win32,60.0240096,,,,,,,,,,,,,,110,densó,,,,,,157.353,158.54,0,1,0.667,,0,54,54,109,1,pseudoword,0,REAL,FALSA
,,,,,,,,,5fbe72941cf1d201bc50c1d4,001,2025-05-04_21h23.23.370,empathy_intonation_perc,2024.1.4,Win32,60.0240096,,,,,,,,,,,,,,20,trauma,,,,,,158.542,159.71,1,0,0.645,,0,55,55,19,1,three_way_cognate,1,REAL,FALSA
,,,,,,,,,5fbe72941cf1d201bc50c1d4,001,2025-05-04_21h23.23.370,empathy_intonation_perc,2024.1.4,Win32,60.0240096,,,,,,,,,,,,,,4,flora,,,,,,159.711,160.864,1,0,0.636,,0,56,56,3,1,three_way_cognate,1,REAL,FALSA
,,,,,,,,,5fbe72941cf1d201bc50c1d4,001,2025-05-04_21h23.23.370,empathy_intonation_perc,2024.1.4,Win32,60.0240096,,,,,,,,,,,,,,38,halo,,,,,,160.865,162.086,0,1,0.7,,0,57,57,37,1,two_way_cognate,1,REAL,FALSA
,,,,,,,,,5fbe72941cf1d201bc50c1d4,001,2025-05-04_21h23.23.370,empathy_intonation_perc,2024.1.4,Win32,60.0240096,,,,,,,,,,,,,,190,asumie,,,,,,162.086,163.339,0,1,0.732,,0,58,58,189,1,pseudoword,0,REAL,FALSA
,,,,,,,,,5fbe72941cf1d201bc50c1d4,001,2025-05-04_21h23.23.370,empathy_intonation_perc,2024.1.4,Win32,60.0240096,,,,,,,,,,,,,,185,aljizo,,,,,,163.34,164.844,0,1,0.973,,0,59,59,184,1,pseudoword,0,REAL,FALSA
,,,,,,,,,5fbe72941cf1d201bc50c1d4,001,2025-05-04_21h23.23.370,empathy_intonation_perc,2024.1.4,Win32,60.0240096,,,,,,,,,,,,,,116,grigir,,,,,,164.845,166.232,0,1,0.853,,0,60,60,115,1,pseudoword,0,REAL,FALSA
,,,,,,,,,5fbe72941cf1d201bc50c1d4,001,2025-05-04_21h23.23.370,empathy_intonation_perc,2024.1.4,Win32,60.0240096,,,,,,,,,,,,,,117,morrá,,,,,,166.233,168.172,1,0,1.421,,0,61,61,116,1,pseudoword,0,REAL,FALSA
,,,,,,,,,5fbe72941cf1d201bc50c1d4,001,2025-05-04_21h23.23.370,empathy_intonation_perc,2024.1.4,Win32,60.0240096,,,,,,,,,,,,,,177,entodo,,,,,,168.173,169.995,0,1,1.297,,0,62,62,176,1,pseudoword,0,REAL,FALSA
,,,,,,,,,5fbe72941cf1d201bc50c1d4,001,2025-05-04_21h23.23.370,empathy_intonation_perc,2024.1.4,Win32,60.0240096,,,,,,,,,,,,,,14,aura,,,,,,169.996,171.2,1,0,0.67,,0,63,63,13,1,three_way_cognate,1,REAL,FALSA
,,,,,,,,,5fbe72941cf1d201bc50c1d4,001,2025-05-04_21h23.23.370,empathy_intonation_perc,2024.1.4,Win32,60.0240096,,,,,,,,,,,,,,24,retina,,,,,,171.2,172.704,1,0,0.979,,0,64,64,23,1,three_way_cognate,1,REAL,FALSA
,,,,,,,,,5fbe72941cf1d201bc50c1d4,001,2025-05-04_21h23.23.370,empathy_intonation_perc,2024.1.4,Win32,60.0240096,,,,,,,,,,,,,,189,medium,,,,,,172.705,173.875,1,0,0.638,,0,65,65,188,1,pseudoword,0,REAL,FALSA
,,,,,,,,,5fbe72941cf1d201bc50c1d4,001,2025-05-04_21h23.23.370,empathy_intonation_perc,2024.1.4,Win32,60.0240096,,,,,,,,,,,,,,9,portal,,,,,,173.876,175.046,1,0,0.652,,0,66,66,8,1,three_way_cognate,1,REAL,FALSA
,,,,,,,,,5fbe72941cf1d201bc50c1d4,001,2025-05-04_21h23.23.370,empathy_intonation_perc,2024.1.4,Win32,60.0240096,,,,,,,,,,,,,,17,clan,,,,,,175.046,176.501,0,1,0.923,,0,67,67,16,1,three_way_cognate,1,REAL,FALSA
,,,,,,,,,5fbe72941cf1d201bc50c1d4,001,2025-05-04_21h23.23.370,empathy_intonation_perc,2024.1.4,Win32,60.0240096,,,,,,,,,,,,,,1,moral,,,,,,176.501,177.687,1,0,0.662,,0,68,68,0,1,three_way_cognate,1,REAL,FALSA
,,,,,,,,,5fbe72941cf1d201bc50c1d4,001,2025-05-04_21h23.23.370,empathy_intonation_perc,2024.1.4,Win32,60.0240096,,,,,,,,,,,,,,162,cengo,,,,,,177.688,178.959,0,1,0.746,,0,69,69,161,1,pseudoword,0,REAL,FALSA
,,,,,,,,,5fbe72941cf1d201bc50c1d4,001,2025-05-04_21h23.23.370,empathy_intonation_perc,2024.1.4,Win32,60.0240096,,,,,,,,,,,,,,87,muleta,,,,,,178.96,180.464,1,0,0.979,,0,70,70,86,1,non_cognate,1,REAL,FALSA
,,,,,,,,,5fbe72941cf1d201bc50c1d4,001,2025-05-04_21h23.23.370,empathy_intonation_perc,2024.1.4,Win32,60.0240096,,,,,,,,,,,,,,99,bugor,,,,,,180.464,181.685,0,1,0.694,,0,71,71,98,1,pseudoword,0,REAL,FALSA
,,,,,,,,,5fbe72941cf1d201bc50c1d4,001,2025-05-04_21h23.23.370,empathy_intonation_perc,2024.1.4,Win32,60.0240096,,,,,,,,,,,,,,140,chorde,,,,,,181.685,182.972,0,1,0.77,,0,72,72,139,1,pseudoword,0,REAL,FALSA
,,,,,,,,,5fbe72941cf1d201bc50c1d4,001,2025-05-04_21h23.23.370,empathy_intonation_perc,2024.1.4,Win32,60.0240096,,,,,,,,,,,,,,22,mango,,,,,,182.973,184.159,1,0,0.653,,0,73,73,21,1,three_way_cognate,1,REAL,FALSA
,,,,,,,,,5fbe72941cf1d201bc50c1d4,001,2025-05-04_21h23.23.370,empathy_intonation_perc,2024.1.4,Win32,60.0240096,,,,,,,,,,,,,,178,inichó,,,,,,184.16,185.548,0,1,0.863,,0,74,74,177,1,pseudoword,0,REAL,FALSA
,,,,,,,,,5fbe72941cf1d201bc50c1d4,001,2025-05-04_21h23.23.370,empathy_intonation_perc,2024.1.4,Win32,60.0240096,,,,,,,,,,,,,,156,ozoso,,,,,,185.548,186.869,0,1,0.792,,0,75,75,155,1,pseudoword,0,REAL,FALSA
,,,,,,,,,5fbe72941cf1d201bc50c1d4,001,2025-05-04_21h23.23.370,empathy_intonation_perc,2024.1.4,Win32,60.0240096,,,,,,,,,,,,,,25,vigor,,,,,,186.869,188.207,0,1,0.811,,0,76,76,24,1,two_way_cognate,1,REAL,FALSA
,,,,,,,,,5fbe72941cf1d201bc50c1d4,001,2025-05-04_21h23.23.370,empathy_intonation_perc,2024.1.4,Win32,60.0240096,,,,,,,,,,,,,,32,animal,,,,,,188.208,189.344,1,0,0.612,,0,77,77,31,1,two_way_cognate,1,REAL,FALSA
,,,,,,,,,5fbe72941cf1d201bc50c1d4,001,2025-05-04_21h23.23.370,empathy_intonation_perc,2024.1.4,Win32,60.0240096,,,,,,,,,,,,,,68,puñal,,,,,,189.344,190.732,1,0,0.855,,0,78,78,67,1,non_cognate,1,REAL,FALSA
,,,,,,,,,5fbe72941cf1d201bc50c1d4,001,2025-05-04_21h23.23.370,empathy_intonation_perc,2024.1.4,Win32,60.0240096,,,,,,,,,,,,,,137,trugo,,,,,,190.732,192.004,0,1,0.749,,0,79,79,136,1,pseudoword,0,REAL,FALSA
,,,,,,,,,5fbe72941cf1d201bc50c1d4,001,2025-05-04_21h23.23.370,empathy_intonation_perc,2024.1.4,Win32,60.0240096,,,,,,,,,,,,,,6,horror,,,,,,192.006,193.14,1,0,0.593,,0,80,80,5,1,three_way_cognate,1,REAL,FALSA
,,,,,,,,,5fbe72941cf1d201bc50c1d4,001,2025-05-04_21h23.23.370,empathy_intonation_perc,2024.1.4,Win32,60.0240096,,,,,,,,,,,,,,85,enorme,,,,,,193.14,194.26,1,0,0.596,,0,81,81,84,1,non_cognate,1,REAL,FALSA
,,,,,,,,,5fbe72941cf1d201bc50c1d4,001,2025-05-04_21h23.23.370,empathy_intonation_perc,2024.1.4,Win32,60.0240096,,,,,,,,,,,,,,132,nocó,,,,,,194.26,195.515,0,1,0.721,,0,82,82,131,1,pseudoword,0,REAL,FALSA
,,,,,,,,,5fbe72941cf1d201bc50c1d4,001,2025-05-04_21h23.23.370,empathy_intonation_perc,2024.1.4,Win32,60.0240096,,,,,,,,,,,,,,103,vueras,,,,,,195.515,196.753,0,1,0.71,,0,83,83,102,1,pseudoword,0,REAL,FALSA
,,,,,,,,,5fbe72941cf1d201bc50c1d4,001,2025-05-04_21h23.23.370,empathy_intonation_perc,2024.1.4,Win32,60.0240096,,,,,,,,,,,,,,53,punta,,,,,,196.753,197.94,1,0,0.653,,0,84,84,52,1,non_cognate,1,REAL,FALSA
,,,,,,,,,5fbe72941cf1d201bc50c1d4,001,2025-05-04_21h23.23.370,empathy_intonation_perc,2024.1.4,Win32,60.0240096,,,,,,,,,,,,,,183,edioso,,,,,,197.94,199.461,1,0,0.989,,0,85,85,182,1,pseudoword,0,REAL,FALSA
,,,,,,,,,5fbe72941cf1d201bc50c1d4,001,2025-05-04_21h23.23.370,empathy_intonation_perc,2024.1.4,Win32,60.0240096,,,,,,,,,,,,,,5,extra,,,,,,199.462,200.765,1,0,0.77,,0,86,86,4,1,three_way_cognate,1,REAL,FALSA
,,,,,,,,,5fbe72941cf1d201bc50c1d4,001,2025-05-04_21h23.23.370,empathy_intonation_perc,2024.1.4,Win32,60.0240096,,,,,,,,,,,,,,56,pico,,,,,,200.766,202.02,0,1,0.735,,0,87,87,55,1,non_cognate,1,REAL,FALSA
,,,,,,,,,5fbe72941cf1d201bc50c1d4,001,2025-05-04_21h23.23.370,empathy_intonation_perc,2024.1.4,Win32,60.0240096,,,,,,,,,,,,,,145,rúo,,,,,,202.02,203.207,0,1,0.666,,0,88,88,144,1,pseudoword,0,REAL,FALSA
,,,,,,,,,5fbe72941cf1d201bc50c1d4,001,2025-05-04_21h23.23.370,empathy_intonation_perc,2024.1.4,Win32,60.0240096,,,,,,,,,,,,,,182,desaro,,,,,,203.208,204.495,0,1,0.76,,0,89,89,181,1,pseudoword,0,REAL,FALSA
,,,,,,,,,5fbe72941cf1d201bc50c1d4,001,2025-05-04_21h23.23.370,empathy_intonation_perc,2024.1.4,Win32,60.0240096,,,,,,,,,,,,,,105,peniz,,,,,,204.496,205.832,1,0,0.815,,0,90,90,104,1,pseudoword,0,REAL,FALSA
,,,,,,,,,5fbe72941cf1d201bc50c1d4,001,2025-05-04_21h23.23.370,empathy_intonation_perc,2024.1.4,Win32,60.0240096,,,,,,,,,,,,,,143,hurcos,,,,,,205.833,207.187,0,1,0.835,,0,91,91,142,1,pseudoword,0,REAL,FALSA
,,,,,,,,,5fbe72941cf1d201bc50c1d4,001,2025-05-04_21h23.23.370,empathy_intonation_perc,2024.1.4,Win32,60.0240096,,,,,,,,,,,,,,98,martir,,,,,,207.187,208.793,1,0,1.076,,0,92,92,97,1,pseudoword,0,REAL,FALSA
,,,,,,,,,5fbe72941cf1d201bc50c1d4,001,2025-05-04_21h23.23.370,empathy_intonation_perc,2024.1.4,Win32,60.0240096,,,,,,,,,,,,,,51,listo,,,,,,208.793,209.98,1,0,0.659,,0,93,93,50,1,non_cognate,1,REAL,FALSA
,,,,,,,,,5fbe72941cf1d201bc50c1d4,001,2025-05-04_21h23.23.370,empathy_intonation_perc,2024.1.4,Win32,60.0240096,,,,,,,,,,,,,,11,golf,,,,,,209.98,211.284,1,0,0.781,,0,94,94,10,1,three_way_cognate,1,REAL,FALSA
,,,,,,,,,5fbe72941cf1d201bc50c1d4,001,2025-05-04_21h23.23.370,empathy_intonation_perc,2024.1.4,Win32,60.0240096,,,,,,,,,,,,,,119,esís,,,,,,211.284,212.522,0,1,0.724,,0,95,95,118,1,pseudoword,0,REAL,FALSA
,,,,,,,,,5fbe72941cf1d201bc50c1d4,001,2025-05-04_21h23.23.370,empathy_intonation_perc,2024.1.4,Win32,60.0240096,,,,,,,,,,,,,,192,próces,,,,,,212.523,214.127,1,0,1.074,,0,96,96,191,1,pseudoword,0,REAL,FALSA
,,,,,,,,,5fbe72941cf1d201bc50c1d4,001,2025-05-04_21h23.23.370,empathy_intonation_perc,2024.1.4,Win32,60.0240096,,,,,,,,,,,,,,180,pupica,,,,,,214.128,215.415,0,1,0.756,,0,97,97,179,1,pseudoword,0,REAL,FALSA
,,,,,,,,,5fbe72941cf1d201bc50c1d4,001,2025-05-04_21h23.23.370,empathy_intonation_perc,2024.1.4,Win32,60.0240096,,,,,,,,,,,,,,19,mafia,,,,,,215.415,216.787,1,0,0.842,,0,98,98,18,1,three_way_cognate,1,REAL,FALSA
,,,,,,,,,5fbe72941cf1d201bc50c1d4,001,2025-05-04_21h23.23.370,empathy_intonation_perc,2024.1.4,Win32,60.0240096,,,,,,,,,,,,,,161,civas,,,,,,216.787,218.074,0,1,0.756,,0,99,99,160,1,pseudoword,0,REAL,FALSA
,,,,,,,,,5fbe72941cf1d201bc50c1d4,001,2025-05-04_21h23.23.370,empathy_intonation_perc,2024.1.4,Win32,60.0240096,,,,,,,,,,,,,,79,suelo,,,,,,218.074,219.294,1,0,0.691,,0,100,100,78,1,non_cognate,1,REAL,FALSA
,,,,,,,,,5fbe72941cf1d201bc50c1d4,001,2025-05-04_21h23.23.370,empathy_intonation_perc,2024.1.4,Win32,60.0240096,,,,,,,,,,,,,,121,barbs,,,,,,219.296,220.532,0,1,0.714,,0,101,101,120,1,pseudoword,0,REAL,FALSA
,,,,,,,,,5fbe72941cf1d201bc50c1d4,001,2025-05-04_21h23.23.370,empathy_intonation_perc,2024.1.4,Win32,60.0240096,,,,,,,,,,,,,,63,hilo,,,,,,220.532,222.071,1,0,1.025,,0,102,102,62,1,non_cognate,1,REAL,FALSA
,,,,,,,,,5fbe72941cf1d201bc50c1d4,001,2025-05-04_21h23.23.370,empathy_intonation_perc,2024.1.4,Win32,60.0240096,,,,,,,,,,,,,,100,épinas,,,,,,222.071,223.425,0,1,0.829,,0,103,103,99,1,pseudoword,0,REAL,FALSA
,,,,,,,,,5fbe72941cf1d201bc50c1d4,001,2025-05-04_21h23.23.370,empathy_intonation_perc,2024.1.4,Win32,60.0240096,,,,,,,,,,,,,,44,editor,,,,,,223.426,224.696,1,0,0.739,,0,104,104,43,1,two_way_cognate,1,REAL,FALSA
,,,,,,,,,5fbe72941cf1d201bc50c1d4,001,2025-05-04_21h23.23.370,empathy_intonation_perc,2024.1.4,Win32,60.0240096,,,,,,,,,,,,,,146,gió,,,,,,224.696,225.85,0,1,0.638,,0,105,105,145,1,pseudoword,0,REAL,FALSA
,,,,,,,,,5fbe72941cf1d201bc50c1d4,001,2025-05-04_21h23.23.370,empathy_intonation_perc,2024.1.4,Win32,60.0240096,,,,,,,,,,,,,,73,llevar,,,,,,225.853,227.004,1,0,0.609,,0,106,106,72,1,non_cognate,1,REAL,FALSA
,,,,,,,,,5fbe72941cf1d201bc50c1d4,001,2025-05-04_21h23.23.370,empathy_intonation_perc,2024.1.4,Win32,60.0240096,,,,,,,,,,,,,,76,chocar,,,,,,227.005,228.426,1,0,0.899,,0,107,107,75,1,non_cognate,1,REAL,FALSA
,,,,,,,,,5fbe72941cf1d201bc50c1d4,001,2025-05-04_21h23.23.370,empathy_intonation_perc,2024.1.4,Win32,60.0240096,,,,,,,,,,,,,,127,vien,,,,,,228.426,229.897,1,0,0.949,,0,108,108,126,1,pseudoword,0,REAL,FALSA
,,,,,,,,,5fbe72941cf1d201bc50c1d4,001,2025-05-04_21h23.23.370,empathy_intonation_perc,2024.1.4,Win32,60.0240096,,,,,,,,,,,,,,90,venado,,,,,,229.897,232.155,1,0,1.725,,0,109,109,89,1,non_cognate,1,REAL,FALSA
,,,,,,,,,5fbe72941cf1d201bc50c1d4,001,2025-05-04_21h23.23.370,empathy_intonation_perc,2024.1.4,Win32,60.0240096,,,,,,,,,,,,,,184,huenos,,,,,,232.155,233.928,1,0,1.241,,0,110,110,183,1,pseudoword,0,REAL,FALSA
,,,,,,,,,5fbe72941cf1d201bc50c1d4,001,2025-05-04_21h23.23.370,empathy_intonation_perc,2024.1.4,Win32,60.0240096,,,,,,,,,,,,,,62,pegar,,,,,,233.928,235.516,0,1,1.058,,0,111,111,61,1,non_cognate,1,REAL,FALSA
,,,,,,,,,5fbe72941cf1d201bc50c1d4,001,2025-05-04_21h23.23.370,empathy_intonation_perc,2024.1.4,Win32,60.0240096,,,,,,,,,,,,,,112,samón,,,,,,235.516,237.222,1,0,1.17,,0,112,112,111,1,pseudoword,0,REAL,FALSA
,,,,,,,,,5fbe72941cf1d201bc50c1d4,001,2025-05-04_21h23.23.370,empathy_intonation_perc,2024.1.4,Win32,60.0240096,,,,,,,,,,,,,,136,hueas,,,,,,237.222,238.493,0,1,0.749,,0,113,113,135,1,pseudoword,0,REAL,FALSA
,,,,,,,,,5fbe72941cf1d201bc50c1d4,001,2025-05-04_21h23.23.370,empathy_intonation_perc,2024.1.4,Win32,60.0240096,,,,,,,,,,,,,,131,fuar,,,,,,238.493,239.881,0,1,0.866,,0,114,114,130,1,pseudoword,0,REAL,FALSA
,,,,,,,,,5fbe72941cf1d201bc50c1d4,001,2025-05-04_21h23.23.370,empathy_intonation_perc,2024.1.4,Win32,60.0240096,,,,,,,,,,,,,,28,ardor,,,,,,239.881,241.152,0,1,0.736,,0,115,115,27,1,two_way_cognate,1,REAL,FALSA
,,,,,,,,,5fbe72941cf1d201bc50c1d4,001,2025-05-04_21h23.23.370,empathy_intonation_perc,2024.1.4,Win32,60.0240096,,,,,,,,,,,,,,46,mortal,,,,,,241.153,242.272,1,0,0.585,,0,116,116,45,1,two_way_cognate,1,REAL,FALSA
,,,,,,,,,5fbe72941cf1d201bc50c1d4,001,2025-05-04_21h23.23.370,empathy_intonation_perc,2024.1.4,Win32,60.0240096,,,,,,,,,,,,,,33,collar,,,,,,242.273,243.426,1,0,0.621,,0,117,117,32,1,two_way_cognate,1,REAL,FALSA
,,,,,,,,,5fbe72941cf1d201bc50c1d4,001,2025-05-04_21h23.23.370,empathy_intonation_perc,2024.1.4,Win32,60.0240096,,,,,,,,,,,,,,42,rumor,,,,,,243.426,244.63,1,0,0.685,,0,118,118,41,1,two_way_cognate,1,REAL,FALSA
,,,,,,,,,5fbe72941cf1d201bc50c1d4,001,2025-05-04_21h23.23.370,empathy_intonation_perc,2024.1.4,Win32,60.0240096,,,,,,,,,,,,,,128,pelí,,,,,,244.631,245.784,0,1,0.619,,0,119,119,127,1,pseudoword,0,REAL,FALSA
,,,,,,,,,5fbe72941cf1d201bc50c1d4,001,2025-05-04_21h23.23.370,empathy_intonation_perc,2024.1.4,Win32,60.0240096,,,,,,,,,,,,,,150,cricó,,,,,,245.784,247.824,0,1,1.521,,0,120,120,149,1,pseudoword,0,REAL,FALSA
,,,,,,,,,5fbe72941cf1d201bc50c1d4,001,2025-05-04_21h23.23.370,empathy_intonation_perc,2024.1.4,Win32,60.0240096,,,,,,,,,,,,,,41,pasta,,,,,,247.826,249.147,1,0,0.779,,0,121,121,40,1,two_way_cognate,1,REAL,FALSA
,,,,,,,,,5fbe72941cf1d201bc50c1d4,001,2025-05-04_21h23.23.370,empathy_intonation_perc,2024.1.4,Win32,60.0240096,,,,,,,,,,,,,,109,laras,,,,,,249.148,250.366,0,1,0.673,,0,122,122,108,1,pseudoword,0,REAL,FALSA
,,,,,,,,,5fbe72941cf1d201bc50c1d4,001,2025-05-04_21h23.23.370,empathy_intonation_perc,2024.1.4,Win32,60.0240096,,,,,,,,,,,,,,12,dogma,,,,,,250.367,251.905,0,1,0.999,,0,123,123,11,1,three_way_cognate,1,REAL,FALSA
,,,,,,,,,5fbe72941cf1d201bc50c1d4,001,2025-05-04_21h23.23.370,empathy_intonation_perc,2024.1.4,Win32,60.0240096,,,,,,,,,,,,,,36,viable,,,,,,251.905,253.225,0,1,0.792,,0,124,124,35,1,two_way_cognate,1,REAL,FALSA
,,,,,,,,,5fbe72941cf1d201bc50c1d4,001,2025-05-04_21h23.23.370,empathy_intonation_perc,2024.1.4,Win32,60.0240096,,,,,,,,,,,,,,49,teñir,,,,,,253.226,254.798,1,0,1.043,,0,125,125,48,1,non_cognate,1,REAL,FALSA
,,,,,,,,,5fbe72941cf1d201bc50c1d4,001,2025-05-04_21h23.23.370,empathy_intonation_perc,2024.1.4,Win32,60.0240096,,,,,,,,,,,,,,147,alla,,,,,,254.798,256.17,1,0,0.838,,0,126,126,146,1,pseudoword,0,REAL,FALSA
,,,,,,,,,5fbe72941cf1d201bc50c1d4,001,2025-05-04_21h23.23.370,empathy_intonation_perc,2024.1.4,Win32,60.0240096,,,,,,,,,,,,,,129,vinzó,,,,,,256.172,257.306,0,1,0.596,,0,127,127,128,1,pseudoword,0,REAL,FALSA
,,,,,,,,,5fbe72941cf1d201bc50c1d4,001,2025-05-04_21h23.23.370,empathy_intonation_perc,2024.1.4,Win32,60.0240096,,,,,,,,,,,,,,88,percha,,,,,,257.307,258.444,0,1,0.615,,0,128,128,87,1,non_cognate,1,REAL,FALSA
,,,,,,,,,5fbe72941cf1d201bc50c1d4,001,2025-05-04_21h23.23.370,empathy_intonation_perc,2024.1.4,Win32,60.0240096,,,,,,,,,,,,,,89,muñeca,,,,,,258.444,259.581,1,0,0.616,,0,129,129,88,1,non_cognate,1,REAL,FALSA
,,,,,,,,,5fbe72941cf1d201bc50c1d4,001,2025-05-04_21h23.23.370,empathy_intonation_perc,2024.1.4,Win32,60.0240096,,,,,,,,,,,,,,113,nasce,,,,,,259.581,260.922,0,1,0.814,,0,130,130,112,1,pseudoword,0,REAL,FALSA
,,,,,,,,,5fbe72941cf1d201bc50c1d4,001,2025-05-04_21h23.23.370,empathy_intonation_perc,2024.1.4,Win32,60.0240096,,,,,,,,,,,,,,149,emén,,,,,,260.923,262.089,0,1,0.623,,0,131,131,148,1,pseudoword,0,REAL,FALSA
,,,,,,,,,5fbe72941cf1d201bc50c1d4,001,2025-05-04_21h23.23.370,empathy_intonation_perc,2024.1.4,Win32,60.0240096,,,,,,,,,,,,,,130,dubo,,,,,,262.089,263.377,0,1,0.763,,0,132,132,129,1,pseudoword,0,REAL,FALSA
,,,,,,,,,5fbe72941cf1d201bc50c1d4,001,2025-05-04_21h23.23.370,empathy_intonation_perc,2024.1.4,Win32,60.0240096,,,,,,,,,,,,,,153,golla,,,,,,263.379,264.647,0,1,0.735,,0,133,133,152,1,pseudoword,0,REAL,FALSA
,,,,,,,,,5fbe72941cf1d201bc50c1d4,001,2025-05-04_21h23.23.370,empathy_intonation_perc,2024.1.4,Win32,60.0240096,,,,,,,,,,,,,,167,dobbo,,,,,,264.65,265.818,0,1,0.615,,0,134,134,166,1,pseudoword,0,REAL,FALSA
,,,,,,,,,5fbe72941cf1d201bc50c1d4,001,2025-05-04_21h23.23.370,empathy_intonation_perc,2024.1.4,Win32,60.0240096,,,,,,,,,,,,,,30,fiscal,,,,,,265.819,267.24,1,0,0.902,,0,135,135,29,1,two_way_cognate,1,REAL,FALSA
,,,,,,,,,5fbe72941cf1d201bc50c1d4,001,2025-05-04_21h23.23.370,empathy_intonation_perc,2024.1.4,Win32,60.0240096,,,,,,,,,,,,,,26,enigma,,,,,,267.24,268.544,1,0,0.778,,0,136,136,25,1,two_way_cognate,1,REAL,FALSA
,,,,,,,,,5fbe72941cf1d201bc50c1d4,001,2025-05-04_21h23.23.370,empathy_intonation_perc,2024.1.4,Win32,60.0240096,,,,,,,,,,,,,,95,listo,,,,,,268.545,269.848,1,0,0.771,,0,137,137,94,1,non_cognate,1,REAL,FALSA
,,,,,,,,,5fbe72941cf1d201bc50c1d4,001,2025-05-04_21h23.23.370,empathy_intonation_perc,2024.1.4,Win32,60.0240096,,,,,,,,,,,,,,139,sasos,,,,,,269.849,271.237,0,1,0.863,,0,138,138,138,1,pseudoword,0,REAL,FALSA
,,,,,,,,,5fbe72941cf1d201bc50c1d4,001,2025-05-04_21h23.23.370,empathy_intonation_perc,2024.1.4,Win32,60.0240096,,,,,,,,,,,,,,34,actor,,,,,,271.237,272.407,1,0,0.633,,0,139,139,33,1,two_way_cognate,1,REAL,FALSA
,,,,,,,,,5fbe72941cf1d201bc50c1d4,001,2025-05-04_21h23.23.370,empathy_intonation_perc,2024.1.4,Win32,60.0240096,,,,,,,,,,,,,,78,rendir,,,,,,272.407,273.527,0,1,0.594,,0,140,140,77,1,non_cognate,1,REAL,FALSA
,,,,,,,,,5fbe72941cf1d201bc50c1d4,001,2025-05-04_21h23.23.370,empathy_intonation_perc,2024.1.4,Win32,60.0240096,,,,,,,,,,,,,,66,aleta,,,,,,273.528,274.682,0,1,0.625,,0,141,141,65,1,non_cognate,1,REAL,FALSA
,,,,,,,,,5fbe72941cf1d201bc50c1d4,001,2025-05-04_21h23.23.370,empathy_intonation_perc,2024.1.4,Win32,60.0240096,,,,,,,,,,,,,,120,mauja,,,,,,274.682,275.802,0,1,0.591,,0,142,142,119,1,pseudoword,0,REAL,FALSA
,,,,,,,,,5fbe72941cf1d201bc50c1d4,001,2025-05-04_21h23.23.370,empathy_intonation_perc,2024.1.4,Win32,60.0240096,,,,,,,,,,,,,,97,nocita,,,,,,275.802,277.107,0,1,0.768,,0,143,143,96,1,pseudoword,0,REAL,FALSA
,,,,,,,,,5fbe72941cf1d201bc50c1d4,001,2025-05-04_21h23.23.370,empathy_intonation_perc,2024.1.4,Win32,60.0240096,,,,,,,,,,,,,,138,tator,,,,,,277.107,278.361,0,1,0.723,,0,144,144,137,1,pseudoword,0,REAL,FALSA
,,,,,,,,,5fbe72941cf1d201bc50c1d4,001,2025-05-04_21h23.23.370,empathy_intonation_perc,2024.1.4,Win32,60.0240096,,,,,,,,,,,,,,144,diroco,,,,,,278.362,279.564,0,1,0.669,,0,145,145,143,1,pseudoword,0,REAL,FALSA
,,,,,,,,,5fbe72941cf1d201bc50c1d4,001,2025-05-04_21h23.23.370,empathy_intonation_perc,2024.1.4,Win32,60.0240096,,,,,,,,,,,,,,171,gotro,,,,,,279.565,280.803,0,1,0.706,,0,146,146,170,1,pseudoword,0,REAL,FALSA
,,,,,,,,,5fbe72941cf1d201bc50c1d4,001,2025-05-04_21h23.23.370,empathy_intonation_perc,2024.1.4,Win32,60.0240096,,,,,,,,,,,,,,176,gripar,,,,,,280.803,282.156,1,0,0.821,,0,147,147,175,1,pseudoword,0,REAL,FALSA
,,,,,,,,,5fbe72941cf1d201bc50c1d4,001,2025-05-04_21h23.23.370,empathy_intonation_perc,2024.1.4,Win32,60.0240096,,,,,,,,,,,,,,163,llzan,,,,,,282.157,283.377,0,1,0.684,,0,148,148,162,1,pseudoword,0,REAL,FALSA
,,,,,,,,,5fbe72941cf1d201bc50c1d4,001,2025-05-04_21h23.23.370,empathy_intonation_perc,2024.1.4,Win32,60.0240096,,,,,,,,,,,,,,169,pitis,,,,,,283.377,284.614,0,1,0.708,,0,149,149,168,1,pseudoword,0,REAL,FALSA
,,,,,,,,,5fbe72941cf1d201bc50c1d4,001,2025-05-04_21h23.23.370,empathy_intonation_perc,2024.1.4,Win32,60.0240096,,,,,,,,,,,,,,55,maldad,,,,,,284.614,286.105,1,0,0.958,,0,150,150,54,1,non_cognate,1,REAL,FALSA
,,,,,,,,,5fbe72941cf1d201bc50c1d4,001,2025-05-04_21h23.23.370,empathy_intonation_perc,2024.1.4,Win32,60.0240096,,,,,,,,,,,,,,107,plago,,,,,,286.107,287.157,0,1,0.515,,0,151,151,106,1,pseudoword,0,REAL,FALSA
,,,,,,,,,5fbe72941cf1d201bc50c1d4,001,2025-05-04_21h23.23.370,empathy_intonation_perc,2024.1.4,Win32,60.0240096,,,,,,,,,,,,,,166,anfia,,,,,,287.158,288.377,0,1,0.691,,0,152,152,165,1,pseudoword,0,REAL,FALSA
,,,,,,,,,5fbe72941cf1d201bc50c1d4,001,2025-05-04_21h23.23.370,empathy_intonation_perc,2024.1.4,Win32,60.0240096,,,,,,,,,,,,,,48,pelvis,,,,,,288.378,289.832,0,1,0.92,,0,153,153,47,1,two_way_cognate,1,REAL,FALSA
,,,,,,,,,5fbe72941cf1d201bc50c1d4,001,2025-05-04_21h23.23.370,empathy_intonation_perc,2024.1.4,Win32,60.0240096,,,,,,,,,,,,,,61,aduana,,,,,,289.833,291.07,0,1,0.714,,0,154,154,60,1,non_cognate,1,REAL,FALSA
,,,,,,,,,5fbe72941cf1d201bc50c1d4,001,2025-05-04_21h23.23.370,empathy_intonation_perc,2024.1.4,Win32,60.0240096,,,,,,,,,,,,,,45,total,,,,,,291.071,292.207,1,0,0.618,,0,155,155,44,1,two_way_cognate,1,REAL,FALSA
,,,,,,,,,5fbe72941cf1d201bc50c1d4,001,2025-05-04_21h23.23.370,empathy_intonation_perc,2024.1.4,Win32,60.0240096,,,,,,,,,,,,,,172,dogue,,,,,,292.208,293.494,0,1,0.762,,0,156,156,171,1,pseudoword,0,REAL,FALSA
,,,,,,,,,5fbe72941cf1d201bc50c1d4,001,2025-05-04_21h23.23.370,empathy_intonation_perc,2024.1.4,Win32,60.0240096,,,,,,,,,,,,,,187,nomata,,,,,,293.495,294.732,0,1,0.717,,0,157,157,186,1,pseudoword,0,REAL,FALSA
,,,,,,,,,5fbe72941cf1d201bc50c1d4,001,2025-05-04_21h23.23.370,empathy_intonation_perc,2024.1.4,Win32,60.0240096,,,,,,,,,,,,,,74,ala,,,,,,294.733,296.053,0,1,0.808,,0,158,158,73,1,non_cognate,1,REAL,FALSA
,,,,,,,,,5fbe72941cf1d201bc50c1d4,001,2025-05-04_21h23.23.370,empathy_intonation_perc,2024.1.4,Win32,60.0240096,,,,,,,,,,,,,,175,tradía,,,,,,296.054,297.291,0,1,0.7,,0,159,159,174,1,pseudoword,0,REAL,FALSA
,,,,,,,,,5fbe72941cf1d201bc50c1d4,001,2025-05-04_21h23.23.370,empathy_intonation_perc,2024.1.4,Win32,60.0240096,,,,,,,,,,,,,,126,tobre,,,,,,297.292,298.595,0,1,0.774,,0,160,160,125,1,pseudoword,0,REAL,FALSA
,,,,,,,,,5fbe72941cf1d201bc50c1d4,001,2025-05-04_21h23.23.370,empathy_intonation_perc,2024.1.4,Win32,60.0240096,,,,,,,,,,,,,,133,conso,,,,,,298.596,299.983,0,1,0.844,,0,161,161,132,1,pseudoword,0,REAL,FALSA
,,,,,,,,,5fbe72941cf1d201bc50c1d4,001,2025-05-04_21h23.23.370,empathy_intonation_perc,2024.1.4,Win32,60.0240096,,,,,,,,,,,,,,69,tiza,,,,,,299.984,301.154,0,1,0.636,,0,162,162,68,1,non_cognate,1,REAL,FALSA
,,,,,,,,,5fbe72941cf1d201bc50c1d4,001,2025-05-04_21h23.23.370,empathy_intonation_perc,2024.1.4,Win32,60.0240096,,,,,,,,,,,,,,92,flecha,,,,,,301.154,302.291,0,1,0.608,,0,163,163,91,1,non_cognate,1,REAL,FALSA
,,,,,,,,,5fbe72941cf1d201bc50c1d4,001,2025-05-04_21h23.23.370,empathy_intonation_perc,2024.1.4,Win32,60.0240096,,,,,,,,,,,,,,155,kugis,,,,,,302.292,303.345,0,1,0.524,,0,164,164,154,1,pseudoword,0,REAL,FALSA
,,,,,,,,,5fbe72941cf1d201bc50c1d4,001,2025-05-04_21h23.23.370,empathy_intonation_perc,2024.1.4,Win32,60.0240096,,,,,,,,,,,,,,3,disco,,,,,,303.345,304.465,1,0,0.59,,0,165,165,2,1,three_way_cognate,1,REAL,FALSA
,,,,,,,,,5fbe72941cf1d201bc50c1d4,001,2025-05-04_21h23.23.370,empathy_intonation_perc,2024.1.4,Win32,60.0240096,,,,,,,,,,,,,,23,plural,,,,,,304.465,305.602,1,0,0.602,,0,166,166,22,1,three_way_cognate,1,REAL,FALSA
,,,,,,,,,5fbe72941cf1d201bc50c1d4,001,2025-05-04_21h23.23.370,empathy_intonation_perc,2024.1.4,Win32,60.0240096,,,,,,,,,,,,,,174,pabea,,,,,,305.603,306.689,0,1,0.557,,0,167,167,173,1,pseudoword,0,REAL,FALSA
,,,,,,,,,5fbe72941cf1d201bc50c1d4,001,2025-05-04_21h23.23.370,empathy_intonation_perc,2024.1.4,Win32,60.0240096,,,,,,,,,,,,,,152,prave,,,,,,306.689,307.893,0,1,0.67,,0,168,168,151,1,pseudoword,0,REAL,FALSA
,,,,,,,,,5fbe72941cf1d201bc50c1d4,001,2025-05-04_21h23.23.370,empathy_intonation_perc,2024.1.4,Win32,60.0240096,,,,,,,,,,,,,,82,brillo,,,,,,307.894,309.047,0,1,0.635,,0,169,169,81,1,non_cognate,1,REAL,FALSA
,,,,,,,,,5fbe72941cf1d201bc50c1d4,001,2025-05-04_21h23.23.370,empathy_intonation_perc,2024.1.4,Win32,60.0240096,,,,,,,,,,,,,,125,ceme,,,,,,309.048,310.285,0,1,0.712,,0,170,170,124,1,pseudoword,0,REAL,FALSA
,,,,,,,,,5fbe72941cf1d201bc50c1d4,001,2025-05-04_21h23.23.370,empathy_intonation_perc,2024.1.4,Win32,60.0240096,,,,,,,,,,,,,,91,equipo,,,,,,310.286,311.422,1,0,0.602,,0,171,171,90,1,non_cognate,1,REAL,FALSA
,,,,,,,,,5fbe72941cf1d201bc50c1d4,001,2025-05-04_21h23.23.370,empathy_intonation_perc,2024.1.4,Win32,60.0240096,,,,,,,,,,,,,,170,diabo,,,,,,311.423,312.675,0,1,0.719,,0,172,172,169,1,pseudoword,0,REAL,FALSA
,,,,,,,,,5fbe72941cf1d201bc50c1d4,001,2025-05-04_21h23.23.370,empathy_intonation_perc,2024.1.4,Win32,60.0240096,,,,,,,,,,,,,,181,gravés,,,,,,312.676,314.315,1,0,1.107,,0,173,173,180,1,pseudoword,0,REAL,FALSA
,,,,,,,,,5fbe72941cf1d201bc50c1d4,001,2025-05-04_21h23.23.370,empathy_intonation_perc,2024.1.4,Win32,60.0240096,,,,,,,,,,,,,,58,colcha,,,,,,314.315,315.435,0,1,0.588,,0,174,174,57,1,non_cognate,1,REAL,FALSA
,,,,,,,,,5fbe72941cf1d201bc50c1d4,001,2025-05-04_21h23.23.370,empathy_intonation_perc,2024.1.4,Win32,60.0240096,,,,,,,,,,,,,,101,losco,,,,,,315.436,316.524,0,1,0.566,,0,175,175,100,1,pseudoword,0,REAL,FALSA
,,,,,,,,,5fbe72941cf1d201bc50c1d4,001,2025-05-04_21h23.23.370,empathy_intonation_perc,2024.1.4,Win32,60.0240096,,,,,,,,,,,,,,64,rizado,,,,,,316.526,317.727,0,1,0.656,,0,176,176,63,1,non_cognate,1,REAL,FALSA
,,,,,,,,,5fbe72941cf1d201bc50c1d4,001,2025-05-04_21h23.23.370,empathy_intonation_perc,2024.1.4,Win32,60.0240096,,,,,,,,,,,,,,47,color,,,,,,317.729,318.83,1,0,0.561,,0,177,177,46,1,two_way_cognate,1,REAL,FALSA
,,,,,,,,,5fbe72941cf1d201bc50c1d4,001,2025-05-04_21h23.23.370,empathy_intonation_perc,2024.1.4,Win32,60.0240096,,,,,,,,,,,,,,188,amplir,,,,,,318.831,320.001,0,1,0.641,,0,178,178,187,1,pseudoword,0,REAL,FALSA
,,,,,,,,,5fbe72941cf1d201bc50c1d4,001,2025-05-04_21h23.23.370,empathy_intonation_perc,2024.1.4,Win32,60.0240096,,,,,,,,,,,,,,86,cuenco,,,,,,320.002,321.389,1,0,0.853,,0,179,179,85,1,non_cognate,1,REAL,FALSA
,,,,,,,,,5fbe72941cf1d201bc50c1d4,001,2025-05-04_21h23.23.370,empathy_intonation_perc,2024.1.4,Win32,60.0240096,,,,,,,,,,,,,,108,jauda,,,,,,321.389,322.693,0,1,0.774,,0,180,180,107,1,pseudoword,0,REAL,FALSA
,,,,,,,,,5fbe72941cf1d201bc50c1d4,001,2025-05-04_21h23.23.370,empathy_intonation_perc,2024.1.4,Win32,60.0240096,,,,,,,,,,,,,,13,plan,,,,,,322.694,323.897,1,0,0.671,,0,181,181,12,1,three_way_cognate,1,REAL,FALSA
,,,,,,,,,5fbe72941cf1d201bc50c1d4,001,2025-05-04_21h23.23.370,empathy_intonation_perc,2024.1.4,Win32,60.0240096,,,,,,,,,,,,,,31,civil,,,,,,323.898,325.285,1,0,0.849,,0,182,182,30,1,two_way_cognate,1,REAL,FALSA
,,,,,,,,,5fbe72941cf1d201bc50c1d4,001,2025-05-04_21h23.23.370,empathy_intonation_perc,2024.1.4,Win32,60.0240096,,,,,,,,,,,,,,165,chote,,,,,,325.286,326.64,0,1,0.823,,0,183,183,164,1,pseudoword,0,REAL,FALSA
,,,,,,,,,5fbe72941cf1d201bc50c1d4,001,2025-05-04_21h23.23.370,empathy_intonation_perc,2024.1.4,Win32,60.0240096,,,,,,,,,,,,,,8,kilo,,,,,,326.64,327.777,1,0,0.604,,0,184,184,7,1,three_way_cognate,1,REAL,FALSA
,,,,,,,,,5fbe72941cf1d201bc50c1d4,001,2025-05-04_21h23.23.370,empathy_intonation_perc,2024.1.4,Win32,60.0240096,,,,,,,,,,,,,,29,clamor,,,,,,327.777,329.047,0,1,0.752,,0,185,185,28,1,two_way_cognate,1,REAL,FALSA
,,,,,,,,,5fbe72941cf1d201bc50c1d4,001,2025-05-04_21h23.23.370,empathy_intonation_perc,2024.1.4,Win32,60.0240096,,,,,,,,,,,,,,142,parre,,,,,,329.048,330.185,0,1,0.614,,0,186,186,141,1,pseudoword,0,REAL,FALSA
,,,,,,,,,5fbe72941cf1d201bc50c1d4,001,2025-05-04_21h23.23.370,empathy_intonation_perc,2024.1.4,Win32,60.0240096,,,,,,,,,,,,,,35,aurora,,,,,,330.185,331.322,1,0,0.616,,0,187,187,34,1,two_way_cognate,1,REAL,FALSA
,,,,,,,,,5fbe72941cf1d201bc50c1d4,001,2025-05-04_21h23.23.370,empathy_intonation_perc,2024.1.4,Win32,60.0240096,,,,,,,,,,,,,,50,sierra,,,,,,331.322,332.577,1,0,0.727,,0,188,188,49,1,non_cognate,1,REAL,FALSA
,,,,,,,,,5fbe72941cf1d201bc50c1d4,001,2025-05-04_21h23.23.370,empathy_intonation_perc,2024.1.4,Win32,60.0240096,,,,,,,,,,,,,,191,frasis,,,,,,332.577,334.098,1,0,0.989,,0,189,189,190,1,pseudoword,0,REAL,FALSA
,,,,,,,,,5fbe72941cf1d201bc50c1d4,001,2025-05-04_21h23.23.370,empathy_intonation_perc,2024.1.4,Win32,60.0240096,,,,,,,,,,,,,,39,casual,,,,,,334.098,335.319,1,0,0.688,,0,190,190,38,1,two_way_cognate,1,REAL,FALSA
,,,,,,,,,5fbe72941cf1d201bc50c1d4,001,2025-05-04_21h23.23.370,empathy_intonation_perc,2024.1.4,Win32,60.0240096,,,,,,,,,,,,,,157,seled,,,,,,335.32,336.707,0,1,0.858,,0,191,191,156,1,pseudoword,0,REAL,FALSA
