lextale_instructions.started,lextale_instructions.stopped,lextale_instructions_loop.thisRepN,lextale_instructions_loop.thisTrialN,lextale_instructions_loop.thisN,lextale_instructions_loop.thisIndex,lextale_instructions_loop.ran,instructions_text,continue_text,participant,session,date,expName,psychopyVersion,OS,frameRate,lextale_practice.started,lextale_practice.stopped,key_resp_lextale_practice.keys,key_resp_lextale_practice.corr,key_resp_lextale_practice.rt,key_resp_lextale_practice.duration,lextale_practice_feedback.started,lextale_practice_feedback.stopped,lextale_practice_trials.thisRepN,lextale_practice_trials.thisTrialN,lextale_practice_trials.thisN,lextale_practice_trials.thisIndex,lextale_practice_trials.ran,stim,word,correct_response,prac_button_real,prac_button_false,lextale_check.started,lextale_check.stopped,lextale_trial.started,lextale_trial.stopped,key_resp_lextale_trial.keys,key_resp_lextale_trial.corr,key_resp_lextale_trial.rt,key_resp_lextale_trial.duration,lextail_trials.thisRepN,lextail_trials.thisTrialN,lextail_trials.thisN,lextail_trials.thisIndex,lextail_trials.ran,type,correct_reponse,button_real,button_false
0.0048,4.9218,0,0,0,0,1,"Este es un test de vocabulario en español. 
  
  A continuación vas a ver 90 secuencias de letras que parecen 'españolas'.
  
  Solo algunas de ellas son palabras de verdad.",(presiona la barra espaciadora para continuar),6027eac2f4090f09439ee8e4,001,2025-04-30_21h10.50.393,empathy_intonation_perc,2024.1.4,MacIntel,27.62430939,,,,,,,,,,,,,,,,,,,,,,,,,,,,,,,,,,,
4.9226,6.6731,0,1,1,1,1,"Por favor, señala las palabras que tú conoces (aquellas que estás convencido que son palabras españolas, incluso aunque no seas capaz de dar el significado preciso).",(presiona la barra espaciadora para continuar),6027eac2f4090f09439ee8e4,001,2025-04-30_21h10.50.393,empathy_intonation_perc,2024.1.4,MacIntel,27.62430939,,,,,,,,,,,,,,,,,,,,,,,,,,,,,,,,,,,
6.6735,11.1317,0,2,2,2,1,Pero cuidado: los errores se penalizan. Por eso no tiene sentido tratar de incrementar tu puntuación marcando como reales palabras que nunca has visto.,(presiona la barra espaciadora para continuar),6027eac2f4090f09439ee8e4,001,2025-04-30_21h10.50.393,empathy_intonation_perc,2024.1.4,MacIntel,27.62430939,,,,,,,,,,,,,,,,,,,,,,,,,,,,,,,,,,,
11.132,15.8957,0,3,3,3,1,"Presiona la tecla 1 si piensas que es una palabra real y la tecla 
  0 si piensas que es una palabra falsa. 
  
  Vamos a practicar un poco...",(presiona la barra espaciadora para continuar),6027eac2f4090f09439ee8e4,001,2025-04-30_21h10.50.393,empathy_intonation_perc,2024.1.4,MacIntel,27.62430939,,,,,,,,,,,,,,,,,,,,,,,,,,,,,,,,,,,
,,,,,,,,,6027eac2f4090f09439ee8e4,001,2025-04-30_21h10.50.393,empathy_intonation_perc,2024.1.4,MacIntel,27.62430939,15.8995,18.3806,1,0,1.9359,,18.3809,19.3907,0,0,0,0,1,0,depiste,0,REAL,FALSA,,,,,,,,,,,,,,,,,
,,,,,,,,,6027eac2f4090f09439ee8e4,001,2025-04-30_21h10.50.393,empathy_intonation_perc,2024.1.4,MacIntel,27.62430939,19.3917,20.6515,1,1,0.7185,,20.6516,21.6438,0,1,1,1,1,0,sí,1,REAL,FALSA,,,,,,,,,,,,,,,,,
,,,,,,,,,6027eac2f4090f09439ee8e4,001,2025-04-30_21h10.50.393,empathy_intonation_perc,2024.1.4,MacIntel,27.62430939,21.6442,22.8114,0,1,0.634,,22.8114,23.8109,0,2,2,2,1,0,coné,0,REAL,FALSA,,,,,,,,,,,,,,,,,
,,,,,,,,,6027eac2f4090f09439ee8e4,001,2025-04-30_21h10.50.393,empathy_intonation_perc,2024.1.4,MacIntel,27.62430939,23.8114,24.9686,1,0,0.6054,,24.9687,25.9656,0,3,3,3,1,0,calpar,0,REAL,FALSA,,,,,,,,,,,,,,,,,
,,,,,,,,,6027eac2f4090f09439ee8e4,001,2025-04-30_21h10.50.393,empathy_intonation_perc,2024.1.4,MacIntel,27.62430939,25.9661,27.1052,0,1,0.5872,,27.1052,28.1161,0,4,4,4,1,0,joten,0,REAL,FALSA,,,,,,,,,,,,,,,,,
,,,,,,,,,6027eac2f4090f09439ee8e4,001,2025-04-30_21h10.50.393,empathy_intonation_perc,2024.1.4,MacIntel,27.62430939,28.1168,29.3013,0,0,0.6435,,29.3014,30.2899,0,5,5,5,1,0,sacapuntas,1,REAL,FALSA,,,,,,,,,,,,,,,,,
,,,,,,,,,6027eac2f4090f09439ee8e4,001,2025-04-30_21h10.50.393,empathy_intonation_perc,2024.1.4,MacIntel,27.62430939,30.2902,31.5401,0,1,0.7169,,31.5402,32.5294,0,6,6,6,1,0,priba,0,REAL,FALSA,,,,,,,,,,,,,,,,,
,,,,,,,,,6027eac2f4090f09439ee8e4,001,2025-04-30_21h10.50.393,empathy_intonation_perc,2024.1.4,MacIntel,27.62430939,32.5298,33.8627,0,1,0.7953,,33.8628,34.8645,0,7,7,7,1,0,pelasula,0,REAL,FALSA,,,,,,,,,,,,,,,,,
,,,,,,,,,6027eac2f4090f09439ee8e4,001,2025-04-30_21h10.50.393,empathy_intonation_perc,2024.1.4,MacIntel,27.62430939,34.8649,35.9446,1,1,0.5414,,35.9447,36.9489,0,8,8,8,1,0,bien,1,REAL,FALSA,,,,,,,,,,,,,,,,,
,,,,,,,,,6027eac2f4090f09439ee8e4,001,2025-04-30_21h10.50.393,empathy_intonation_perc,2024.1.4,MacIntel,27.62430939,36.9493,38.0267,1,1,0.533,,38.0268,39.0218,0,9,9,9,1,0,casa,1,REAL,FALSA,,,,,,,,,,,,,,,,,
,,,,,,,,,6027eac2f4090f09439ee8e4,001,2025-04-30_21h10.50.393,empathy_intonation_perc,2024.1.4,MacIntel,27.62430939,39.0228,40.1716,1,0,0.5919,,40.1716,41.1679,0,10,10,10,1,0,lejo,0,REAL,FALSA,,,,,,,,,,,,,,,,,
,,,,,,,,,6027eac2f4090f09439ee8e4,001,2025-04-30_21h10.50.393,empathy_intonation_perc,2024.1.4,MacIntel,27.62430939,41.1683,42.3534,0,1,0.6465,,42.3535,43.3507,0,11,11,11,1,0,pretantas,0,REAL,FALSA,,,,,,,,,,,,,,,,,
,,,,,,,,,6027eac2f4090f09439ee8e4,001,2025-04-30_21h10.50.393,empathy_intonation_perc,2024.1.4,MacIntel,27.62430939,,,,,,,,,,,,,,,,,,,43.3512,45.4657,,,,,,,,,,,,,,,
,,,,,,,,,6027eac2f4090f09439ee8e4,001,2025-04-30_21h10.50.393,empathy_intonation_perc,2024.1.4,MacIntel,27.62430939,,,,,,,,,,,,,,123,arane,,,,,,45.493,46.6949,0,1,0.669,,0,0,0,122,1,pseudoword,0,REAL,FALSA
,,,,,,,,,6027eac2f4090f09439ee8e4,001,2025-04-30_21h10.50.393,empathy_intonation_perc,2024.1.4,MacIntel,27.62430939,,,,,,,,,,,,,,42,rumor,,,,,,46.6955,47.8243,1,0,0.5905,,0,1,1,41,1,two_way_cognate,1,REAL,FALSA
,,,,,,,,,6027eac2f4090f09439ee8e4,001,2025-04-30_21h10.50.393,empathy_intonation_perc,2024.1.4,MacIntel,27.62430939,,,,,,,,,,,,,,19,mafia,,,,,,47.8247,49.0205,1,0,0.6596,,0,2,2,18,1,three_way_cognate,1,REAL,FALSA
,,,,,,,,,6027eac2f4090f09439ee8e4,001,2025-04-30_21h10.50.393,empathy_intonation_perc,2024.1.4,MacIntel,27.62430939,,,,,,,,,,,,,,170,diabo,,,,,,49.0212,50.2247,0,1,0.6681,,0,3,3,169,1,pseudoword,0,REAL,FALSA
,,,,,,,,,6027eac2f4090f09439ee8e4,001,2025-04-30_21h10.50.393,empathy_intonation_perc,2024.1.4,MacIntel,27.62430939,,,,,,,,,,,,,,43,honor,,,,,,50.2251,51.4301,1,0,0.6523,,0,4,4,42,1,two_way_cognate,1,REAL,FALSA
,,,,,,,,,6027eac2f4090f09439ee8e4,001,2025-04-30_21h10.50.393,empathy_intonation_perc,2024.1.4,MacIntel,27.62430939,,,,,,,,,,,,,,162,cengo,,,,,,51.4305,52.7066,0,1,0.7295,,0,5,5,161,1,pseudoword,0,REAL,FALSA
,,,,,,,,,6027eac2f4090f09439ee8e4,001,2025-04-30_21h10.50.393,empathy_intonation_perc,2024.1.4,MacIntel,27.62430939,,,,,,,,,,,,,,49,teñir,,,,,,52.7076,54.1153,0,1,0.8743,,0,6,6,48,1,non_cognate,1,REAL,FALSA
,,,,,,,,,6027eac2f4090f09439ee8e4,001,2025-04-30_21h10.50.393,empathy_intonation_perc,2024.1.4,MacIntel,27.62430939,,,,,,,,,,,,,,90,venado,,,,,,54.1158,55.4474,0,1,0.7782,,0,7,7,89,1,non_cognate,1,REAL,FALSA
,,,,,,,,,6027eac2f4090f09439ee8e4,001,2025-04-30_21h10.50.393,empathy_intonation_perc,2024.1.4,MacIntel,27.62430939,,,,,,,,,,,,,,180,pupica,,,,,,55.4478,56.6279,0,1,0.6512,,0,8,8,179,1,pseudoword,0,REAL,FALSA
,,,,,,,,,6027eac2f4090f09439ee8e4,001,2025-04-30_21h10.50.393,empathy_intonation_perc,2024.1.4,MacIntel,27.62430939,,,,,,,,,,,,,,48,pelvis,,,,,,56.6284,57.7414,0,1,0.5767,,0,9,9,47,1,two_way_cognate,1,REAL,FALSA
,,,,,,,,,6027eac2f4090f09439ee8e4,001,2025-04-30_21h10.50.393,empathy_intonation_perc,2024.1.4,MacIntel,27.62430939,,,,,,,,,,,,,,187,nomata,,,,,,57.7419,59.0137,0,1,0.7356,,0,10,10,186,1,pseudoword,0,REAL,FALSA
,,,,,,,,,6027eac2f4090f09439ee8e4,001,2025-04-30_21h10.50.393,empathy_intonation_perc,2024.1.4,MacIntel,27.62430939,,,,,,,,,,,,,,98,martir,,,,,,59.0141,60.0549,1,0,0.5057,,0,11,11,97,1,pseudoword,0,REAL,FALSA
,,,,,,,,,6027eac2f4090f09439ee8e4,001,2025-04-30_21h10.50.393,empathy_intonation_perc,2024.1.4,MacIntel,27.62430939,,,,,,,,,,,,,,141,virios,,,,,,60.0553,61.4139,0,1,0.811,,0,12,12,140,1,pseudoword,0,REAL,FALSA
,,,,,,,,,6027eac2f4090f09439ee8e4,001,2025-04-30_21h10.50.393,empathy_intonation_perc,2024.1.4,MacIntel,27.62430939,,,,,,,,,,,,,,50,sierra,,,,,,61.4143,62.55,1,0,0.5932,,0,13,13,49,1,non_cognate,1,REAL,FALSA
,,,,,,,,,6027eac2f4090f09439ee8e4,001,2025-04-30_21h10.50.393,empathy_intonation_perc,2024.1.4,MacIntel,27.62430939,,,,,,,,,,,,,,188,amplir,,,,,,62.5504,63.8692,1,0,0.7732,,0,14,14,187,1,pseudoword,0,REAL,FALSA
,,,,,,,,,6027eac2f4090f09439ee8e4,001,2025-04-30_21h10.50.393,empathy_intonation_perc,2024.1.4,MacIntel,27.62430939,,,,,,,,,,,,,,15,test,,,,,,63.8696,64.9743,1,0,0.5762,,0,15,15,14,1,three_way_cognate,1,REAL,FALSA
,,,,,,,,,6027eac2f4090f09439ee8e4,001,2025-04-30_21h10.50.393,empathy_intonation_perc,2024.1.4,MacIntel,27.62430939,,,,,,,,,,,,,,169,pitis,,,,,,64.9746,66.1331,0,1,0.6125,,0,16,16,168,1,pseudoword,0,REAL,FALSA
,,,,,,,,,6027eac2f4090f09439ee8e4,001,2025-04-30_21h10.50.393,empathy_intonation_perc,2024.1.4,MacIntel,27.62430939,,,,,,,,,,,,,,148,gino,,,,,,66.1334,67.181,0,1,0.4997,,0,17,17,147,1,pseudoword,0,REAL,FALSA
,,,,,,,,,6027eac2f4090f09439ee8e4,001,2025-04-30_21h10.50.393,empathy_intonation_perc,2024.1.4,MacIntel,27.62430939,,,,,,,,,,,,,,17,clan,,,,,,67.1814,68.3582,0,1,0.6443,,0,18,18,16,1,three_way_cognate,1,REAL,FALSA
,,,,,,,,,6027eac2f4090f09439ee8e4,001,2025-04-30_21h10.50.393,empathy_intonation_perc,2024.1.4,MacIntel,27.62430939,,,,,,,,,,,,,,110,densó,,,,,,68.3587,69.767,1,0,0.8732,,0,19,19,109,1,pseudoword,0,REAL,FALSA
,,,,,,,,,6027eac2f4090f09439ee8e4,001,2025-04-30_21h10.50.393,empathy_intonation_perc,2024.1.4,MacIntel,27.62430939,,,,,,,,,,,,,,68,puñal,,,,,,69.7675,70.9252,0,1,0.6093,,0,20,20,67,1,non_cognate,1,REAL,FALSA
,,,,,,,,,6027eac2f4090f09439ee8e4,001,2025-04-30_21h10.50.393,empathy_intonation_perc,2024.1.4,MacIntel,27.62430939,,,,,,,,,,,,,,25,vigor,,,,,,70.9257,71.9587,0,1,0.497,,0,21,21,24,1,two_way_cognate,1,REAL,FALSA
,,,,,,,,,6027eac2f4090f09439ee8e4,001,2025-04-30_21h10.50.393,empathy_intonation_perc,2024.1.4,MacIntel,27.62430939,,,,,,,,,,,,,,56,pico,,,,,,71.9591,73.3564,1,0,0.8598,,0,22,22,55,1,non_cognate,1,REAL,FALSA
,,,,,,,,,6027eac2f4090f09439ee8e4,001,2025-04-30_21h10.50.393,empathy_intonation_perc,2024.1.4,MacIntel,27.62430939,,,,,,,,,,,,,,159,trcia,,,,,,73.3567,74.381,0,1,0.4787,,0,23,23,158,1,pseudoword,0,REAL,FALSA
,,,,,,,,,6027eac2f4090f09439ee8e4,001,2025-04-30_21h10.50.393,empathy_intonation_perc,2024.1.4,MacIntel,27.62430939,,,,,,,,,,,,,,57,regalo,,,,,,74.3813,75.5007,0,1,0.5697,,0,24,24,56,1,non_cognate,1,REAL,FALSA
,,,,,,,,,6027eac2f4090f09439ee8e4,001,2025-04-30_21h10.50.393,empathy_intonation_perc,2024.1.4,MacIntel,27.62430939,,,,,,,,,,,,,,143,hurcos,,,,,,75.5012,76.9801,0,1,0.9427,,0,25,25,142,1,pseudoword,0,REAL,FALSA
,,,,,,,,,6027eac2f4090f09439ee8e4,001,2025-04-30_21h10.50.393,empathy_intonation_perc,2024.1.4,MacIntel,27.62430939,,,,,,,,,,,,,,129,vinzó,,,,,,76.9807,78.2321,1,0,0.7076,,0,26,26,128,1,pseudoword,0,REAL,FALSA
,,,,,,,,,6027eac2f4090f09439ee8e4,001,2025-04-30_21h10.50.393,empathy_intonation_perc,2024.1.4,MacIntel,27.62430939,,,,,,,,,,,,,,61,aduana,,,,,,78.2325,79.505,1,0,0.7405,,0,27,27,60,1,non_cognate,1,REAL,FALSA
,,,,,,,,,6027eac2f4090f09439ee8e4,001,2025-04-30_21h10.50.393,empathy_intonation_perc,2024.1.4,MacIntel,27.62430939,,,,,,,,,,,,,,81,sacar,,,,,,79.5053,80.7888,0,1,0.7488,,0,28,28,80,1,non_cognate,1,REAL,FALSA
,,,,,,,,,6027eac2f4090f09439ee8e4,001,2025-04-30_21h10.50.393,empathy_intonation_perc,2024.1.4,MacIntel,27.62430939,,,,,,,,,,,,,,73,llevar,,,,,,80.7896,81.9824,1,0,0.6477,,0,29,29,72,1,non_cognate,1,REAL,FALSA
,,,,,,,,,6027eac2f4090f09439ee8e4,001,2025-04-30_21h10.50.393,empathy_intonation_perc,2024.1.4,MacIntel,27.62430939,,,,,,,,,,,,,,60,siglo,,,,,,81.9828,83.9575,1,0,1.441,,0,30,30,59,1,non_cognate,1,REAL,FALSA
,,,,,,,,,6027eac2f4090f09439ee8e4,001,2025-04-30_21h10.50.393,empathy_intonation_perc,2024.1.4,MacIntel,27.62430939,,,,,,,,,,,,,,157,seled,,,,,,83.9579,85.055,0,1,0.5657,,0,31,31,156,1,pseudoword,0,REAL,FALSA
,,,,,,,,,6027eac2f4090f09439ee8e4,001,2025-04-30_21h10.50.393,empathy_intonation_perc,2024.1.4,MacIntel,27.62430939,,,,,,,,,,,,,,95,listo,,,,,,85.0553,86.4994,1,0,0.9113,,0,32,32,94,1,non_cognate,1,REAL,FALSA
,,,,,,,,,6027eac2f4090f09439ee8e4,001,2025-04-30_21h10.50.393,empathy_intonation_perc,2024.1.4,MacIntel,27.62430939,,,,,,,,,,,,,,72,rostro,,,,,,86.4996,87.9631,0,1,0.9416,,0,33,33,71,1,non_cognate,1,REAL,FALSA
,,,,,,,,,6027eac2f4090f09439ee8e4,001,2025-04-30_21h10.50.393,empathy_intonation_perc,2024.1.4,MacIntel,27.62430939,,,,,,,,,,,,,,30,fiscal,,,,,,87.9632,89.2458,1,0,0.7601,,0,34,34,29,1,two_way_cognate,1,REAL,FALSA
,,,,,,,,,6027eac2f4090f09439ee8e4,001,2025-04-30_21h10.50.393,empathy_intonation_perc,2024.1.4,MacIntel,27.62430939,,,,,,,,,,,,,,172,dogue,,,,,,89.2462,90.5235,0,1,0.7397,,0,35,35,171,1,pseudoword,0,REAL,FALSA
,,,,,,,,,6027eac2f4090f09439ee8e4,001,2025-04-30_21h10.50.393,empathy_intonation_perc,2024.1.4,MacIntel,27.62430939,,,,,,,,,,,,,,36,viable,,,,,,90.5238,91.5791,1,0,0.5197,,0,36,36,35,1,two_way_cognate,1,REAL,FALSA
,,,,,,,,,6027eac2f4090f09439ee8e4,001,2025-04-30_21h10.50.393,empathy_intonation_perc,2024.1.4,MacIntel,27.62430939,,,,,,,,,,,,,,117,morrá,,,,,,91.5794,92.7191,0,1,0.6082,,0,37,37,116,1,pseudoword,0,REAL,FALSA
,,,,,,,,,6027eac2f4090f09439ee8e4,001,2025-04-30_21h10.50.393,empathy_intonation_perc,2024.1.4,MacIntel,27.62430939,,,,,,,,,,,,,,39,casual,,,,,,92.7196,93.8441,1,0,0.5859,,0,38,38,38,1,two_way_cognate,1,REAL,FALSA
,,,,,,,,,6027eac2f4090f09439ee8e4,001,2025-04-30_21h10.50.393,empathy_intonation_perc,2024.1.4,MacIntel,27.62430939,,,,,,,,,,,,,,99,bugor,,,,,,93.8449,95.0247,0,1,0.6529,,0,39,39,98,1,pseudoword,0,REAL,FALSA
,,,,,,,,,6027eac2f4090f09439ee8e4,001,2025-04-30_21h10.50.393,empathy_intonation_perc,2024.1.4,MacIntel,27.62430939,,,,,,,,,,,,,,156,ozoso,,,,,,95.025,96.3042,0,1,0.7435,,0,40,40,155,1,pseudoword,0,REAL,FALSA
,,,,,,,,,6027eac2f4090f09439ee8e4,001,2025-04-30_21h10.50.393,empathy_intonation_perc,2024.1.4,MacIntel,27.62430939,,,,,,,,,,,,,,23,plural,,,,,,96.3045,97.538,1,0,0.7051,,0,41,41,22,1,three_way_cognate,1,REAL,FALSA
,,,,,,,,,6027eac2f4090f09439ee8e4,001,2025-04-30_21h10.50.393,empathy_intonation_perc,2024.1.4,MacIntel,27.62430939,,,,,,,,,,,,,,101,losco,,,,,,97.5386,98.798,0,1,0.7094,,0,42,42,100,1,pseudoword,0,REAL,FALSA
,,,,,,,,,6027eac2f4090f09439ee8e4,001,2025-04-30_21h10.50.393,empathy_intonation_perc,2024.1.4,MacIntel,27.62430939,,,,,,,,,,,,,,113,nasce,,,,,,98.7984,99.8715,0,1,0.5425,,0,43,43,112,1,pseudoword,0,REAL,FALSA
,,,,,,,,,6027eac2f4090f09439ee8e4,001,2025-04-30_21h10.50.393,empathy_intonation_perc,2024.1.4,MacIntel,27.62430939,,,,,,,,,,,,,,47,color,,,,,,99.8719,100.9905,1,0,0.5659,,0,44,44,46,1,two_way_cognate,1,REAL,FALSA
,,,,,,,,,6027eac2f4090f09439ee8e4,001,2025-04-30_21h10.50.393,empathy_intonation_perc,2024.1.4,MacIntel,27.62430939,,,,,,,,,,,,,,105,peniz,,,,,,100.9913,102.1123,0,1,0.5739,,0,45,45,104,1,pseudoword,0,REAL,FALSA
,,,,,,,,,6027eac2f4090f09439ee8e4,001,2025-04-30_21h10.50.393,empathy_intonation_perc,2024.1.4,MacIntel,27.62430939,,,,,,,,,,,,,,76,chocar,,,,,,102.1128,103.5559,1,0,0.9069,,0,46,46,75,1,non_cognate,1,REAL,FALSA
,,,,,,,,,6027eac2f4090f09439ee8e4,001,2025-04-30_21h10.50.393,empathy_intonation_perc,2024.1.4,MacIntel,27.62430939,,,,,,,,,,,,,,62,pegar,,,,,,103.5562,104.8694,0,1,0.7802,,0,47,47,61,1,non_cognate,1,REAL,FALSA
,,,,,,,,,6027eac2f4090f09439ee8e4,001,2025-04-30_21h10.50.393,empathy_intonation_perc,2024.1.4,MacIntel,27.62430939,,,,,,,,,,,,,,122,boñaz,,,,,,104.8698,106.0644,0,1,0.6554,,0,48,48,121,1,pseudoword,0,REAL,FALSA
,,,,,,,,,6027eac2f4090f09439ee8e4,001,2025-04-30_21h10.50.393,empathy_intonation_perc,2024.1.4,MacIntel,27.62430939,,,,,,,,,,,,,,59,feo,,,,,,106.0648,107.2118,0,1,0.6273,,0,49,49,58,1,non_cognate,1,REAL,FALSA
,,,,,,,,,6027eac2f4090f09439ee8e4,001,2025-04-30_21h10.50.393,empathy_intonation_perc,2024.1.4,MacIntel,27.62430939,,,,,,,,,,,,,,22,mango,,,,,,107.2122,108.4252,1,0,0.6756,,0,50,50,21,1,three_way_cognate,1,REAL,FALSA
,,,,,,,,,6027eac2f4090f09439ee8e4,001,2025-04-30_21h10.50.393,empathy_intonation_perc,2024.1.4,MacIntel,27.62430939,,,,,,,,,,,,,,149,emén,,,,,,108.4257,109.4988,0,1,0.5338,,0,51,51,148,1,pseudoword,0,REAL,FALSA
,,,,,,,,,6027eac2f4090f09439ee8e4,001,2025-04-30_21h10.50.393,empathy_intonation_perc,2024.1.4,MacIntel,27.62430939,,,,,,,,,,,,,,185,aljizo,,,,,,109.4992,110.555,0,1,0.501,,0,52,52,184,1,pseudoword,0,REAL,FALSA
,,,,,,,,,6027eac2f4090f09439ee8e4,001,2025-04-30_21h10.50.393,empathy_intonation_perc,2024.1.4,MacIntel,27.62430939,,,,,,,,,,,,,,44,editor,,,,,,110.5554,111.7387,1,0,0.6418,,0,53,53,43,1,two_way_cognate,1,REAL,FALSA
,,,,,,,,,6027eac2f4090f09439ee8e4,001,2025-04-30_21h10.50.393,empathy_intonation_perc,2024.1.4,MacIntel,27.62430939,,,,,,,,,,,,,,4,flora,,,,,,111.7391,112.8753,1,0,0.604,,0,54,54,3,1,three_way_cognate,1,REAL,FALSA
,,,,,,,,,6027eac2f4090f09439ee8e4,001,2025-04-30_21h10.50.393,empathy_intonation_perc,2024.1.4,MacIntel,27.62430939,,,,,,,,,,,,,,146,gió,,,,,,112.8757,114.1328,0,1,0.724,,0,55,55,145,1,pseudoword,0,REAL,FALSA
,,,,,,,,,6027eac2f4090f09439ee8e4,001,2025-04-30_21h10.50.393,empathy_intonation_perc,2024.1.4,MacIntel,27.62430939,,,,,,,,,,,,,,119,esís,,,,,,114.1333,115.2091,0,1,0.5396,,0,56,56,118,1,pseudoword,0,REAL,FALSA
,,,,,,,,,6027eac2f4090f09439ee8e4,001,2025-04-30_21h10.50.393,empathy_intonation_perc,2024.1.4,MacIntel,27.62430939,,,,,,,,,,,,,,85,enorme,,,,,,115.2095,116.5508,0,1,0.803,,0,57,57,84,1,non_cognate,1,REAL,FALSA
,,,,,,,,,6027eac2f4090f09439ee8e4,001,2025-04-30_21h10.50.393,empathy_intonation_perc,2024.1.4,MacIntel,27.62430939,,,,,,,,,,,,,,3,disco,,,,,,116.5513,117.756,1,0,0.6783,,0,58,58,2,1,three_way_cognate,1,REAL,FALSA
,,,,,,,,,6027eac2f4090f09439ee8e4,001,2025-04-30_21h10.50.393,empathy_intonation_perc,2024.1.4,MacIntel,27.62430939,,,,,,,,,,,,,,182,desaro,,,,,,117.7565,119.0381,0,1,0.748,,0,59,59,181,1,pseudoword,0,REAL,FALSA
,,,,,,,,,6027eac2f4090f09439ee8e4,001,2025-04-30_21h10.50.393,empathy_intonation_perc,2024.1.4,MacIntel,27.62430939,,,,,,,,,,,,,,142,parre,,,,,,119.0385,120.0887,0,1,0.5116,,0,60,60,141,1,pseudoword,0,REAL,FALSA
,,,,,,,,,6027eac2f4090f09439ee8e4,001,2025-04-30_21h10.50.393,empathy_intonation_perc,2024.1.4,MacIntel,27.62430939,,,,,,,,,,,,,,137,trugo,,,,,,120.0894,121.1072,0,1,0.4824,,0,61,61,136,1,pseudoword,0,REAL,FALSA
,,,,,,,,,6027eac2f4090f09439ee8e4,001,2025-04-30_21h10.50.393,empathy_intonation_perc,2024.1.4,MacIntel,27.62430939,,,,,,,,,,,,,,132,nocó,,,,,,121.1077,122.4882,0,1,0.8467,,0,62,62,131,1,pseudoword,0,REAL,FALSA
,,,,,,,,,6027eac2f4090f09439ee8e4,001,2025-04-30_21h10.50.393,empathy_intonation_perc,2024.1.4,MacIntel,27.62430939,,,,,,,,,,,,,,31,civil,,,,,,122.4888,123.6811,1,0,0.658,,0,63,63,30,1,two_way_cognate,1,REAL,FALSA
,,,,,,,,,6027eac2f4090f09439ee8e4,001,2025-04-30_21h10.50.393,empathy_intonation_perc,2024.1.4,MacIntel,27.62430939,,,,,,,,,,,,,,78,rendir,,,,,,123.6815,124.7136,0,1,0.4926,,0,64,64,77,1,non_cognate,1,REAL,FALSA
,,,,,,,,,6027eac2f4090f09439ee8e4,001,2025-04-30_21h10.50.393,empathy_intonation_perc,2024.1.4,MacIntel,27.62430939,,,,,,,,,,,,,,55,maldad,,,,,,124.714,126.004,1,0,0.76,,0,65,65,54,1,non_cognate,1,REAL,FALSA
,,,,,,,,,6027eac2f4090f09439ee8e4,001,2025-04-30_21h10.50.393,empathy_intonation_perc,2024.1.4,MacIntel,27.62430939,,,,,,,,,,,,,,160,fomeó,,,,,,126.0043,127.0481,0,1,0.4948,,0,66,66,159,1,pseudoword,0,REAL,FALSA
,,,,,,,,,6027eac2f4090f09439ee8e4,001,2025-04-30_21h10.50.393,empathy_intonation_perc,2024.1.4,MacIntel,27.62430939,,,,,,,,,,,,,,131,fuar,,,,,,127.0485,128.1193,0,1,0.529,,0,67,67,130,1,pseudoword,0,REAL,FALSA
,,,,,,,,,6027eac2f4090f09439ee8e4,001,2025-04-30_21h10.50.393,empathy_intonation_perc,2024.1.4,MacIntel,27.62430939,,,,,,,,,,,,,,106,diebro,,,,,,128.1198,129.1681,0,1,0.5051,,0,68,68,105,1,pseudoword,0,REAL,FALSA
,,,,,,,,,6027eac2f4090f09439ee8e4,001,2025-04-30_21h10.50.393,empathy_intonation_perc,2024.1.4,MacIntel,27.62430939,,,,,,,,,,,,,,192,próces,,,,,,129.1685,130.1066,0,1,0.3996,,0,69,69,191,1,pseudoword,0,REAL,FALSA
,,,,,,,,,6027eac2f4090f09439ee8e4,001,2025-04-30_21h10.50.393,empathy_intonation_perc,2024.1.4,MacIntel,27.62430939,,,,,,,,,,,,,,120,mauja,,,,,,130.1071,131.2034,0,1,0.5481,,0,70,70,119,1,pseudoword,0,REAL,FALSA
,,,,,,,,,6027eac2f4090f09439ee8e4,001,2025-04-30_21h10.50.393,empathy_intonation_perc,2024.1.4,MacIntel,27.62430939,,,,,,,,,,,,,,69,tiza,,,,,,131.2038,132.2059,0,1,0.4828,,0,71,71,68,1,non_cognate,1,REAL,FALSA
,,,,,,,,,6027eac2f4090f09439ee8e4,001,2025-04-30_21h10.50.393,empathy_intonation_perc,2024.1.4,MacIntel,27.62430939,,,,,,,,,,,,,,183,edioso,,,,,,132.2062,133.1565,0,1,0.4038,,0,72,72,182,1,pseudoword,0,REAL,FALSA
,,,,,,,,,6027eac2f4090f09439ee8e4,001,2025-04-30_21h10.50.393,empathy_intonation_perc,2024.1.4,MacIntel,27.62430939,,,,,,,,,,,,,,130,dubo,,,,,,133.1568,134.2474,0,1,0.5612,,0,73,73,129,1,pseudoword,0,REAL,FALSA
,,,,,,,,,6027eac2f4090f09439ee8e4,001,2025-04-30_21h10.50.393,empathy_intonation_perc,2024.1.4,MacIntel,27.62430939,,,,,,,,,,,,,,178,inichó,,,,,,134.2479,135.1687,0,1,0.3825,,0,74,74,177,1,pseudoword,0,REAL,FALSA
,,,,,,,,,6027eac2f4090f09439ee8e4,001,2025-04-30_21h10.50.393,empathy_intonation_perc,2024.1.4,MacIntel,27.62430939,,,,,,,,,,,,,,103,vueras,,,,,,135.169,136.1763,0,1,0.4715,,0,75,75,102,1,pseudoword,0,REAL,FALSA
,,,,,,,,,6027eac2f4090f09439ee8e4,001,2025-04-30_21h10.50.393,empathy_intonation_perc,2024.1.4,MacIntel,27.62430939,,,,,,,,,,,,,,158,babrá,,,,,,136.1768,137.3578,0,1,0.6343,,0,76,76,157,1,pseudoword,0,REAL,FALSA
,,,,,,,,,6027eac2f4090f09439ee8e4,001,2025-04-30_21h10.50.393,empathy_intonation_perc,2024.1.4,MacIntel,27.62430939,,,,,,,,,,,,,,125,ceme,,,,,,137.3583,138.3444,0,1,0.4489,,0,77,77,124,1,pseudoword,0,REAL,FALSA
,,,,,,,,,6027eac2f4090f09439ee8e4,001,2025-04-30_21h10.50.393,empathy_intonation_perc,2024.1.4,MacIntel,27.62430939,,,,,,,,,,,,,,21,hotel,,,,,,138.3448,139.4933,1,0,0.5931,,0,78,78,20,1,three_way_cognate,1,REAL,FALSA
,,,,,,,,,6027eac2f4090f09439ee8e4,001,2025-04-30_21h10.50.393,empathy_intonation_perc,2024.1.4,MacIntel,27.62430939,,,,,,,,,,,,,,97,nocita,,,,,,139.4936,140.7343,0,1,0.7049,,0,79,79,96,1,pseudoword,0,REAL,FALSA
,,,,,,,,,6027eac2f4090f09439ee8e4,001,2025-04-30_21h10.50.393,empathy_intonation_perc,2024.1.4,MacIntel,27.62430939,,,,,,,,,,,,,,93,tapa,,,,,,140.7347,141.7189,0,1,0.4338,,0,80,80,92,1,non_cognate,1,REAL,FALSA
,,,,,,,,,6027eac2f4090f09439ee8e4,001,2025-04-30_21h10.50.393,empathy_intonation_perc,2024.1.4,MacIntel,27.62430939,,,,,,,,,,,,,,147,alla,,,,,,141.7193,143.123,1,0,0.8521,,0,81,81,146,1,pseudoword,0,REAL,FALSA
,,,,,,,,,6027eac2f4090f09439ee8e4,001,2025-04-30_21h10.50.393,empathy_intonation_perc,2024.1.4,MacIntel,27.62430939,,,,,,,,,,,,,,153,golla,,,,,,143.1234,144.3143,0,1,0.6512,,0,82,82,152,1,pseudoword,0,REAL,FALSA
,,,,,,,,,6027eac2f4090f09439ee8e4,001,2025-04-30_21h10.50.393,empathy_intonation_perc,2024.1.4,MacIntel,27.62430939,,,,,,,,,,,,,,189,medium,,,,,,144.3146,145.4439,1,0,0.5811,,0,83,83,188,1,pseudoword,0,REAL,FALSA
,,,,,,,,,6027eac2f4090f09439ee8e4,001,2025-04-30_21h10.50.393,empathy_intonation_perc,2024.1.4,MacIntel,27.62430939,,,,,,,,,,,,,,171,gotro,,,,,,145.4443,146.771,0,1,0.7786,,0,84,84,170,1,pseudoword,0,REAL,FALSA
,,,,,,,,,6027eac2f4090f09439ee8e4,001,2025-04-30_21h10.50.393,empathy_intonation_perc,2024.1.4,MacIntel,27.62430939,,,,,,,,,,,,,,89,muñeca,,,,,,146.7715,147.7476,0,1,0.4398,,0,85,85,88,1,non_cognate,1,REAL,FALSA
,,,,,,,,,6027eac2f4090f09439ee8e4,001,2025-04-30_21h10.50.393,empathy_intonation_perc,2024.1.4,MacIntel,27.62430939,,,,,,,,,,,,,,139,sasos,,,,,,147.7479,149.2121,0,1,0.9143,,0,86,86,138,1,pseudoword,0,REAL,FALSA
,,,,,,,,,6027eac2f4090f09439ee8e4,001,2025-04-30_21h10.50.393,empathy_intonation_perc,2024.1.4,MacIntel,27.62430939,,,,,,,,,,,,,,168,cobén,,,,,,149.2125,150.3928,0,1,0.6372,,0,87,87,167,1,pseudoword,0,REAL,FALSA
,,,,,,,,,6027eac2f4090f09439ee8e4,001,2025-04-30_21h10.50.393,empathy_intonation_perc,2024.1.4,MacIntel,27.62430939,,,,,,,,,,,,,,66,aleta,,,,,,150.3931,151.6017,0,1,0.6649,,0,88,88,65,1,non_cognate,1,REAL,FALSA
,,,,,,,,,6027eac2f4090f09439ee8e4,001,2025-04-30_21h10.50.393,empathy_intonation_perc,2024.1.4,MacIntel,27.62430939,,,,,,,,,,,,,,82,brillo,,,,,,151.6022,152.9982,0,1,0.8569,,0,89,89,81,1,non_cognate,1,REAL,FALSA
,,,,,,,,,6027eac2f4090f09439ee8e4,001,2025-04-30_21h10.50.393,empathy_intonation_perc,2024.1.4,MacIntel,27.62430939,,,,,,,,,,,,,,121,barbs,,,,,,152.9986,154.0681,0,1,0.5404,,0,90,90,120,1,pseudoword,0,REAL,FALSA
,,,,,,,,,6027eac2f4090f09439ee8e4,001,2025-04-30_21h10.50.393,empathy_intonation_perc,2024.1.4,MacIntel,27.62430939,,,,,,,,,,,,,,128,pelí,,,,,,154.0684,155.2946,0,1,0.7039,,0,91,91,127,1,pseudoword,0,REAL,FALSA
,,,,,,,,,6027eac2f4090f09439ee8e4,001,2025-04-30_21h10.50.393,empathy_intonation_perc,2024.1.4,MacIntel,27.62430939,,,,,,,,,,,,,,40,pelvis,,,,,,155.2951,156.3554,1,0,0.522,,0,92,92,39,1,two_way_cognate,1,REAL,FALSA
,,,,,,,,,6027eac2f4090f09439ee8e4,001,2025-04-30_21h10.50.393,empathy_intonation_perc,2024.1.4,MacIntel,27.62430939,,,,,,,,,,,,,,115,lidena,,,,,,156.3558,157.6093,0,1,0.7197,,0,93,93,114,1,pseudoword,0,REAL,FALSA
,,,,,,,,,6027eac2f4090f09439ee8e4,001,2025-04-30_21h10.50.393,empathy_intonation_perc,2024.1.4,MacIntel,27.62430939,,,,,,,,,,,,,,94,forro,,,,,,157.6098,159.202,0,1,1.0614,,0,94,94,93,1,non_cognate,1,REAL,FALSA
,,,,,,,,,6027eac2f4090f09439ee8e4,001,2025-04-30_21h10.50.393,empathy_intonation_perc,2024.1.4,MacIntel,27.62430939,,,,,,,,,,,,,,151,prías,,,,,,159.2023,160.1952,0,1,0.4589,,0,95,95,150,1,pseudoword,0,REAL,FALSA
,,,,,,,,,6027eac2f4090f09439ee8e4,001,2025-04-30_21h10.50.393,empathy_intonation_perc,2024.1.4,MacIntel,27.62430939,,,,,,,,,,,,,,20,trauma,,,,,,160.1956,161.3788,1,0,0.6517,,0,96,96,19,1,three_way_cognate,1,REAL,FALSA
,,,,,,,,,6027eac2f4090f09439ee8e4,001,2025-04-30_21h10.50.393,empathy_intonation_perc,2024.1.4,MacIntel,27.62430939,,,,,,,,,,,,,,65,guerra,,,,,,161.3792,162.4685,1,0,0.5433,,0,97,97,64,1,non_cognate,1,REAL,FALSA
,,,,,,,,,6027eac2f4090f09439ee8e4,001,2025-04-30_21h10.50.393,empathy_intonation_perc,2024.1.4,MacIntel,27.62430939,,,,,,,,,,,,,,164,tecia,,,,,,162.4689,163.9701,0,1,0.9626,,0,98,98,163,1,pseudoword,0,REAL,FALSA
,,,,,,,,,6027eac2f4090f09439ee8e4,001,2025-04-30_21h10.50.393,empathy_intonation_perc,2024.1.4,MacIntel,27.62430939,,,,,,,,,,,,,,138,tator,,,,,,163.9705,165.085,0,1,0.5784,,0,99,99,137,1,pseudoword,0,REAL,FALSA
,,,,,,,,,6027eac2f4090f09439ee8e4,001,2025-04-30_21h10.50.393,empathy_intonation_perc,2024.1.4,MacIntel,27.62430939,,,,,,,,,,,,,,79,suelo,,,,,,165.0854,166.0909,0,1,0.4713,,0,100,100,78,1,non_cognate,1,REAL,FALSA
,,,,,,,,,6027eac2f4090f09439ee8e4,001,2025-04-30_21h10.50.393,empathy_intonation_perc,2024.1.4,MacIntel,27.62430939,,,,,,,,,,,,,,58,colcha,,,,,,166.0914,167.1827,0,1,0.5528,,0,101,101,57,1,non_cognate,1,REAL,FALSA
,,,,,,,,,6027eac2f4090f09439ee8e4,001,2025-04-30_21h10.50.393,empathy_intonation_perc,2024.1.4,MacIntel,27.62430939,,,,,,,,,,,,,,86,cuenco,,,,,,167.183,168.2837,0,1,0.5621,,0,102,102,85,1,non_cognate,1,REAL,FALSA
,,,,,,,,,6027eac2f4090f09439ee8e4,001,2025-04-30_21h10.50.393,empathy_intonation_perc,2024.1.4,MacIntel,27.62430939,,,,,,,,,,,,,,134,molor,,,,,,168.2841,169.4259,0,1,0.6067,,0,103,103,133,1,pseudoword,0,REAL,FALSA
,,,,,,,,,6027eac2f4090f09439ee8e4,001,2025-04-30_21h10.50.393,empathy_intonation_perc,2024.1.4,MacIntel,27.62430939,,,,,,,,,,,,,,133,conso,,,,,,169.4263,170.4807,0,1,0.5161,,0,104,104,132,1,pseudoword,0,REAL,FALSA
,,,,,,,,,6027eac2f4090f09439ee8e4,001,2025-04-30_21h10.50.393,empathy_intonation_perc,2024.1.4,MacIntel,27.62430939,,,,,,,,,,,,,,175,tradía,,,,,,170.4811,171.6163,0,1,0.5967,,0,105,105,174,1,pseudoword,0,REAL,FALSA
,,,,,,,,,6027eac2f4090f09439ee8e4,001,2025-04-30_21h10.50.393,empathy_intonation_perc,2024.1.4,MacIntel,27.62430939,,,,,,,,,,,,,,181,gravés,,,,,,171.6167,172.725,0,1,0.5777,,0,106,106,180,1,pseudoword,0,REAL,FALSA
,,,,,,,,,6027eac2f4090f09439ee8e4,001,2025-04-30_21h10.50.393,empathy_intonation_perc,2024.1.4,MacIntel,27.62430939,,,,,,,,,,,,,,11,golf,,,,,,172.7253,173.9034,1,0,0.6441,,0,107,107,10,1,three_way_cognate,1,REAL,FALSA
,,,,,,,,,6027eac2f4090f09439ee8e4,001,2025-04-30_21h10.50.393,empathy_intonation_perc,2024.1.4,MacIntel,27.62430939,,,,,,,,,,,,,,116,grigir,,,,,,173.9038,174.9523,1,0,0.5025,,0,108,108,115,1,pseudoword,0,REAL,FALSA
,,,,,,,,,6027eac2f4090f09439ee8e4,001,2025-04-30_21h10.50.393,empathy_intonation_perc,2024.1.4,MacIntel,27.62430939,,,,,,,,,,,,,,10,drama,,,,,,174.9529,176.0799,1,0,0.5899,,0,109,109,9,1,three_way_cognate,1,REAL,FALSA
,,,,,,,,,6027eac2f4090f09439ee8e4,001,2025-04-30_21h10.50.393,empathy_intonation_perc,2024.1.4,MacIntel,27.62430939,,,,,,,,,,,,,,53,punta,,,,,,176.0802,177.1953,0,1,0.57,,0,110,110,52,1,non_cognate,1,REAL,FALSA
,,,,,,,,,6027eac2f4090f09439ee8e4,001,2025-04-30_21h10.50.393,empathy_intonation_perc,2024.1.4,MacIntel,27.62430939,,,,,,,,,,,,,,152,prave,,,,,,177.1958,178.3051,0,1,0.5766,,0,111,111,151,1,pseudoword,0,REAL,FALSA
,,,,,,,,,6027eac2f4090f09439ee8e4,001,2025-04-30_21h10.50.393,empathy_intonation_perc,2024.1.4,MacIntel,27.62430939,,,,,,,,,,,,,,179,suelet,,,,,,178.3055,179.4025,0,1,0.5566,,0,112,112,178,1,pseudoword,0,REAL,FALSA
,,,,,,,,,6027eac2f4090f09439ee8e4,001,2025-04-30_21h10.50.393,empathy_intonation_perc,2024.1.4,MacIntel,27.62430939,,,,,,,,,,,,,,108,jauda,,,,,,179.4028,180.4986,0,1,0.556,,0,113,113,107,1,pseudoword,0,REAL,FALSA
,,,,,,,,,6027eac2f4090f09439ee8e4,001,2025-04-30_21h10.50.393,empathy_intonation_perc,2024.1.4,MacIntel,27.62430939,,,,,,,,,,,,,,136,hueas,,,,,,180.499,181.6457,0,1,0.6106,,0,114,114,135,1,pseudoword,0,REAL,FALSA
,,,,,,,,,6027eac2f4090f09439ee8e4,001,2025-04-30_21h10.50.393,empathy_intonation_perc,2024.1.4,MacIntel,27.62430939,,,,,,,,,,,,,,100,épinas,,,,,,181.6462,182.6851,0,1,0.5076,,0,115,115,99,1,pseudoword,0,REAL,FALSA
,,,,,,,,,6027eac2f4090f09439ee8e4,001,2025-04-30_21h10.50.393,empathy_intonation_perc,2024.1.4,MacIntel,27.62430939,,,,,,,,,,,,,,67,llamar,,,,,,182.6861,183.9006,1,0,0.6776,,0,116,116,66,1,non_cognate,1,REAL,FALSA
,,,,,,,,,6027eac2f4090f09439ee8e4,001,2025-04-30_21h10.50.393,empathy_intonation_perc,2024.1.4,MacIntel,27.62430939,,,,,,,,,,,,,,26,enigma,,,,,,183.901,185.1891,1,0,0.7416,,0,117,117,25,1,two_way_cognate,1,REAL,FALSA
,,,,,,,,,6027eac2f4090f09439ee8e4,001,2025-04-30_21h10.50.393,empathy_intonation_perc,2024.1.4,MacIntel,27.62430939,,,,,,,,,,,,,,126,tobre,,,,,,185.1896,186.3348,0,1,0.6103,,0,118,118,125,1,pseudoword,0,REAL,FALSA
,,,,,,,,,6027eac2f4090f09439ee8e4,001,2025-04-30_21h10.50.393,empathy_intonation_perc,2024.1.4,MacIntel,27.62430939,,,,,,,,,,,,,,167,dobbo,,,,,,186.3352,187.726,0,1,0.8456,,0,119,119,166,1,pseudoword,0,REAL,FALSA
,,,,,,,,,6027eac2f4090f09439ee8e4,001,2025-04-30_21h10.50.393,empathy_intonation_perc,2024.1.4,MacIntel,27.62430939,,,,,,,,,,,,,,27,piano,,,,,,187.7264,188.922,1,0,0.6582,,0,120,120,26,1,two_way_cognate,1,REAL,FALSA
,,,,,,,,,6027eac2f4090f09439ee8e4,001,2025-04-30_21h10.50.393,empathy_intonation_perc,2024.1.4,MacIntel,27.62430939,,,,,,,,,,,,,,41,pasta,,,,,,188.9224,190.0009,1,0,0.5302,,0,121,121,40,1,two_way_cognate,1,REAL,FALSA
,,,,,,,,,6027eac2f4090f09439ee8e4,001,2025-04-30_21h10.50.393,empathy_intonation_perc,2024.1.4,MacIntel,27.62430939,,,,,,,,,,,,,,155,kugis,,,,,,190.0012,191.0982,0,1,0.5571,,0,122,122,154,1,pseudoword,0,REAL,FALSA
,,,,,,,,,6027eac2f4090f09439ee8e4,001,2025-04-30_21h10.50.393,empathy_intonation_perc,2024.1.4,MacIntel,27.62430939,,,,,,,,,,,,,,166,anfia,,,,,,191.0986,192.1457,0,1,0.5174,,0,123,123,165,1,pseudoword,0,REAL,FALSA
,,,,,,,,,6027eac2f4090f09439ee8e4,001,2025-04-30_21h10.50.393,empathy_intonation_perc,2024.1.4,MacIntel,27.62430939,,,,,,,,,,,,,,52,blando,,,,,,192.1461,193.1577,0,1,0.4742,,0,124,124,51,1,non_cognate,1,REAL,FALSA
,,,,,,,,,6027eac2f4090f09439ee8e4,001,2025-04-30_21h10.50.393,empathy_intonation_perc,2024.1.4,MacIntel,27.62430939,,,,,,,,,,,,,,24,retina,,,,,,193.1581,194.1575,0,1,0.4608,,0,125,125,23,1,three_way_cognate,1,REAL,FALSA
,,,,,,,,,6027eac2f4090f09439ee8e4,001,2025-04-30_21h10.50.393,empathy_intonation_perc,2024.1.4,MacIntel,27.62430939,,,,,,,,,,,,,,174,pabea,,,,,,194.1578,195.25,0,1,0.5524,,0,126,126,173,1,pseudoword,0,REAL,FALSA
,,,,,,,,,6027eac2f4090f09439ee8e4,001,2025-04-30_21h10.50.393,empathy_intonation_perc,2024.1.4,MacIntel,27.62430939,,,,,,,,,,,,,,13,plan,,,,,,195.2504,196.3488,1,0,0.5612,,0,127,127,12,1,three_way_cognate,1,REAL,FALSA
,,,,,,,,,6027eac2f4090f09439ee8e4,001,2025-04-30_21h10.50.393,empathy_intonation_perc,2024.1.4,MacIntel,27.62430939,,,,,,,,,,,,,,16,chat,,,,,,196.3491,197.434,1,0,0.5328,,0,128,128,15,1,three_way_cognate,1,REAL,FALSA
,,,,,,,,,6027eac2f4090f09439ee8e4,001,2025-04-30_21h10.50.393,empathy_intonation_perc,2024.1.4,MacIntel,27.62430939,,,,,,,,,,,,,,9,portal,,,,,,197.4345,198.6618,0,1,0.6927,,0,129,129,8,1,three_way_cognate,1,REAL,FALSA
,,,,,,,,,6027eac2f4090f09439ee8e4,001,2025-04-30_21h10.50.393,empathy_intonation_perc,2024.1.4,MacIntel,27.62430939,,,,,,,,,,,,,,173,mibro,,,,,,198.6621,200.0801,0,1,0.8813,,0,130,130,172,1,pseudoword,0,REAL,FALSA
,,,,,,,,,6027eac2f4090f09439ee8e4,001,2025-04-30_21h10.50.393,empathy_intonation_perc,2024.1.4,MacIntel,27.62430939,,,,,,,,,,,,,,87,muleta,,,,,,200.0805,201.3421,0,1,0.7169,,0,131,131,86,1,non_cognate,1,REAL,FALSA
,,,,,,,,,6027eac2f4090f09439ee8e4,001,2025-04-30_21h10.50.393,empathy_intonation_perc,2024.1.4,MacIntel,27.62430939,,,,,,,,,,,,,,177,entodo,,,,,,201.3425,202.4133,0,1,0.5277,,0,132,132,176,1,pseudoword,0,REAL,FALSA
,,,,,,,,,6027eac2f4090f09439ee8e4,001,2025-04-30_21h10.50.393,empathy_intonation_perc,2024.1.4,MacIntel,27.62430939,,,,,,,,,,,,,,63,hilo,,,,,,202.414,203.7595,0,1,0.8116,,0,133,133,62,1,non_cognate,1,REAL,FALSA
,,,,,,,,,6027eac2f4090f09439ee8e4,001,2025-04-30_21h10.50.393,empathy_intonation_perc,2024.1.4,MacIntel,27.62430939,,,,,,,,,,,,,,29,clamor,,,,,,203.7603,204.9796,1,0,0.6903,,0,134,134,28,1,two_way_cognate,1,REAL,FALSA
,,,,,,,,,6027eac2f4090f09439ee8e4,001,2025-04-30_21h10.50.393,empathy_intonation_perc,2024.1.4,MacIntel,27.62430939,,,,,,,,,,,,,,92,flecha,,,,,,204.9801,206.1004,0,1,0.5889,,0,135,135,91,1,non_cognate,1,REAL,FALSA
,,,,,,,,,6027eac2f4090f09439ee8e4,001,2025-04-30_21h10.50.393,empathy_intonation_perc,2024.1.4,MacIntel,27.62430939,,,,,,,,,,,,,,38,halo,,,,,,206.1007,207.4912,0,1,0.8494,,0,136,136,37,1,two_way_cognate,1,REAL,FALSA
,,,,,,,,,6027eac2f4090f09439ee8e4,001,2025-04-30_21h10.50.393,empathy_intonation_perc,2024.1.4,MacIntel,27.62430939,,,,,,,,,,,,,,74,ala,,,,,,207.4915,208.5873,0,1,0.5614,,0,137,137,73,1,non_cognate,1,REAL,FALSA
,,,,,,,,,6027eac2f4090f09439ee8e4,001,2025-04-30_21h10.50.393,empathy_intonation_perc,2024.1.4,MacIntel,27.62430939,,,,,,,,,,,,,,7,albino,,,,,,208.5877,209.6037,0,1,0.4898,,0,138,138,6,1,three_way_cognate,1,REAL,FALSA
,,,,,,,,,6027eac2f4090f09439ee8e4,001,2025-04-30_21h10.50.393,empathy_intonation_perc,2024.1.4,MacIntel,27.62430939,,,,,,,,,,,,,,32,animal,,,,,,209.6042,210.6948,1,0,0.5497,,0,139,139,31,1,two_way_cognate,1,REAL,FALSA
,,,,,,,,,6027eac2f4090f09439ee8e4,001,2025-04-30_21h10.50.393,empathy_intonation_perc,2024.1.4,MacIntel,27.62430939,,,,,,,,,,,,,,107,plago,,,,,,210.6952,212.0348,1,0,0.802,,0,140,140,106,1,pseudoword,0,REAL,FALSA
,,,,,,,,,6027eac2f4090f09439ee8e4,001,2025-04-30_21h10.50.393,empathy_intonation_perc,2024.1.4,MacIntel,27.62430939,,,,,,,,,,,,,,124,lobe,,,,,,212.0351,213.4488,1,0,0.869,,0,141,141,123,1,pseudoword,0,REAL,FALSA
,,,,,,,,,6027eac2f4090f09439ee8e4,001,2025-04-30_21h10.50.393,empathy_intonation_perc,2024.1.4,MacIntel,27.62430939,,,,,,,,,,,,,,186,rizate,,,,,,213.4501,214.6987,0,1,0.7123,,0,142,142,185,1,pseudoword,0,REAL,FALSA
,,,,,,,,,6027eac2f4090f09439ee8e4,001,2025-04-30_21h10.50.393,empathy_intonation_perc,2024.1.4,MacIntel,27.62430939,,,,,,,,,,,,,,2,tumor,,,,,,214.6992,216.628,1,0,1.3896,,0,143,143,1,1,three_way_cognate,1,REAL,FALSA
,,,,,,,,,6027eac2f4090f09439ee8e4,001,2025-04-30_21h10.50.393,empathy_intonation_perc,2024.1.4,MacIntel,27.62430939,,,,,,,,,,,,,,51,listo,,,,,,216.6284,218.2653,1,0,1.0828,,0,144,144,50,1,non_cognate,1,REAL,FALSA
,,,,,,,,,6027eac2f4090f09439ee8e4,001,2025-04-30_21h10.50.393,empathy_intonation_perc,2024.1.4,MacIntel,27.62430939,,,,,,,,,,,,,,71,torta,,,,,,218.2656,219.3431,0,1,0.5394,,0,145,145,70,1,non_cognate,1,REAL,FALSA
,,,,,,,,,6027eac2f4090f09439ee8e4,001,2025-04-30_21h10.50.393,empathy_intonation_perc,2024.1.4,MacIntel,27.62430939,,,,,,,,,,,,,,8,kilo,,,,,,219.3437,220.5102,1,0,0.6352,,0,146,146,7,1,three_way_cognate,1,REAL,FALSA
,,,,,,,,,6027eac2f4090f09439ee8e4,001,2025-04-30_21h10.50.393,empathy_intonation_perc,2024.1.4,MacIntel,27.62430939,,,,,,,,,,,,,,135,panté,,,,,,220.5106,221.623,0,1,0.5708,,0,147,147,134,1,pseudoword,0,REAL,FALSA
,,,,,,,,,6027eac2f4090f09439ee8e4,001,2025-04-30_21h10.50.393,empathy_intonation_perc,2024.1.4,MacIntel,27.62430939,,,,,,,,,,,,,,28,ardor,,,,,,221.6234,222.7095,0,1,0.5502,,0,148,148,27,1,two_way_cognate,1,REAL,FALSA
,,,,,,,,,6027eac2f4090f09439ee8e4,001,2025-04-30_21h10.50.393,empathy_intonation_perc,2024.1.4,MacIntel,27.62430939,,,,,,,,,,,,,,75,patada,,,,,,222.7099,223.9678,0,1,0.708,,0,149,149,74,1,non_cognate,1,REAL,FALSA
,,,,,,,,,6027eac2f4090f09439ee8e4,001,2025-04-30_21h10.50.393,empathy_intonation_perc,2024.1.4,MacIntel,27.62430939,,,,,,,,,,,,,,45,total,,,,,,223.9681,225.1553,1,0,0.6504,,0,150,150,44,1,two_way_cognate,1,REAL,FALSA
,,,,,,,,,6027eac2f4090f09439ee8e4,001,2025-04-30_21h10.50.393,empathy_intonation_perc,2024.1.4,MacIntel,27.62430939,,,,,,,,,,,,,,165,chote,,,,,,225.1557,226.2406,0,1,0.5461,,0,151,151,164,1,pseudoword,0,REAL,FALSA
,,,,,,,,,6027eac2f4090f09439ee8e4,001,2025-04-30_21h10.50.393,empathy_intonation_perc,2024.1.4,MacIntel,27.62430939,,,,,,,,,,,,,,109,laras,,,,,,226.241,227.408,0,1,0.6411,,0,152,152,108,1,pseudoword,0,REAL,FALSA
,,,,,,,,,6027eac2f4090f09439ee8e4,001,2025-04-30_21h10.50.393,empathy_intonation_perc,2024.1.4,MacIntel,27.62430939,,,,,,,,,,,,,,190,asumie,,,,,,227.4084,228.4859,0,1,0.5403,,0,153,153,189,1,pseudoword,0,REAL,FALSA
,,,,,,,,,6027eac2f4090f09439ee8e4,001,2025-04-30_21h10.50.393,empathy_intonation_perc,2024.1.4,MacIntel,27.62430939,,,,,,,,,,,,,,83,hálito,,,,,,228.4861,229.5361,0,1,0.5196,,0,154,154,82,1,non_cognate,1,REAL,FALSA
,,,,,,,,,6027eac2f4090f09439ee8e4,001,2025-04-30_21h10.50.393,empathy_intonation_perc,2024.1.4,MacIntel,27.62430939,,,,,,,,,,,,,,37,torso,,,,,,229.5365,230.6576,1,0,0.58,,0,155,155,36,1,two_way_cognate,1,REAL,FALSA
,,,,,,,,,6027eac2f4090f09439ee8e4,001,2025-04-30_21h10.50.393,empathy_intonation_perc,2024.1.4,MacIntel,27.62430939,,,,,,,,,,,,,,102,coyo,,,,,,230.6581,231.779,0,1,0.5699,,0,156,156,101,1,pseudoword,0,REAL,FALSA
,,,,,,,,,6027eac2f4090f09439ee8e4,001,2025-04-30_21h10.50.393,empathy_intonation_perc,2024.1.4,MacIntel,27.62430939,,,,,,,,,,,,,,163,llzan,,,,,,231.7794,232.7919,0,1,0.4819,,0,157,157,162,1,pseudoword,0,REAL,FALSA
,,,,,,,,,6027eac2f4090f09439ee8e4,001,2025-04-30_21h10.50.393,empathy_intonation_perc,2024.1.4,MacIntel,27.62430939,,,,,,,,,,,,,,5,extra,,,,,,232.7923,233.9444,1,0,0.6019,,0,158,158,4,1,three_way_cognate,1,REAL,FALSA
,,,,,,,,,6027eac2f4090f09439ee8e4,001,2025-04-30_21h10.50.393,empathy_intonation_perc,2024.1.4,MacIntel,27.62430939,,,,,,,,,,,,,,12,dogma,,,,,,233.9449,235.0105,0,1,0.5311,,0,159,159,11,1,three_way_cognate,1,REAL,FALSA
,,,,,,,,,6027eac2f4090f09439ee8e4,001,2025-04-30_21h10.50.393,empathy_intonation_perc,2024.1.4,MacIntel,27.62430939,,,,,,,,,,,,,,70,ánimo,,,,,,235.0109,236.3283,0,1,0.7795,,0,160,160,69,1,non_cognate,1,REAL,FALSA
,,,,,,,,,6027eac2f4090f09439ee8e4,001,2025-04-30_21h10.50.393,empathy_intonation_perc,2024.1.4,MacIntel,27.62430939,,,,,,,,,,,,,,114,dibrea,,,,,,236.3287,237.57,0,1,0.7039,,0,161,161,113,1,pseudoword,0,REAL,FALSA
,,,,,,,,,6027eac2f4090f09439ee8e4,001,2025-04-30_21h10.50.393,empathy_intonation_perc,2024.1.4,MacIntel,27.62430939,,,,,,,,,,,,,,77,suave,,,,,,237.5703,238.5431,0,1,0.4237,,0,162,162,76,1,non_cognate,1,REAL,FALSA
,,,,,,,,,6027eac2f4090f09439ee8e4,001,2025-04-30_21h10.50.393,empathy_intonation_perc,2024.1.4,MacIntel,27.62430939,,,,,,,,,,,,,,54,tapón,,,,,,238.5437,239.7278,0,1,0.6463,,0,163,163,53,1,non_cognate,1,REAL,FALSA
,,,,,,,,,6027eac2f4090f09439ee8e4,001,2025-04-30_21h10.50.393,empathy_intonation_perc,2024.1.4,MacIntel,27.62430939,,,,,,,,,,,,,,191,frasis,,,,,,239.7282,240.8734,0,1,0.61,,0,164,164,190,1,pseudoword,0,REAL,FALSA
,,,,,,,,,6027eac2f4090f09439ee8e4,001,2025-04-30_21h10.50.393,empathy_intonation_perc,2024.1.4,MacIntel,27.62430939,,,,,,,,,,,,,,6,horror,,,,,,240.8739,242.0417,1,0,0.6195,,0,165,165,5,1,three_way_cognate,1,REAL,FALSA
,,,,,,,,,6027eac2f4090f09439ee8e4,001,2025-04-30_21h10.50.393,empathy_intonation_perc,2024.1.4,MacIntel,27.62430939,,,,,,,,,,,,,,111,monue,,,,,,242.0421,243.0758,0,1,0.505,,0,166,166,110,1,pseudoword,0,REAL,FALSA
,,,,,,,,,6027eac2f4090f09439ee8e4,001,2025-04-30_21h10.50.393,empathy_intonation_perc,2024.1.4,MacIntel,27.62430939,,,,,,,,,,,,,,145,rúo,,,,,,243.0763,244.191,0,1,0.5757,,0,167,167,144,1,pseudoword,0,REAL,FALSA
,,,,,,,,,6027eac2f4090f09439ee8e4,001,2025-04-30_21h10.50.393,empathy_intonation_perc,2024.1.4,MacIntel,27.62430939,,,,,,,,,,,,,,127,vien,,,,,,244.1913,245.1906,0,1,0.4686,,0,168,168,126,1,pseudoword,0,REAL,FALSA
,,,,,,,,,6027eac2f4090f09439ee8e4,001,2025-04-30_21h10.50.393,empathy_intonation_perc,2024.1.4,MacIntel,27.62430939,,,,,,,,,,,,,,154,harvé,,,,,,245.191,246.4973,0,1,0.7647,,0,169,169,153,1,pseudoword,0,REAL,FALSA
,,,,,,,,,6027eac2f4090f09439ee8e4,001,2025-04-30_21h10.50.393,empathy_intonation_perc,2024.1.4,MacIntel,27.62430939,,,,,,,,,,,,,,161,civas,,,,,,246.4976,247.8327,0,1,0.8022,,0,170,170,160,1,pseudoword,0,REAL,FALSA
,,,,,,,,,6027eac2f4090f09439ee8e4,001,2025-04-30_21h10.50.393,empathy_intonation_perc,2024.1.4,MacIntel,27.62430939,,,,,,,,,,,,,,184,huenos,,,,,,247.8332,249.4241,0,1,1.0529,,0,171,171,183,1,pseudoword,0,REAL,FALSA
,,,,,,,,,6027eac2f4090f09439ee8e4,001,2025-04-30_21h10.50.393,empathy_intonation_perc,2024.1.4,MacIntel,27.62430939,,,,,,,,,,,,,,14,aura,,,,,,249.4244,250.5673,1,0,0.5981,,0,172,172,13,1,three_way_cognate,1,REAL,FALSA
,,,,,,,,,6027eac2f4090f09439ee8e4,001,2025-04-30_21h10.50.393,empathy_intonation_perc,2024.1.4,MacIntel,27.62430939,,,,,,,,,,,,,,80,cuenco,,,,,,250.5677,251.8203,0,1,0.7196,,0,173,173,79,1,non_cognate,1,REAL,FALSA
,,,,,,,,,6027eac2f4090f09439ee8e4,001,2025-04-30_21h10.50.393,empathy_intonation_perc,2024.1.4,MacIntel,27.62430939,,,,,,,,,,,,,,34,actor,,,,,,251.8214,252.9509,1,0,0.5998,,0,174,174,33,1,two_way_cognate,1,REAL,FALSA
,,,,,,,,,6027eac2f4090f09439ee8e4,001,2025-04-30_21h10.50.393,empathy_intonation_perc,2024.1.4,MacIntel,27.62430939,,,,,,,,,,,,,,88,percha,,,,,,252.9518,254.2117,0,1,0.7221,,0,175,175,87,1,non_cognate,1,REAL,FALSA
,,,,,,,,,6027eac2f4090f09439ee8e4,001,2025-04-30_21h10.50.393,empathy_intonation_perc,2024.1.4,MacIntel,27.62430939,,,,,,,,,,,,,,140,chorde,,,,,,254.212,255.2378,0,1,0.4881,,0,176,176,139,1,pseudoword,0,REAL,FALSA
,,,,,,,,,6027eac2f4090f09439ee8e4,001,2025-04-30_21h10.50.393,empathy_intonation_perc,2024.1.4,MacIntel,27.62430939,,,,,,,,,,,,,,112,samón,,,,,,255.2383,256.5624,0,1,0.7755,,0,177,177,111,1,pseudoword,0,REAL,FALSA
,,,,,,,,,6027eac2f4090f09439ee8e4,001,2025-04-30_21h10.50.393,empathy_intonation_perc,2024.1.4,MacIntel,27.62430939,,,,,,,,,,,,,,18,altar,,,,,,256.5628,257.6012,0,1,0.5053,,0,178,178,17,1,three_way_cognate,1,REAL,FALSA
,,,,,,,,,6027eac2f4090f09439ee8e4,001,2025-04-30_21h10.50.393,empathy_intonation_perc,2024.1.4,MacIntel,27.62430939,,,,,,,,,,,,,,176,gripar,,,,,,257.6016,259.1696,1,0,1.0269,,0,179,179,175,1,pseudoword,0,REAL,FALSA
,,,,,,,,,6027eac2f4090f09439ee8e4,001,2025-04-30_21h10.50.393,empathy_intonation_perc,2024.1.4,MacIntel,27.62430939,,,,,,,,,,,,,,46,mortal,,,,,,259.1701,260.1906,1,0,0.4772,,0,180,180,45,1,two_way_cognate,1,REAL,FALSA
,,,,,,,,,6027eac2f4090f09439ee8e4,001,2025-04-30_21h10.50.393,empathy_intonation_perc,2024.1.4,MacIntel,27.62430939,,,,,,,,,,,,,,33,collar,,,,,,260.191,261.2159,1,0,0.4924,,0,181,181,32,1,two_way_cognate,1,REAL,FALSA
,,,,,,,,,6027eac2f4090f09439ee8e4,001,2025-04-30_21h10.50.393,empathy_intonation_perc,2024.1.4,MacIntel,27.62430939,,,,,,,,,,,,,,84,aviso,,,,,,261.2163,262.258,0,1,0.5042,,0,182,182,83,1,non_cognate,1,REAL,FALSA
,,,,,,,,,6027eac2f4090f09439ee8e4,001,2025-04-30_21h10.50.393,empathy_intonation_perc,2024.1.4,MacIntel,27.62430939,,,,,,,,,,,,,,144,diroco,,,,,,262.2584,263.3645,0,1,0.5635,,0,183,183,143,1,pseudoword,0,REAL,FALSA
,,,,,,,,,6027eac2f4090f09439ee8e4,001,2025-04-30_21h10.50.393,empathy_intonation_perc,2024.1.4,MacIntel,27.62430939,,,,,,,,,,,,,,104,estulo,,,,,,263.3648,264.5766,0,1,0.6706,,0,184,184,103,1,pseudoword,0,REAL,FALSA
,,,,,,,,,6027eac2f4090f09439ee8e4,001,2025-04-30_21h10.50.393,empathy_intonation_perc,2024.1.4,MacIntel,27.62430939,,,,,,,,,,,,,,150,cricó,,,,,,264.5769,265.8127,0,1,0.6964,,0,185,185,149,1,pseudoword,0,REAL,FALSA
,,,,,,,,,6027eac2f4090f09439ee8e4,001,2025-04-30_21h10.50.393,empathy_intonation_perc,2024.1.4,MacIntel,27.62430939,,,,,,,,,,,,,,64,rizado,,,,,,265.8131,267.2261,1,0,0.8636,,0,186,186,63,1,non_cognate,1,REAL,FALSA
,,,,,,,,,6027eac2f4090f09439ee8e4,001,2025-04-30_21h10.50.393,empathy_intonation_perc,2024.1.4,MacIntel,27.62430939,,,,,,,,,,,,,,96,caro,,,,,,267.2265,268.3941,1,0,0.6332,,0,187,187,95,1,non_cognate,1,REAL,FALSA
,,,,,,,,,6027eac2f4090f09439ee8e4,001,2025-04-30_21h10.50.393,empathy_intonation_perc,2024.1.4,MacIntel,27.62430939,,,,,,,,,,,,,,1,moral,,,,,,268.3945,269.4694,1,0,0.5385,,0,188,188,0,1,three_way_cognate,1,REAL,FALSA
,,,,,,,,,6027eac2f4090f09439ee8e4,001,2025-04-30_21h10.50.393,empathy_intonation_perc,2024.1.4,MacIntel,27.62430939,,,,,,,,,,,,,,91,equipo,,,,,,269.4698,270.6104,1,0,0.609,,0,189,189,90,1,non_cognate,1,REAL,FALSA
,,,,,,,,,6027eac2f4090f09439ee8e4,001,2025-04-30_21h10.50.393,empathy_intonation_perc,2024.1.4,MacIntel,27.62430939,,,,,,,,,,,,,,118,bará,,,,,,270.6109,272.1118,0,1,0.9538,,0,190,190,117,1,pseudoword,0,REAL,FALSA
,,,,,,,,,6027eac2f4090f09439ee8e4,001,2025-04-30_21h10.50.393,empathy_intonation_perc,2024.1.4,MacIntel,27.62430939,,,,,,,,,,,,,,35,aurora,,,,,,272.1122,275.0875,1,0,2.4409,,0,191,191,34,1,two_way_cognate,1,REAL,FALSA
