lextale_instructions.started,lextale_instructions.stopped,lextale_instructions_loop.thisRepN,lextale_instructions_loop.thisTrialN,lextale_instructions_loop.thisN,lextale_instructions_loop.thisIndex,lextale_instructions_loop.ran,instructions_text,continue_text,participant,session,date,expName,psychopyVersion,OS,frameRate,lextale_practice.started,lextale_practice.stopped,key_resp_lextale_practice.keys,key_resp_lextale_practice.corr,key_resp_lextale_practice.rt,key_resp_lextale_practice.duration,lextale_practice_feedback.started,lextale_practice_feedback.stopped,lextale_practice_trials.thisRepN,lextale_practice_trials.thisTrialN,lextale_practice_trials.thisN,lextale_practice_trials.thisIndex,lextale_practice_trials.ran,stim,word,correct_response,prac_button_real,prac_button_false,lextale_check.started,lextale_check.stopped,lextale_trial.started,lextale_trial.stopped,key_resp_lextale_trial.keys,key_resp_lextale_trial.corr,key_resp_lextale_trial.rt,key_resp_lextale_trial.duration,lextail_trials.thisRepN,lextail_trials.thisTrialN,lextail_trials.thisN,lextail_trials.thisIndex,lextail_trials.ran,type,correct_reponse,button_real,button_false
0.0028,14.6097,0,0,0,0,1,"Este es un test de vocabulario en español. 
  
  A continuación vas a ver 90 secuencias de letras que parecen 'españolas'.
  
  Solo algunas de ellas son palabras de verdad.",(presiona la barra espaciadora para continuar),6046ac1161b60d0fc94b0000,001,2025-04-30_08h54.47.317,empathy_intonation_perc,2024.1.4,Win32,59.88023952,,,,,,,,,,,,,,,,,,,,,,,,,,,,,,,,,,,
14.6102,19.3,0,1,1,1,1,"Por favor, señala las palabras que tú conoces (aquellas que estás convencido que son palabras españolas, incluso aunque no seas capaz de dar el significado preciso).",(presiona la barra espaciadora para continuar),6046ac1161b60d0fc94b0000,001,2025-04-30_08h54.47.317,empathy_intonation_perc,2024.1.4,Win32,59.88023952,,,,,,,,,,,,,,,,,,,,,,,,,,,,,,,,,,,
19.3005,25.1425,0,2,2,2,1,Pero cuidado: los errores se penalizan. Por eso no tiene sentido tratar de incrementar tu puntuación marcando como reales palabras que nunca has visto.,(presiona la barra espaciadora para continuar),6046ac1161b60d0fc94b0000,001,2025-04-30_08h54.47.317,empathy_intonation_perc,2024.1.4,Win32,59.88023952,,,,,,,,,,,,,,,,,,,,,,,,,,,,,,,,,,,
25.143,30.1001,0,3,3,3,1,"Presiona la tecla 1 si piensas que es una palabra real y la tecla 
  0 si piensas que es una palabra falsa. 
  
  Vamos a practicar un poco...",(presiona la barra espaciadora para continuar),6046ac1161b60d0fc94b0000,001,2025-04-30_08h54.47.317,empathy_intonation_perc,2024.1.4,Win32,59.88023952,,,,,,,,,,,,,,,,,,,,,,,,,,,,,,,,,,,
,,,,,,,,,6046ac1161b60d0fc94b0000,001,2025-04-30_08h54.47.317,empathy_intonation_perc,2024.1.4,Win32,59.88023952,30.1032,31.1854,1,0,0.5447,,31.1857,32.1864,0,0,0,0,1,0,depiste,0,REAL,FALSA,,,,,,,,,,,,,,,,,
,,,,,,,,,6046ac1161b60d0fc94b0000,001,2025-04-30_08h54.47.317,empathy_intonation_perc,2024.1.4,Win32,59.88023952,32.187,33.2878,1,1,0.5629,,33.2879,34.2896,0,1,1,1,1,0,sí,1,REAL,FALSA,,,,,,,,,,,,,,,,,
,,,,,,,,,6046ac1161b60d0fc94b0000,001,2025-04-30_08h54.47.317,empathy_intonation_perc,2024.1.4,Win32,59.88023952,34.29,35.3421,0,1,0.5297,,35.3422,36.3427,0,2,2,2,1,0,coné,0,REAL,FALSA,,,,,,,,,,,,,,,,,
,,,,,,,,,6046ac1161b60d0fc94b0000,001,2025-04-30_08h54.47.317,empathy_intonation_perc,2024.1.4,Win32,59.88023952,36.3433,37.094,0,1,0.2334,,37.094,38.0952,0,3,3,3,1,0,calpar,0,REAL,FALSA,,,,,,,,,,,,,,,,,
,,,,,,,,,6046ac1161b60d0fc94b0000,001,2025-04-30_08h54.47.317,empathy_intonation_perc,2024.1.4,Win32,59.88023952,38.0959,38.9303,0,1,0.3129,,38.9303,39.9317,0,4,4,4,1,0,joten,0,REAL,FALSA,,,,,,,,,,,,,,,,,
,,,,,,,,,6046ac1161b60d0fc94b0000,001,2025-04-30_08h54.47.317,empathy_intonation_perc,2024.1.4,Win32,59.88023952,39.9325,40.883,0,0,0.4088,,40.8831,41.8842,0,5,5,5,1,0,sacapuntas,1,REAL,FALSA,,,,,,,,,,,,,,,,,
,,,,,,,,,6046ac1161b60d0fc94b0000,001,2025-04-30_08h54.47.317,empathy_intonation_perc,2024.1.4,Win32,59.88023952,41.8847,43.0034,1,0,0.5935,,43.0035,44.0041,0,6,6,6,1,0,priba,0,REAL,FALSA,,,,,,,,,,,,,,,,,
,,,,,,,,,6046ac1161b60d0fc94b0000,001,2025-04-30_08h54.47.317,empathy_intonation_perc,2024.1.4,Win32,59.88023952,44.0045,45.3901,0,1,0.8574,,45.3906,46.3912,0,7,7,7,1,0,pelasula,0,REAL,FALSA,,,,,,,,,,,,,,,,,
,,,,,,,,,6046ac1161b60d0fc94b0000,001,2025-04-30_08h54.47.317,empathy_intonation_perc,2024.1.4,Win32,59.88023952,46.3916,47.7265,1,1,0.8196,,47.7266,48.7283,0,8,8,8,1,0,bien,1,REAL,FALSA,,,,,,,,,,,,,,,,,
,,,,,,,,,6046ac1161b60d0fc94b0000,001,2025-04-30_08h54.47.317,empathy_intonation_perc,2024.1.4,Win32,59.88023952,48.729,49.8802,1,1,0.6361,,49.8803,50.8815,0,9,9,9,1,0,casa,1,REAL,FALSA,,,,,,,,,,,,,,,,,
,,,,,,,,,6046ac1161b60d0fc94b0000,001,2025-04-30_08h54.47.317,empathy_intonation_perc,2024.1.4,Win32,59.88023952,50.882,52.3004,1,0,0.8985,,52.3006,53.3018,0,10,10,10,1,0,lejo,0,REAL,FALSA,,,,,,,,,,,,,,,,,
,,,,,,,,,6046ac1161b60d0fc94b0000,001,2025-04-30_08h54.47.317,empathy_intonation_perc,2024.1.4,Win32,59.88023952,53.3024,54.8209,0,1,0.9981,,54.8209,55.8224,0,11,11,11,1,0,pretantas,0,REAL,FALSA,,,,,,,,,,,,,,,,,
,,,,,,,,,6046ac1161b60d0fc94b0000,001,2025-04-30_08h54.47.317,empathy_intonation_perc,2024.1.4,Win32,59.88023952,,,,,,,,,,,,,,,,,,,55.8229,58.4265,,,,,,,,,,,,,,,
,,,,,,,,,6046ac1161b60d0fc94b0000,001,2025-04-30_08h54.47.317,empathy_intonation_perc,2024.1.4,Win32,59.88023952,,,,,,,,,,,,,,83,hálito,,,,,,58.4365,59.7122,1,0,0.75,,0,0,0,82,1,non_cognate,1,REAL,FALSA
,,,,,,,,,6046ac1161b60d0fc94b0000,001,2025-04-30_08h54.47.317,empathy_intonation_perc,2024.1.4,Win32,59.88023952,,,,,,,,,,,,,,100,épinas,,,,,,59.7127,61.0134,0,1,0.7684,,0,1,1,99,1,pseudoword,0,REAL,FALSA
,,,,,,,,,6046ac1161b60d0fc94b0000,001,2025-04-30_08h54.47.317,empathy_intonation_perc,2024.1.4,Win32,59.88023952,,,,,,,,,,,,,,185,aljizo,,,,,,61.014,62.3152,0,1,0.7883,,0,2,2,184,1,pseudoword,0,REAL,FALSA
,,,,,,,,,6046ac1161b60d0fc94b0000,001,2025-04-30_08h54.47.317,empathy_intonation_perc,2024.1.4,Win32,59.88023952,,,,,,,,,,,,,,66,aleta,,,,,,62.3156,63.818,1,0,0.9833,,0,3,3,65,1,non_cognate,1,REAL,FALSA
,,,,,,,,,6046ac1161b60d0fc94b0000,001,2025-04-30_08h54.47.317,empathy_intonation_perc,2024.1.4,Win32,59.88023952,,,,,,,,,,,,,,168,cobén,,,,,,63.8188,65.2865,0,1,0.9382,,0,4,4,167,1,pseudoword,0,REAL,FALSA
,,,,,,,,,6046ac1161b60d0fc94b0000,001,2025-04-30_08h54.47.317,empathy_intonation_perc,2024.1.4,Win32,59.88023952,,,,,,,,,,,,,,65,guerra,,,,,,65.287,66.7056,1,0,0.8936,,0,5,5,64,1,non_cognate,1,REAL,FALSA
,,,,,,,,,6046ac1161b60d0fc94b0000,001,2025-04-30_08h54.47.317,empathy_intonation_perc,2024.1.4,Win32,59.88023952,,,,,,,,,,,,,,14,aura,,,,,,66.7063,68.158,1,0,0.9159,,0,6,6,13,1,three_way_cognate,1,REAL,FALSA
,,,,,,,,,6046ac1161b60d0fc94b0000,001,2025-04-30_08h54.47.317,empathy_intonation_perc,2024.1.4,Win32,59.88023952,,,,,,,,,,,,,,29,clamor,,,,,,68.1586,69.6098,1,0,0.9163,,0,7,7,28,1,two_way_cognate,1,REAL,FALSA
,,,,,,,,,6046ac1161b60d0fc94b0000,001,2025-04-30_08h54.47.317,empathy_intonation_perc,2024.1.4,Win32,59.88023952,,,,,,,,,,,,,,97,nocita,,,,,,69.6103,71.0622,1,0,0.9344,,0,8,8,96,1,pseudoword,0,REAL,FALSA
,,,,,,,,,6046ac1161b60d0fc94b0000,001,2025-04-30_08h54.47.317,empathy_intonation_perc,2024.1.4,Win32,59.88023952,,,,,,,,,,,,,,121,barbs,,,,,,71.0627,72.3144,0,1,0.7171,,0,9,9,120,1,pseudoword,0,REAL,FALSA
,,,,,,,,,6046ac1161b60d0fc94b0000,001,2025-04-30_08h54.47.317,empathy_intonation_perc,2024.1.4,Win32,59.88023952,,,,,,,,,,,,,,110,densó,,,,,,72.315,73.7496,0,1,0.9062,,0,10,10,109,1,pseudoword,0,REAL,FALSA
,,,,,,,,,6046ac1161b60d0fc94b0000,001,2025-04-30_08h54.47.317,empathy_intonation_perc,2024.1.4,Win32,59.88023952,,,,,,,,,,,,,,57,regalo,,,,,,73.7501,75.2521,0,1,0.9663,,0,11,11,56,1,non_cognate,1,REAL,FALSA
,,,,,,,,,6046ac1161b60d0fc94b0000,001,2025-04-30_08h54.47.317,empathy_intonation_perc,2024.1.4,Win32,59.88023952,,,,,,,,,,,,,,64,rizado,,,,,,75.2525,76.6374,0,1,0.843,,0,12,12,63,1,non_cognate,1,REAL,FALSA
,,,,,,,,,6046ac1161b60d0fc94b0000,001,2025-04-30_08h54.47.317,empathy_intonation_perc,2024.1.4,Win32,59.88023952,,,,,,,,,,,,,,146,gió,,,,,,76.6378,77.9557,0,1,0.8075,,0,13,13,145,1,pseudoword,0,REAL,FALSA
,,,,,,,,,6046ac1161b60d0fc94b0000,001,2025-04-30_08h54.47.317,empathy_intonation_perc,2024.1.4,Win32,59.88023952,,,,,,,,,,,,,,68,puñal,,,,,,77.9563,79.3581,0,1,0.8805,,0,14,14,67,1,non_cognate,1,REAL,FALSA
,,,,,,,,,6046ac1161b60d0fc94b0000,001,2025-04-30_08h54.47.317,empathy_intonation_perc,2024.1.4,Win32,59.88023952,,,,,,,,,,,,,,187,nomata,,,,,,79.3586,80.9774,1,0,1.0934,,0,15,15,186,1,pseudoword,0,REAL,FALSA
,,,,,,,,,6046ac1161b60d0fc94b0000,001,2025-04-30_08h54.47.317,empathy_intonation_perc,2024.1.4,Win32,59.88023952,,,,,,,,,,,,,,73,llevar,,,,,,80.978,82.3791,1,0,0.8882,,0,16,16,72,1,non_cognate,1,REAL,FALSA
,,,,,,,,,6046ac1161b60d0fc94b0000,001,2025-04-30_08h54.47.317,empathy_intonation_perc,2024.1.4,Win32,59.88023952,,,,,,,,,,,,,,120,mauja,,,,,,82.3797,83.9317,0,1,1.0343,,0,17,17,119,1,pseudoword,0,REAL,FALSA
,,,,,,,,,6046ac1161b60d0fc94b0000,001,2025-04-30_08h54.47.317,empathy_intonation_perc,2024.1.4,Win32,59.88023952,,,,,,,,,,,,,,174,pabea,,,,,,83.9322,85.5843,1,0,1.1116,,0,18,18,173,1,pseudoword,0,REAL,FALSA
,,,,,,,,,6046ac1161b60d0fc94b0000,001,2025-04-30_08h54.47.317,empathy_intonation_perc,2024.1.4,Win32,59.88023952,,,,,,,,,,,,,,50,sierra,,,,,,85.585,86.8528,1,0,0.7318,,0,19,19,49,1,non_cognate,1,REAL,FALSA
,,,,,,,,,6046ac1161b60d0fc94b0000,001,2025-04-30_08h54.47.317,empathy_intonation_perc,2024.1.4,Win32,59.88023952,,,,,,,,,,,,,,165,chote,,,,,,86.8533,88.0712,0,1,0.6791,,0,20,20,164,1,pseudoword,0,REAL,FALSA
,,,,,,,,,6046ac1161b60d0fc94b0000,001,2025-04-30_08h54.47.317,empathy_intonation_perc,2024.1.4,Win32,59.88023952,,,,,,,,,,,,,,52,blando,,,,,,88.0718,89.4402,0,1,0.8513,,0,21,21,51,1,non_cognate,1,REAL,FALSA
,,,,,,,,,6046ac1161b60d0fc94b0000,001,2025-04-30_08h54.47.317,empathy_intonation_perc,2024.1.4,Win32,59.88023952,,,,,,,,,,,,,,180,pupica,,,,,,89.441,90.7419,0,1,0.7696,,0,22,22,179,1,pseudoword,0,REAL,FALSA
,,,,,,,,,6046ac1161b60d0fc94b0000,001,2025-04-30_08h54.47.317,empathy_intonation_perc,2024.1.4,Win32,59.88023952,,,,,,,,,,,,,,10,drama,,,,,,90.7426,92.0443,1,0,0.7757,,0,23,23,9,1,three_way_cognate,1,REAL,FALSA
,,,,,,,,,6046ac1161b60d0fc94b0000,001,2025-04-30_08h54.47.317,empathy_intonation_perc,2024.1.4,Win32,59.88023952,,,,,,,,,,,,,,184,huenos,,,,,,92.0448,93.2963,0,1,0.7125,,0,24,24,183,1,pseudoword,0,REAL,FALSA
,,,,,,,,,6046ac1161b60d0fc94b0000,001,2025-04-30_08h54.47.317,empathy_intonation_perc,2024.1.4,Win32,59.88023952,,,,,,,,,,,,,,186,rizate,,,,,,93.2967,94.6478,0,1,0.817,,0,25,25,185,1,pseudoword,0,REAL,FALSA
,,,,,,,,,6046ac1161b60d0fc94b0000,001,2025-04-30_08h54.47.317,empathy_intonation_perc,2024.1.4,Win32,59.88023952,,,,,,,,,,,,,,31,civil,,,,,,94.6483,96.3002,1,0,1.1382,,0,26,26,30,1,two_way_cognate,1,REAL,FALSA
,,,,,,,,,6046ac1161b60d0fc94b0000,001,2025-04-30_08h54.47.317,empathy_intonation_perc,2024.1.4,Win32,59.88023952,,,,,,,,,,,,,,183,edioso,,,,,,96.3008,97.5192,0,1,0.6949,,0,27,27,182,1,pseudoword,0,REAL,FALSA
,,,,,,,,,6046ac1161b60d0fc94b0000,001,2025-04-30_08h54.47.317,empathy_intonation_perc,2024.1.4,Win32,59.88023952,,,,,,,,,,,,,,112,samón,,,,,,97.5197,99.0214,1,0,0.9628,,0,28,28,111,1,pseudoword,0,REAL,FALSA
,,,,,,,,,6046ac1161b60d0fc94b0000,001,2025-04-30_08h54.47.317,empathy_intonation_perc,2024.1.4,Win32,59.88023952,,,,,,,,,,,,,,11,golf,,,,,,99.022,100.5567,0,1,1.0173,,0,29,29,10,1,three_way_cognate,1,REAL,FALSA
,,,,,,,,,6046ac1161b60d0fc94b0000,001,2025-04-30_08h54.47.317,empathy_intonation_perc,2024.1.4,Win32,59.88023952,,,,,,,,,,,,,,71,torta,,,,,,100.5572,102.0593,0,1,0.9841,,0,30,30,70,1,non_cognate,1,REAL,FALSA
,,,,,,,,,6046ac1161b60d0fc94b0000,001,2025-04-30_08h54.47.317,empathy_intonation_perc,2024.1.4,Win32,59.88023952,,,,,,,,,,,,,,38,halo,,,,,,102.0597,103.6115,0,1,1.032,,0,31,31,37,1,two_way_cognate,1,REAL,FALSA
,,,,,,,,,6046ac1161b60d0fc94b0000,001,2025-04-30_08h54.47.317,empathy_intonation_perc,2024.1.4,Win32,59.88023952,,,,,,,,,,,,,,59,feo,,,,,,103.612,104.8631,0,1,0.7129,,0,32,32,58,1,non_cognate,1,REAL,FALSA
,,,,,,,,,6046ac1161b60d0fc94b0000,001,2025-04-30_08h54.47.317,empathy_intonation_perc,2024.1.4,Win32,59.88023952,,,,,,,,,,,,,,22,mango,,,,,,104.8635,106.2319,1,0,0.855,,0,33,33,21,1,three_way_cognate,1,REAL,FALSA
,,,,,,,,,6046ac1161b60d0fc94b0000,001,2025-04-30_08h54.47.317,empathy_intonation_perc,2024.1.4,Win32,59.88023952,,,,,,,,,,,,,,164,tecia,,,,,,106.2322,107.4671,0,1,0.7258,,0,34,34,163,1,pseudoword,0,REAL,FALSA
,,,,,,,,,6046ac1161b60d0fc94b0000,001,2025-04-30_08h54.47.317,empathy_intonation_perc,2024.1.4,Win32,59.88023952,,,,,,,,,,,,,,43,honor,,,,,,107.4674,108.9194,0,1,0.9362,,0,35,35,42,1,two_way_cognate,1,REAL,FALSA
,,,,,,,,,6046ac1161b60d0fc94b0000,001,2025-04-30_08h54.47.317,empathy_intonation_perc,2024.1.4,Win32,59.88023952,,,,,,,,,,,,,,98,martir,,,,,,108.9198,110.4049,0,1,0.9683,,0,36,36,97,1,pseudoword,0,REAL,FALSA
,,,,,,,,,6046ac1161b60d0fc94b0000,001,2025-04-30_08h54.47.317,empathy_intonation_perc,2024.1.4,Win32,59.88023952,,,,,,,,,,,,,,58,colcha,,,,,,110.4052,111.7068,0,1,0.7809,,0,37,37,57,1,non_cognate,1,REAL,FALSA
,,,,,,,,,6046ac1161b60d0fc94b0000,001,2025-04-30_08h54.47.317,empathy_intonation_perc,2024.1.4,Win32,59.88023952,,,,,,,,,,,,,,1,moral,,,,,,111.7071,113.2091,1,0,0.9929,,0,38,38,0,1,three_way_cognate,1,REAL,FALSA
,,,,,,,,,6046ac1161b60d0fc94b0000,001,2025-04-30_08h54.47.317,empathy_intonation_perc,2024.1.4,Win32,59.88023952,,,,,,,,,,,,,,15,test,,,,,,113.2094,114.8285,1,0,1.0973,,0,39,39,14,1,three_way_cognate,1,REAL,FALSA
,,,,,,,,,6046ac1161b60d0fc94b0000,001,2025-04-30_08h54.47.317,empathy_intonation_perc,2024.1.4,Win32,59.88023952,,,,,,,,,,,,,,51,listo,,,,,,114.8288,116.0968,1,0,0.7581,,0,40,40,50,1,non_cognate,1,REAL,FALSA
,,,,,,,,,6046ac1161b60d0fc94b0000,001,2025-04-30_08h54.47.317,empathy_intonation_perc,2024.1.4,Win32,59.88023952,,,,,,,,,,,,,,53,punta,,,,,,116.0971,117.4828,1,0,0.8662,,0,41,41,52,1,non_cognate,1,REAL,FALSA
,,,,,,,,,6046ac1161b60d0fc94b0000,001,2025-04-30_08h54.47.317,empathy_intonation_perc,2024.1.4,Win32,59.88023952,,,,,,,,,,,,,,176,gripar,,,,,,117.4832,119.0181,0,1,1.0184,,0,42,42,175,1,pseudoword,0,REAL,FALSA
,,,,,,,,,6046ac1161b60d0fc94b0000,001,2025-04-30_08h54.47.317,empathy_intonation_perc,2024.1.4,Win32,59.88023952,,,,,,,,,,,,,,9,portal,,,,,,119.0184,120.5037,1,0,0.9658,,0,43,43,8,1,three_way_cognate,1,REAL,FALSA
,,,,,,,,,6046ac1161b60d0fc94b0000,001,2025-04-30_08h54.47.317,empathy_intonation_perc,2024.1.4,Win32,59.88023952,,,,,,,,,,,,,,23,plural,,,,,,120.5042,122.1238,1,0,1.0946,,0,44,44,22,1,three_way_cognate,1,REAL,FALSA
,,,,,,,,,6046ac1161b60d0fc94b0000,001,2025-04-30_08h54.47.317,empathy_intonation_perc,2024.1.4,Win32,59.88023952,,,,,,,,,,,,,,42,rumor,,,,,,122.1243,123.859,0,1,1.1996,,0,45,45,41,1,two_way_cognate,1,REAL,FALSA
,,,,,,,,,6046ac1161b60d0fc94b0000,001,2025-04-30_08h54.47.317,empathy_intonation_perc,2024.1.4,Win32,59.88023952,,,,,,,,,,,,,,142,parre,,,,,,123.8596,125.1945,0,1,0.8083,,0,46,46,141,1,pseudoword,0,REAL,FALSA
,,,,,,,,,6046ac1161b60d0fc94b0000,001,2025-04-30_08h54.47.317,empathy_intonation_perc,2024.1.4,Win32,59.88023952,,,,,,,,,,,,,,62,pegar,,,,,,125.1951,126.7636,1,0,1.0361,,0,47,47,61,1,non_cognate,1,REAL,FALSA
,,,,,,,,,6046ac1161b60d0fc94b0000,001,2025-04-30_08h54.47.317,empathy_intonation_perc,2024.1.4,Win32,59.88023952,,,,,,,,,,,,,,17,clan,,,,,,126.7642,127.9818,0,1,0.7037,,0,48,48,16,1,three_way_cognate,1,REAL,FALSA
,,,,,,,,,6046ac1161b60d0fc94b0000,001,2025-04-30_08h54.47.317,empathy_intonation_perc,2024.1.4,Win32,59.88023952,,,,,,,,,,,,,,46,mortal,,,,,,127.9822,129.2838,1,0,0.7847,,0,49,49,45,1,two_way_cognate,1,REAL,FALSA
,,,,,,,,,6046ac1161b60d0fc94b0000,001,2025-04-30_08h54.47.317,empathy_intonation_perc,2024.1.4,Win32,59.88023952,,,,,,,,,,,,,,87,muleta,,,,,,129.2844,130.6028,1,0,0.8007,,0,50,50,86,1,non_cognate,1,REAL,FALSA
,,,,,,,,,6046ac1161b60d0fc94b0000,001,2025-04-30_08h54.47.317,empathy_intonation_perc,2024.1.4,Win32,59.88023952,,,,,,,,,,,,,,151,prías,,,,,,130.6031,132.055,0,1,0.9362,,0,51,51,150,1,pseudoword,0,REAL,FALSA
,,,,,,,,,6046ac1161b60d0fc94b0000,001,2025-04-30_08h54.47.317,empathy_intonation_perc,2024.1.4,Win32,59.88023952,,,,,,,,,,,,,,41,pasta,,,,,,132.0555,133.7578,0,1,1.1783,,0,52,52,40,1,two_way_cognate,1,REAL,FALSA
,,,,,,,,,6046ac1161b60d0fc94b0000,001,2025-04-30_08h54.47.317,empathy_intonation_perc,2024.1.4,Win32,59.88023952,,,,,,,,,,,,,,122,boñaz,,,,,,133.7583,135.2264,0,1,0.9422,,0,53,53,121,1,pseudoword,0,REAL,FALSA
,,,,,,,,,6046ac1161b60d0fc94b0000,001,2025-04-30_08h54.47.317,empathy_intonation_perc,2024.1.4,Win32,59.88023952,,,,,,,,,,,,,,26,enigma,,,,,,135.2269,136.5447,0,1,0.7711,,0,54,54,25,1,two_way_cognate,1,REAL,FALSA
,,,,,,,,,6046ac1161b60d0fc94b0000,001,2025-04-30_08h54.47.317,empathy_intonation_perc,2024.1.4,Win32,59.88023952,,,,,,,,,,,,,,160,fomeó,,,,,,136.5453,137.9301,0,1,0.8608,,0,55,55,159,1,pseudoword,0,REAL,FALSA
,,,,,,,,,6046ac1161b60d0fc94b0000,001,2025-04-30_08h54.47.317,empathy_intonation_perc,2024.1.4,Win32,59.88023952,,,,,,,,,,,,,,127,vien,,,,,,137.9306,139.2491,0,1,0.7952,,0,56,56,126,1,pseudoword,0,REAL,FALSA
,,,,,,,,,6046ac1161b60d0fc94b0000,001,2025-04-30_08h54.47.317,empathy_intonation_perc,2024.1.4,Win32,59.88023952,,,,,,,,,,,,,,78,rendir,,,,,,139.2498,140.6853,0,1,0.8973,,0,57,57,77,1,non_cognate,1,REAL,FALSA
,,,,,,,,,6046ac1161b60d0fc94b0000,001,2025-04-30_08h54.47.317,empathy_intonation_perc,2024.1.4,Win32,59.88023952,,,,,,,,,,,,,,86,cuenco,,,,,,140.6857,142.1367,0,1,0.9199,,0,58,58,85,1,non_cognate,1,REAL,FALSA
,,,,,,,,,6046ac1161b60d0fc94b0000,001,2025-04-30_08h54.47.317,empathy_intonation_perc,2024.1.4,Win32,59.88023952,,,,,,,,,,,,,,7,albino,,,,,,142.1372,143.7893,0,1,1.1371,,0,59,59,6,1,three_way_cognate,1,REAL,FALSA
,,,,,,,,,6046ac1161b60d0fc94b0000,001,2025-04-30_08h54.47.317,empathy_intonation_perc,2024.1.4,Win32,59.88023952,,,,,,,,,,,,,,154,harvé,,,,,,143.7896,145.6089,0,1,1.3043,,0,60,60,153,1,pseudoword,0,REAL,FALSA
,,,,,,,,,6046ac1161b60d0fc94b0000,001,2025-04-30_08h54.47.317,empathy_intonation_perc,2024.1.4,Win32,59.88023952,,,,,,,,,,,,,,148,gino,,,,,,145.6093,147.0775,0,1,0.9467,,0,61,61,147,1,pseudoword,0,REAL,FALSA
,,,,,,,,,6046ac1161b60d0fc94b0000,001,2025-04-30_08h54.47.317,empathy_intonation_perc,2024.1.4,Win32,59.88023952,,,,,,,,,,,,,,161,civas,,,,,,147.078,148.4797,0,1,0.8753,,0,62,62,160,1,pseudoword,0,REAL,FALSA
,,,,,,,,,6046ac1161b60d0fc94b0000,001,2025-04-30_08h54.47.317,empathy_intonation_perc,2024.1.4,Win32,59.88023952,,,,,,,,,,,,,,34,actor,,,,,,148.4801,149.932,0,1,0.9352,,0,63,63,33,1,two_way_cognate,1,REAL,FALSA
,,,,,,,,,6046ac1161b60d0fc94b0000,001,2025-04-30_08h54.47.317,empathy_intonation_perc,2024.1.4,Win32,59.88023952,,,,,,,,,,,,,,16,chat,,,,,,149.9327,151.5678,1,0,1.0983,,0,64,64,15,1,three_way_cognate,1,REAL,FALSA
,,,,,,,,,6046ac1161b60d0fc94b0000,001,2025-04-30_08h54.47.317,empathy_intonation_perc,2024.1.4,Win32,59.88023952,,,,,,,,,,,,,,75,patada,,,,,,151.5688,153.1871,1,0,1.0758,,0,65,65,74,1,non_cognate,1,REAL,FALSA
,,,,,,,,,6046ac1161b60d0fc94b0000,001,2025-04-30_08h54.47.317,empathy_intonation_perc,2024.1.4,Win32,59.88023952,,,,,,,,,,,,,,172,dogue,,,,,,153.1879,154.5558,0,1,0.8295,,0,66,66,171,1,pseudoword,0,REAL,FALSA
,,,,,,,,,6046ac1161b60d0fc94b0000,001,2025-04-30_08h54.47.317,empathy_intonation_perc,2024.1.4,Win32,59.88023952,,,,,,,,,,,,,,76,chocar,,,,,,154.5561,155.924,0,1,0.8557,,0,67,67,75,1,non_cognate,1,REAL,FALSA
,,,,,,,,,6046ac1161b60d0fc94b0000,001,2025-04-30_08h54.47.317,empathy_intonation_perc,2024.1.4,Win32,59.88023952,,,,,,,,,,,,,,191,frasis,,,,,,155.9248,157.1932,0,1,0.7462,,0,68,68,190,1,pseudoword,0,REAL,FALSA
,,,,,,,,,6046ac1161b60d0fc94b0000,001,2025-04-30_08h54.47.317,empathy_intonation_perc,2024.1.4,Win32,59.88023952,,,,,,,,,,,,,,94,forro,,,,,,157.1938,158.3616,0,1,0.6339,,0,69,69,93,1,non_cognate,1,REAL,FALSA
,,,,,,,,,6046ac1161b60d0fc94b0000,001,2025-04-30_08h54.47.317,empathy_intonation_perc,2024.1.4,Win32,59.88023952,,,,,,,,,,,,,,173,mibro,,,,,,158.3622,159.5968,0,1,0.6943,,0,70,70,172,1,pseudoword,0,REAL,FALSA
,,,,,,,,,6046ac1161b60d0fc94b0000,001,2025-04-30_08h54.47.317,empathy_intonation_perc,2024.1.4,Win32,59.88023952,,,,,,,,,,,,,,85,enorme,,,,,,159.5975,161.3327,1,0,1.1952,,0,71,71,84,1,non_cognate,1,REAL,FALSA
,,,,,,,,,6046ac1161b60d0fc94b0000,001,2025-04-30_08h54.47.317,empathy_intonation_perc,2024.1.4,Win32,59.88023952,,,,,,,,,,,,,,8,kilo,,,,,,161.3334,162.6347,1,0,0.7583,,0,72,72,7,1,three_way_cognate,1,REAL,FALSA
,,,,,,,,,6046ac1161b60d0fc94b0000,001,2025-04-30_08h54.47.317,empathy_intonation_perc,2024.1.4,Win32,59.88023952,,,,,,,,,,,,,,61,aduana,,,,,,162.6353,163.9197,0,1,0.7446,,0,73,73,60,1,non_cognate,1,REAL,FALSA
,,,,,,,,,6046ac1161b60d0fc94b0000,001,2025-04-30_08h54.47.317,empathy_intonation_perc,2024.1.4,Win32,59.88023952,,,,,,,,,,,,,,60,siglo,,,,,,163.9202,165.2049,0,1,0.7614,,0,74,74,59,1,non_cognate,1,REAL,FALSA
,,,,,,,,,6046ac1161b60d0fc94b0000,001,2025-04-30_08h54.47.317,empathy_intonation_perc,2024.1.4,Win32,59.88023952,,,,,,,,,,,,,,5,extra,,,,,,165.2055,166.7243,1,0,1.0033,,0,75,75,4,1,three_way_cognate,1,REAL,FALSA
,,,,,,,,,6046ac1161b60d0fc94b0000,001,2025-04-30_08h54.47.317,empathy_intonation_perc,2024.1.4,Win32,59.88023952,,,,,,,,,,,,,,177,entodo,,,,,,166.7246,168.1765,1,0,0.9097,,0,76,76,176,1,pseudoword,0,REAL,FALSA
,,,,,,,,,6046ac1161b60d0fc94b0000,001,2025-04-30_08h54.47.317,empathy_intonation_perc,2024.1.4,Win32,59.88023952,,,,,,,,,,,,,,102,coyo,,,,,,168.1772,169.3947,0,1,0.688,,0,77,77,101,1,pseudoword,0,REAL,FALSA
,,,,,,,,,6046ac1161b60d0fc94b0000,001,2025-04-30_08h54.47.317,empathy_intonation_perc,2024.1.4,Win32,59.88023952,,,,,,,,,,,,,,139,sasos,,,,,,169.3952,170.6135,0,1,0.6971,,0,78,78,138,1,pseudoword,0,REAL,FALSA
,,,,,,,,,6046ac1161b60d0fc94b0000,001,2025-04-30_08h54.47.317,empathy_intonation_perc,2024.1.4,Win32,59.88023952,,,,,,,,,,,,,,70,ánimo,,,,,,170.6139,172.2157,1,0,1.0642,,0,79,79,69,1,non_cognate,1,REAL,FALSA
,,,,,,,,,6046ac1161b60d0fc94b0000,001,2025-04-30_08h54.47.317,empathy_intonation_perc,2024.1.4,Win32,59.88023952,,,,,,,,,,,,,,54,tapón,,,,,,172.2162,173.7516,0,1,1.0142,,0,80,80,53,1,non_cognate,1,REAL,FALSA
,,,,,,,,,6046ac1161b60d0fc94b0000,001,2025-04-30_08h54.47.317,empathy_intonation_perc,2024.1.4,Win32,59.88023952,,,,,,,,,,,,,,44,editor,,,,,,173.7523,175.3041,0,1,1.0136,,0,81,81,43,1,two_way_cognate,1,REAL,FALSA
,,,,,,,,,6046ac1161b60d0fc94b0000,001,2025-04-30_08h54.47.317,empathy_intonation_perc,2024.1.4,Win32,59.88023952,,,,,,,,,,,,,,2,tumor,,,,,,175.3048,176.8402,0,1,0.9917,,0,82,82,1,1,three_way_cognate,1,REAL,FALSA
,,,,,,,,,6046ac1161b60d0fc94b0000,001,2025-04-30_08h54.47.317,empathy_intonation_perc,2024.1.4,Win32,59.88023952,,,,,,,,,,,,,,166,anfia,,,,,,176.8408,178.1749,0,1,0.8123,,0,83,83,165,1,pseudoword,0,REAL,FALSA
,,,,,,,,,6046ac1161b60d0fc94b0000,001,2025-04-30_08h54.47.317,empathy_intonation_perc,2024.1.4,Win32,59.88023952,,,,,,,,,,,,,,32,animal,,,,,,178.1754,179.5938,0,1,0.8957,,0,84,84,31,1,two_way_cognate,1,REAL,FALSA
,,,,,,,,,6046ac1161b60d0fc94b0000,001,2025-04-30_08h54.47.317,empathy_intonation_perc,2024.1.4,Win32,59.88023952,,,,,,,,,,,,,,137,trugo,,,,,,179.5945,180.8459,0,1,0.71,,0,85,85,136,1,pseudoword,0,REAL,FALSA
,,,,,,,,,6046ac1161b60d0fc94b0000,001,2025-04-30_08h54.47.317,empathy_intonation_perc,2024.1.4,Win32,59.88023952,,,,,,,,,,,,,,28,ardor,,,,,,180.8468,181.964,0,1,0.5798,,0,86,86,27,1,two_way_cognate,1,REAL,FALSA
,,,,,,,,,6046ac1161b60d0fc94b0000,001,2025-04-30_08h54.47.317,empathy_intonation_perc,2024.1.4,Win32,59.88023952,,,,,,,,,,,,,,131,fuar,,,,,,181.9647,183.0824,0,1,0.5854,,0,87,87,130,1,pseudoword,0,REAL,FALSA
,,,,,,,,,6046ac1161b60d0fc94b0000,001,2025-04-30_08h54.47.317,empathy_intonation_perc,2024.1.4,Win32,59.88023952,,,,,,,,,,,,,,171,gotro,,,,,,183.0828,184.1842,0,1,0.5816,,0,88,88,170,1,pseudoword,0,REAL,FALSA
,,,,,,,,,6046ac1161b60d0fc94b0000,001,2025-04-30_08h54.47.317,empathy_intonation_perc,2024.1.4,Win32,59.88023952,,,,,,,,,,,,,,192,próces,,,,,,184.1849,185.5525,0,1,0.8524,,0,89,89,191,1,pseudoword,0,REAL,FALSA
,,,,,,,,,6046ac1161b60d0fc94b0000,001,2025-04-30_08h54.47.317,empathy_intonation_perc,2024.1.4,Win32,59.88023952,,,,,,,,,,,,,,55,maldad,,,,,,185.5529,186.6879,0,1,0.6106,,0,90,90,54,1,non_cognate,1,REAL,FALSA
,,,,,,,,,6046ac1161b60d0fc94b0000,001,2025-04-30_08h54.47.317,empathy_intonation_perc,2024.1.4,Win32,59.88023952,,,,,,,,,,,,,,56,pico,,,,,,186.6885,187.9731,0,1,0.7429,,0,91,91,55,1,non_cognate,1,REAL,FALSA
,,,,,,,,,6046ac1161b60d0fc94b0000,001,2025-04-30_08h54.47.317,empathy_intonation_perc,2024.1.4,Win32,59.88023952,,,,,,,,,,,,,,106,diebro,,,,,,187.9737,189.0582,0,1,0.5449,,0,92,92,105,1,pseudoword,0,REAL,FALSA
,,,,,,,,,6046ac1161b60d0fc94b0000,001,2025-04-30_08h54.47.317,empathy_intonation_perc,2024.1.4,Win32,59.88023952,,,,,,,,,,,,,,82,brillo,,,,,,189.0587,190.6442,0,1,1.053,,0,93,93,81,1,non_cognate,1,REAL,FALSA
,,,,,,,,,6046ac1161b60d0fc94b0000,001,2025-04-30_08h54.47.317,empathy_intonation_perc,2024.1.4,Win32,59.88023952,,,,,,,,,,,,,,114,dibrea,,,,,,190.6448,192.0293,0,1,0.8716,,0,94,94,113,1,pseudoword,0,REAL,FALSA
,,,,,,,,,6046ac1161b60d0fc94b0000,001,2025-04-30_08h54.47.317,empathy_intonation_perc,2024.1.4,Win32,59.88023952,,,,,,,,,,,,,,25,vigor,,,,,,192.0296,193.248,0,1,0.6922,,0,95,95,24,1,two_way_cognate,1,REAL,FALSA
,,,,,,,,,6046ac1161b60d0fc94b0000,001,2025-04-30_08h54.47.317,empathy_intonation_perc,2024.1.4,Win32,59.88023952,,,,,,,,,,,,,,63,hilo,,,,,,193.2487,194.4326,0,1,0.6539,,0,96,96,62,1,non_cognate,1,REAL,FALSA
,,,,,,,,,6046ac1161b60d0fc94b0000,001,2025-04-30_08h54.47.317,empathy_intonation_perc,2024.1.4,Win32,59.88023952,,,,,,,,,,,,,,126,tobre,,,,,,194.4332,195.618,0,1,0.6638,,0,97,97,125,1,pseudoword,0,REAL,FALSA
,,,,,,,,,6046ac1161b60d0fc94b0000,001,2025-04-30_08h54.47.317,empathy_intonation_perc,2024.1.4,Win32,59.88023952,,,,,,,,,,,,,,143,hurcos,,,,,,195.6185,196.9032,0,1,0.7661,,0,98,98,142,1,pseudoword,0,REAL,FALSA
,,,,,,,,,6046ac1161b60d0fc94b0000,001,2025-04-30_08h54.47.317,empathy_intonation_perc,2024.1.4,Win32,59.88023952,,,,,,,,,,,,,,188,amplir,,,,,,196.9036,198.0886,0,1,0.663,,0,99,99,187,1,pseudoword,0,REAL,FALSA
,,,,,,,,,6046ac1161b60d0fc94b0000,001,2025-04-30_08h54.47.317,empathy_intonation_perc,2024.1.4,Win32,59.88023952,,,,,,,,,,,,,,39,casual,,,,,,198.0892,199.591,0,1,0.959,,0,100,100,38,1,two_way_cognate,1,REAL,FALSA
,,,,,,,,,6046ac1161b60d0fc94b0000,001,2025-04-30_08h54.47.317,empathy_intonation_perc,2024.1.4,Win32,59.88023952,,,,,,,,,,,,,,152,prave,,,,,,199.5915,200.9764,0,1,0.8611,,0,101,101,151,1,pseudoword,0,REAL,FALSA
,,,,,,,,,6046ac1161b60d0fc94b0000,001,2025-04-30_08h54.47.317,empathy_intonation_perc,2024.1.4,Win32,59.88023952,,,,,,,,,,,,,,67,llamar,,,,,,200.977,202.5455,1,0,1.0361,,0,102,102,66,1,non_cognate,1,REAL,FALSA
,,,,,,,,,6046ac1161b60d0fc94b0000,001,2025-04-30_08h54.47.317,empathy_intonation_perc,2024.1.4,Win32,59.88023952,,,,,,,,,,,,,,36,viable,,,,,,202.5461,204.2142,0,1,1.1526,,0,103,103,35,1,two_way_cognate,1,REAL,FALSA
,,,,,,,,,6046ac1161b60d0fc94b0000,001,2025-04-30_08h54.47.317,empathy_intonation_perc,2024.1.4,Win32,59.88023952,,,,,,,,,,,,,,162,cengo,,,,,,204.2146,205.5663,0,1,0.8299,,0,104,104,161,1,pseudoword,0,REAL,FALSA
,,,,,,,,,6046ac1161b60d0fc94b0000,001,2025-04-30_08h54.47.317,empathy_intonation_perc,2024.1.4,Win32,59.88023952,,,,,,,,,,,,,,101,losco,,,,,,205.5668,206.8017,0,1,0.7189,,0,105,105,100,1,pseudoword,0,REAL,FALSA
,,,,,,,,,6046ac1161b60d0fc94b0000,001,2025-04-30_08h54.47.317,empathy_intonation_perc,2024.1.4,Win32,59.88023952,,,,,,,,,,,,,,115,lidena,,,,,,206.8021,207.9035,0,1,0.5616,,0,106,106,114,1,pseudoword,0,REAL,FALSA
,,,,,,,,,6046ac1161b60d0fc94b0000,001,2025-04-30_08h54.47.317,empathy_intonation_perc,2024.1.4,Win32,59.88023952,,,,,,,,,,,,,,37,torso,,,,,,207.904,209.0218,0,1,0.5959,,0,107,107,36,1,two_way_cognate,1,REAL,FALSA
,,,,,,,,,6046ac1161b60d0fc94b0000,001,2025-04-30_08h54.47.317,empathy_intonation_perc,2024.1.4,Win32,59.88023952,,,,,,,,,,,,,,30,fiscal,,,,,,209.0223,210.7413,0,1,1.2012,,0,108,108,29,1,two_way_cognate,1,REAL,FALSA
,,,,,,,,,6046ac1161b60d0fc94b0000,001,2025-04-30_08h54.47.317,empathy_intonation_perc,2024.1.4,Win32,59.88023952,,,,,,,,,,,,,,3,disco,,,,,,210.7419,212.4438,1,0,1.1835,,0,109,109,2,1,three_way_cognate,1,REAL,FALSA
,,,,,,,,,6046ac1161b60d0fc94b0000,001,2025-04-30_08h54.47.317,empathy_intonation_perc,2024.1.4,Win32,59.88023952,,,,,,,,,,,,,,123,arane,,,,,,212.4443,213.5786,0,1,0.6049,,0,110,110,122,1,pseudoword,0,REAL,FALSA
,,,,,,,,,6046ac1161b60d0fc94b0000,001,2025-04-30_08h54.47.317,empathy_intonation_perc,2024.1.4,Win32,59.88023952,,,,,,,,,,,,,,169,pitis,,,,,,213.5791,214.7139,0,1,0.6201,,0,111,111,168,1,pseudoword,0,REAL,FALSA
,,,,,,,,,6046ac1161b60d0fc94b0000,001,2025-04-30_08h54.47.317,empathy_intonation_perc,2024.1.4,Win32,59.88023952,,,,,,,,,,,,,,72,rostro,,,,,,214.7143,215.8828,0,1,0.6355,,0,112,112,71,1,non_cognate,1,REAL,FALSA
,,,,,,,,,6046ac1161b60d0fc94b0000,001,2025-04-30_08h54.47.317,empathy_intonation_perc,2024.1.4,Win32,59.88023952,,,,,,,,,,,,,,163,llzan,,,,,,215.8833,217.1006,0,1,0.6834,,0,113,113,162,1,pseudoword,0,REAL,FALSA
,,,,,,,,,6046ac1161b60d0fc94b0000,001,2025-04-30_08h54.47.317,empathy_intonation_perc,2024.1.4,Win32,59.88023952,,,,,,,,,,,,,,179,suelet,,,,,,217.101,218.186,0,1,0.5667,,0,114,114,178,1,pseudoword,0,REAL,FALSA
,,,,,,,,,6046ac1161b60d0fc94b0000,001,2025-04-30_08h54.47.317,empathy_intonation_perc,2024.1.4,Win32,59.88023952,,,,,,,,,,,,,,119,esís,,,,,,218.1865,219.3384,0,1,0.6295,,0,115,115,118,1,pseudoword,0,REAL,FALSA
,,,,,,,,,6046ac1161b60d0fc94b0000,001,2025-04-30_08h54.47.317,empathy_intonation_perc,2024.1.4,Win32,59.88023952,,,,,,,,,,,,,,156,ozoso,,,,,,219.3391,220.6228,0,1,0.7446,,0,116,116,155,1,pseudoword,0,REAL,FALSA
,,,,,,,,,6046ac1161b60d0fc94b0000,001,2025-04-30_08h54.47.317,empathy_intonation_perc,2024.1.4,Win32,59.88023952,,,,,,,,,,,,,,116,grigir,,,,,,220.6234,221.7916,0,1,0.6313,,0,117,117,115,1,pseudoword,0,REAL,FALSA
,,,,,,,,,6046ac1161b60d0fc94b0000,001,2025-04-30_08h54.47.317,empathy_intonation_perc,2024.1.4,Win32,59.88023952,,,,,,,,,,,,,,103,vueras,,,,,,221.7923,222.9432,0,1,0.6317,,0,118,118,102,1,pseudoword,0,REAL,FALSA
,,,,,,,,,6046ac1161b60d0fc94b0000,001,2025-04-30_08h54.47.317,empathy_intonation_perc,2024.1.4,Win32,59.88023952,,,,,,,,,,,,,,35,aurora,,,,,,222.9438,224.4618,0,1,0.9744,,0,119,119,34,1,two_way_cognate,1,REAL,FALSA
,,,,,,,,,6046ac1161b60d0fc94b0000,001,2025-04-30_08h54.47.317,empathy_intonation_perc,2024.1.4,Win32,59.88023952,,,,,,,,,,,,,,4,flora,,,,,,224.4625,226.3482,1,0,1.3459,,0,120,120,3,1,three_way_cognate,1,REAL,FALSA
,,,,,,,,,6046ac1161b60d0fc94b0000,001,2025-04-30_08h54.47.317,empathy_intonation_perc,2024.1.4,Win32,59.88023952,,,,,,,,,,,,,,134,molor,,,,,,226.3489,228.201,1,0,1.3115,,0,121,121,133,1,pseudoword,0,REAL,FALSA
,,,,,,,,,6046ac1161b60d0fc94b0000,001,2025-04-30_08h54.47.317,empathy_intonation_perc,2024.1.4,Win32,59.88023952,,,,,,,,,,,,,,113,nasce,,,,,,228.2017,229.3701,0,1,0.6313,,0,122,122,112,1,pseudoword,0,REAL,FALSA
,,,,,,,,,6046ac1161b60d0fc94b0000,001,2025-04-30_08h54.47.317,empathy_intonation_perc,2024.1.4,Win32,59.88023952,,,,,,,,,,,,,,77,suave,,,,,,229.3707,230.4542,0,1,0.5499,,0,123,123,76,1,non_cognate,1,REAL,FALSA
,,,,,,,,,6046ac1161b60d0fc94b0000,001,2025-04-30_08h54.47.317,empathy_intonation_perc,2024.1.4,Win32,59.88023952,,,,,,,,,,,,,,130,dubo,,,,,,230.4546,231.5059,0,1,0.5306,,0,124,124,129,1,pseudoword,0,REAL,FALSA
,,,,,,,,,6046ac1161b60d0fc94b0000,001,2025-04-30_08h54.47.317,empathy_intonation_perc,2024.1.4,Win32,59.88023952,,,,,,,,,,,,,,81,sacar,,,,,,231.5064,232.6073,0,1,0.5892,,0,125,125,80,1,non_cognate,1,REAL,FALSA
,,,,,,,,,6046ac1161b60d0fc94b0000,001,2025-04-30_08h54.47.317,empathy_intonation_perc,2024.1.4,Win32,59.88023952,,,,,,,,,,,,,,80,cuenco,,,,,,232.6077,233.7928,0,1,0.6626,,0,126,126,79,1,non_cognate,1,REAL,FALSA
,,,,,,,,,6046ac1161b60d0fc94b0000,001,2025-04-30_08h54.47.317,empathy_intonation_perc,2024.1.4,Win32,59.88023952,,,,,,,,,,,,,,117,morrá,,,,,,233.7933,235.0786,0,1,0.7642,,0,127,127,116,1,pseudoword,0,REAL,FALSA
,,,,,,,,,6046ac1161b60d0fc94b0000,001,2025-04-30_08h54.47.317,empathy_intonation_perc,2024.1.4,Win32,59.88023952,,,,,,,,,,,,,,170,diabo,,,,,,235.0792,236.28,0,1,0.6699,,0,128,128,169,1,pseudoword,0,REAL,FALSA
,,,,,,,,,6046ac1161b60d0fc94b0000,001,2025-04-30_08h54.47.317,empathy_intonation_perc,2024.1.4,Win32,59.88023952,,,,,,,,,,,,,,92,flecha,,,,,,236.2806,237.4653,0,1,0.6454,,0,129,129,91,1,non_cognate,1,REAL,FALSA
,,,,,,,,,6046ac1161b60d0fc94b0000,001,2025-04-30_08h54.47.317,empathy_intonation_perc,2024.1.4,Win32,59.88023952,,,,,,,,,,,,,,47,color,,,,,,237.4657,238.9674,0,1,0.9708,,0,130,130,46,1,two_way_cognate,1,REAL,FALSA
,,,,,,,,,6046ac1161b60d0fc94b0000,001,2025-04-30_08h54.47.317,empathy_intonation_perc,2024.1.4,Win32,59.88023952,,,,,,,,,,,,,,48,pelvis,,,,,,238.9678,240.3364,0,1,0.8519,,0,131,131,47,1,two_way_cognate,1,REAL,FALSA
,,,,,,,,,6046ac1161b60d0fc94b0000,001,2025-04-30_08h54.47.317,empathy_intonation_perc,2024.1.4,Win32,59.88023952,,,,,,,,,,,,,,84,aviso,,,,,,240.3371,241.4709,0,1,0.6201,,0,132,132,83,1,non_cognate,1,REAL,FALSA
,,,,,,,,,6046ac1161b60d0fc94b0000,001,2025-04-30_08h54.47.317,empathy_intonation_perc,2024.1.4,Win32,59.88023952,,,,,,,,,,,,,,89,muñeca,,,,,,241.4714,243.1406,1,0,1.1461,,0,133,133,88,1,non_cognate,1,REAL,FALSA
,,,,,,,,,6046ac1161b60d0fc94b0000,001,2025-04-30_08h54.47.317,empathy_intonation_perc,2024.1.4,Win32,59.88023952,,,,,,,,,,,,,,90,venado,,,,,,243.1413,244.3922,0,1,0.7095,,0,134,134,89,1,non_cognate,1,REAL,FALSA
,,,,,,,,,6046ac1161b60d0fc94b0000,001,2025-04-30_08h54.47.317,empathy_intonation_perc,2024.1.4,Win32,59.88023952,,,,,,,,,,,,,,24,retina,,,,,,244.3927,245.5774,0,1,0.6661,,0,135,135,23,1,three_way_cognate,1,REAL,FALSA
,,,,,,,,,6046ac1161b60d0fc94b0000,001,2025-04-30_08h54.47.317,empathy_intonation_perc,2024.1.4,Win32,59.88023952,,,,,,,,,,,,,,132,nocó,,,,,,245.5782,247.1463,0,1,1.0379,,0,136,136,131,1,pseudoword,0,REAL,FALSA
,,,,,,,,,6046ac1161b60d0fc94b0000,001,2025-04-30_08h54.47.317,empathy_intonation_perc,2024.1.4,Win32,59.88023952,,,,,,,,,,,,,,125,ceme,,,,,,247.1469,248.4158,0,1,0.7478,,0,137,137,124,1,pseudoword,0,REAL,FALSA
,,,,,,,,,6046ac1161b60d0fc94b0000,001,2025-04-30_08h54.47.317,empathy_intonation_perc,2024.1.4,Win32,59.88023952,,,,,,,,,,,,,,74,ala,,,,,,248.4163,249.5334,0,1,0.5864,,0,138,138,73,1,non_cognate,1,REAL,FALSA
,,,,,,,,,6046ac1161b60d0fc94b0000,001,2025-04-30_08h54.47.317,empathy_intonation_perc,2024.1.4,Win32,59.88023952,,,,,,,,,,,,,,181,gravés,,,,,,249.5338,251.1362,0,1,1.0913,,0,139,139,180,1,pseudoword,0,REAL,FALSA
,,,,,,,,,6046ac1161b60d0fc94b0000,001,2025-04-30_08h54.47.317,empathy_intonation_perc,2024.1.4,Win32,59.88023952,,,,,,,,,,,,,,135,panté,,,,,,251.1366,252.6046,1,0,0.9401,,0,140,140,134,1,pseudoword,0,REAL,FALSA
,,,,,,,,,6046ac1161b60d0fc94b0000,001,2025-04-30_08h54.47.317,empathy_intonation_perc,2024.1.4,Win32,59.88023952,,,,,,,,,,,,,,88,percha,,,,,,252.6051,254.0234,0,1,0.887,,0,141,141,87,1,non_cognate,1,REAL,FALSA
,,,,,,,,,6046ac1161b60d0fc94b0000,001,2025-04-30_08h54.47.317,empathy_intonation_perc,2024.1.4,Win32,59.88023952,,,,,,,,,,,,,,107,plago,,,,,,254.0239,255.7929,1,0,1.2569,,0,142,142,106,1,pseudoword,0,REAL,FALSA
,,,,,,,,,6046ac1161b60d0fc94b0000,001,2025-04-30_08h54.47.317,empathy_intonation_perc,2024.1.4,Win32,59.88023952,,,,,,,,,,,,,,69,tiza,,,,,,255.7934,256.8947,0,1,0.566,,0,143,143,68,1,non_cognate,1,REAL,FALSA
,,,,,,,,,6046ac1161b60d0fc94b0000,001,2025-04-30_08h54.47.317,empathy_intonation_perc,2024.1.4,Win32,59.88023952,,,,,,,,,,,,,,40,pelvis,,,,,,256.8952,258.6139,0,1,1.1825,,0,144,144,39,1,two_way_cognate,1,REAL,FALSA
,,,,,,,,,6046ac1161b60d0fc94b0000,001,2025-04-30_08h54.47.317,empathy_intonation_perc,2024.1.4,Win32,59.88023952,,,,,,,,,,,,,,149,emén,,,,,,258.6145,259.6488,0,1,0.5009,,0,145,145,148,1,pseudoword,0,REAL,FALSA
,,,,,,,,,6046ac1161b60d0fc94b0000,001,2025-04-30_08h54.47.317,empathy_intonation_perc,2024.1.4,Win32,59.88023952,,,,,,,,,,,,,,19,mafia,,,,,,259.6495,261.3515,0,1,1.1626,,0,146,146,18,1,three_way_cognate,1,REAL,FALSA
,,,,,,,,,6046ac1161b60d0fc94b0000,001,2025-04-30_08h54.47.317,empathy_intonation_perc,2024.1.4,Win32,59.88023952,,,,,,,,,,,,,,21,hotel,,,,,,261.3521,263.5212,1,0,1.6285,,0,147,147,20,1,three_way_cognate,1,REAL,FALSA
,,,,,,,,,6046ac1161b60d0fc94b0000,001,2025-04-30_08h54.47.317,empathy_intonation_perc,2024.1.4,Win32,59.88023952,,,,,,,,,,,,,,147,alla,,,,,,263.5216,264.7734,0,1,0.7236,,0,148,148,146,1,pseudoword,0,REAL,FALSA
,,,,,,,,,6046ac1161b60d0fc94b0000,001,2025-04-30_08h54.47.317,empathy_intonation_perc,2024.1.4,Win32,59.88023952,,,,,,,,,,,,,,91,equipo,,,,,,264.7745,266.1424,1,0,0.8279,,0,149,149,90,1,non_cognate,1,REAL,FALSA
,,,,,,,,,6046ac1161b60d0fc94b0000,001,2025-04-30_08h54.47.317,empathy_intonation_perc,2024.1.4,Win32,59.88023952,,,,,,,,,,,,,,12,dogma,,,,,,266.1428,268.0616,1,0,1.3908,,0,150,150,11,1,three_way_cognate,1,REAL,FALSA
,,,,,,,,,6046ac1161b60d0fc94b0000,001,2025-04-30_08h54.47.317,empathy_intonation_perc,2024.1.4,Win32,59.88023952,,,,,,,,,,,,,,140,chorde,,,,,,268.062,269.1962,0,1,0.608,,0,151,151,139,1,pseudoword,0,REAL,FALSA
,,,,,,,,,6046ac1161b60d0fc94b0000,001,2025-04-30_08h54.47.317,empathy_intonation_perc,2024.1.4,Win32,59.88023952,,,,,,,,,,,,,,96,caro,,,,,,269.1969,270.2982,0,1,0.5799,,0,152,152,95,1,non_cognate,1,REAL,FALSA
,,,,,,,,,6046ac1161b60d0fc94b0000,001,2025-04-30_08h54.47.317,empathy_intonation_perc,2024.1.4,Win32,59.88023952,,,,,,,,,,,,,,93,tapa,,,,,,270.2987,272.1009,1,0,1.291,,0,153,153,92,1,non_cognate,1,REAL,FALSA
,,,,,,,,,6046ac1161b60d0fc94b0000,001,2025-04-30_08h54.47.317,empathy_intonation_perc,2024.1.4,Win32,59.88023952,,,,,,,,,,,,,,158,babrá,,,,,,272.1014,273.4696,0,1,0.8451,,0,154,154,157,1,pseudoword,0,REAL,FALSA
,,,,,,,,,6046ac1161b60d0fc94b0000,001,2025-04-30_08h54.47.317,empathy_intonation_perc,2024.1.4,Win32,59.88023952,,,,,,,,,,,,,,45,total,,,,,,273.4702,275.5403,1,0,1.554,,0,155,155,44,1,two_way_cognate,1,REAL,FALSA
,,,,,,,,,6046ac1161b60d0fc94b0000,001,2025-04-30_08h54.47.317,empathy_intonation_perc,2024.1.4,Win32,59.88023952,,,,,,,,,,,,,,157,seled,,,,,,275.5407,276.7079,0,1,0.6334,,0,156,156,156,1,pseudoword,0,REAL,FALSA
,,,,,,,,,6046ac1161b60d0fc94b0000,001,2025-04-30_08h54.47.317,empathy_intonation_perc,2024.1.4,Win32,59.88023952,,,,,,,,,,,,,,13,plan,,,,,,276.7084,278.2103,0,1,0.9805,,0,157,157,12,1,three_way_cognate,1,REAL,FALSA
,,,,,,,,,6046ac1161b60d0fc94b0000,001,2025-04-30_08h54.47.317,empathy_intonation_perc,2024.1.4,Win32,59.88023952,,,,,,,,,,,,,,79,suelo,,,,,,278.2108,279.3287,0,1,0.5799,,0,158,158,78,1,non_cognate,1,REAL,FALSA
,,,,,,,,,6046ac1161b60d0fc94b0000,001,2025-04-30_08h54.47.317,empathy_intonation_perc,2024.1.4,Win32,59.88023952,,,,,,,,,,,,,,118,bará,,,,,,279.3294,280.4305,0,1,0.5773,,0,159,159,117,1,pseudoword,0,REAL,FALSA
,,,,,,,,,6046ac1161b60d0fc94b0000,001,2025-04-30_08h54.47.317,empathy_intonation_perc,2024.1.4,Win32,59.88023952,,,,,,,,,,,,,,128,pelí,,,,,,280.431,281.5988,0,1,0.6308,,0,160,160,127,1,pseudoword,0,REAL,FALSA
,,,,,,,,,6046ac1161b60d0fc94b0000,001,2025-04-30_08h54.47.317,empathy_intonation_perc,2024.1.4,Win32,59.88023952,,,,,,,,,,,,,,18,altar,,,,,,281.5995,283.0344,0,1,0.897,,0,161,161,17,1,three_way_cognate,1,REAL,FALSA
,,,,,,,,,6046ac1161b60d0fc94b0000,001,2025-04-30_08h54.47.317,empathy_intonation_perc,2024.1.4,Win32,59.88023952,,,,,,,,,,,,,,155,kugis,,,,,,283.0348,284.2695,0,1,0.7014,,0,162,162,154,1,pseudoword,0,REAL,FALSA
,,,,,,,,,6046ac1161b60d0fc94b0000,001,2025-04-30_08h54.47.317,empathy_intonation_perc,2024.1.4,Win32,59.88023952,,,,,,,,,,,,,,141,virios,,,,,,284.2701,285.4047,0,1,0.6238,,0,163,163,140,1,pseudoword,0,REAL,FALSA
,,,,,,,,,6046ac1161b60d0fc94b0000,001,2025-04-30_08h54.47.317,empathy_intonation_perc,2024.1.4,Win32,59.88023952,,,,,,,,,,,,,,190,asumie,,,,,,285.4052,286.5894,0,1,0.6707,,0,164,164,189,1,pseudoword,0,REAL,FALSA
,,,,,,,,,6046ac1161b60d0fc94b0000,001,2025-04-30_08h54.47.317,empathy_intonation_perc,2024.1.4,Win32,59.88023952,,,,,,,,,,,,,,6,horror,,,,,,286.59,287.8589,0,1,0.7468,,0,165,165,5,1,three_way_cognate,1,REAL,FALSA
,,,,,,,,,6046ac1161b60d0fc94b0000,001,2025-04-30_08h54.47.317,empathy_intonation_perc,2024.1.4,Win32,59.88023952,,,,,,,,,,,,,,133,conso,,,,,,287.8594,288.9267,0,1,0.5234,,0,166,166,132,1,pseudoword,0,REAL,FALSA
,,,,,,,,,6046ac1161b60d0fc94b0000,001,2025-04-30_08h54.47.317,empathy_intonation_perc,2024.1.4,Win32,59.88023952,,,,,,,,,,,,,,153,golla,,,,,,288.9275,290.0282,0,1,0.5667,,0,167,167,152,1,pseudoword,0,REAL,FALSA
,,,,,,,,,6046ac1161b60d0fc94b0000,001,2025-04-30_08h54.47.317,empathy_intonation_perc,2024.1.4,Win32,59.88023952,,,,,,,,,,,,,,95,listo,,,,,,290.0287,291.2634,1,0,0.7149,,0,168,168,94,1,non_cognate,1,REAL,FALSA
,,,,,,,,,6046ac1161b60d0fc94b0000,001,2025-04-30_08h54.47.317,empathy_intonation_perc,2024.1.4,Win32,59.88023952,,,,,,,,,,,,,,167,dobbo,,,,,,291.2638,292.6322,0,1,0.8487,,0,169,169,166,1,pseudoword,0,REAL,FALSA
,,,,,,,,,6046ac1161b60d0fc94b0000,001,2025-04-30_08h54.47.317,empathy_intonation_perc,2024.1.4,Win32,59.88023952,,,,,,,,,,,,,,182,desaro,,,,,,292.633,293.7338,0,1,0.5874,,0,170,170,181,1,pseudoword,0,REAL,FALSA
,,,,,,,,,6046ac1161b60d0fc94b0000,001,2025-04-30_08h54.47.317,empathy_intonation_perc,2024.1.4,Win32,59.88023952,,,,,,,,,,,,,,111,monue,,,,,,293.7342,294.8863,0,1,0.6273,,0,171,171,110,1,pseudoword,0,REAL,FALSA
,,,,,,,,,6046ac1161b60d0fc94b0000,001,2025-04-30_08h54.47.317,empathy_intonation_perc,2024.1.4,Win32,59.88023952,,,,,,,,,,,,,,49,teñir,,,,,,294.8868,296.1875,1,0,0.7786,,0,172,172,48,1,non_cognate,1,REAL,FALSA
,,,,,,,,,6046ac1161b60d0fc94b0000,001,2025-04-30_08h54.47.317,empathy_intonation_perc,2024.1.4,Win32,59.88023952,,,,,,,,,,,,,,129,vinzó,,,,,,296.1881,297.3226,0,1,0.6032,,0,173,173,128,1,pseudoword,0,REAL,FALSA
,,,,,,,,,6046ac1161b60d0fc94b0000,001,2025-04-30_08h54.47.317,empathy_intonation_perc,2024.1.4,Win32,59.88023952,,,,,,,,,,,,,,33,collar,,,,,,297.323,298.3913,0,1,0.5485,,0,174,174,32,1,two_way_cognate,1,REAL,FALSA
,,,,,,,,,6046ac1161b60d0fc94b0000,001,2025-04-30_08h54.47.317,empathy_intonation_perc,2024.1.4,Win32,59.88023952,,,,,,,,,,,,,,108,jauda,,,,,,298.392,299.426,0,1,0.4964,,0,175,175,107,1,pseudoword,0,REAL,FALSA
,,,,,,,,,6046ac1161b60d0fc94b0000,001,2025-04-30_08h54.47.317,empathy_intonation_perc,2024.1.4,Win32,59.88023952,,,,,,,,,,,,,,144,diroco,,,,,,299.4267,300.5111,0,1,0.5492,,0,176,176,143,1,pseudoword,0,REAL,FALSA
,,,,,,,,,6046ac1161b60d0fc94b0000,001,2025-04-30_08h54.47.317,empathy_intonation_perc,2024.1.4,Win32,59.88023952,,,,,,,,,,,,,,159,trcia,,,,,,300.5118,301.4455,0,1,0.4069,,0,177,177,158,1,pseudoword,0,REAL,FALSA
,,,,,,,,,6046ac1161b60d0fc94b0000,001,2025-04-30_08h54.47.317,empathy_intonation_perc,2024.1.4,Win32,59.88023952,,,,,,,,,,,,,,136,hueas,,,,,,301.446,302.4639,0,1,0.4957,,0,178,178,135,1,pseudoword,0,REAL,FALSA
,,,,,,,,,6046ac1161b60d0fc94b0000,001,2025-04-30_08h54.47.317,empathy_intonation_perc,2024.1.4,Win32,59.88023952,,,,,,,,,,,,,,150,cricó,,,,,,302.4645,303.5488,0,1,0.5493,,0,179,179,149,1,pseudoword,0,REAL,FALSA
,,,,,,,,,6046ac1161b60d0fc94b0000,001,2025-04-30_08h54.47.317,empathy_intonation_perc,2024.1.4,Win32,59.88023952,,,,,,,,,,,,,,27,piano,,,,,,303.5495,305.0678,0,1,1.0006,,0,180,180,26,1,two_way_cognate,1,REAL,FALSA
,,,,,,,,,6046ac1161b60d0fc94b0000,001,2025-04-30_08h54.47.317,empathy_intonation_perc,2024.1.4,Win32,59.88023952,,,,,,,,,,,,,,178,inichó,,,,,,305.0685,306.6866,1,0,1.0876,,0,181,181,177,1,pseudoword,0,REAL,FALSA
,,,,,,,,,6046ac1161b60d0fc94b0000,001,2025-04-30_08h54.47.317,empathy_intonation_perc,2024.1.4,Win32,59.88023952,,,,,,,,,,,,,,104,estulo,,,,,,306.6871,308.5899,1,0,1.3816,,0,182,182,103,1,pseudoword,0,REAL,FALSA
,,,,,,,,,6046ac1161b60d0fc94b0000,001,2025-04-30_08h54.47.317,empathy_intonation_perc,2024.1.4,Win32,59.88023952,,,,,,,,,,,,,,138,tator,,,,,,308.5906,309.8247,0,1,0.703,,0,183,183,137,1,pseudoword,0,REAL,FALSA
,,,,,,,,,6046ac1161b60d0fc94b0000,001,2025-04-30_08h54.47.317,empathy_intonation_perc,2024.1.4,Win32,59.88023952,,,,,,,,,,,,,,109,laras,,,,,,309.8253,310.7933,0,1,0.4521,,0,184,184,108,1,pseudoword,0,REAL,FALSA
,,,,,,,,,6046ac1161b60d0fc94b0000,001,2025-04-30_08h54.47.317,empathy_intonation_perc,2024.1.4,Win32,59.88023952,,,,,,,,,,,,,,189,medium,,,,,,310.794,311.9779,0,1,0.6548,,0,185,185,188,1,pseudoword,0,REAL,FALSA
,,,,,,,,,6046ac1161b60d0fc94b0000,001,2025-04-30_08h54.47.317,empathy_intonation_perc,2024.1.4,Win32,59.88023952,,,,,,,,,,,,,,175,tradía,,,,,,311.9783,312.9464,0,1,0.4445,,0,186,186,174,1,pseudoword,0,REAL,FALSA
,,,,,,,,,6046ac1161b60d0fc94b0000,001,2025-04-30_08h54.47.317,empathy_intonation_perc,2024.1.4,Win32,59.88023952,,,,,,,,,,,,,,105,peniz,,,,,,312.947,314.1648,0,1,0.68,,0,187,187,104,1,pseudoword,0,REAL,FALSA
,,,,,,,,,6046ac1161b60d0fc94b0000,001,2025-04-30_08h54.47.317,empathy_intonation_perc,2024.1.4,Win32,59.88023952,,,,,,,,,,,,,,20,trauma,,,,,,314.1654,315.3002,0,1,0.6163,,0,188,188,19,1,three_way_cognate,1,REAL,FALSA
,,,,,,,,,6046ac1161b60d0fc94b0000,001,2025-04-30_08h54.47.317,empathy_intonation_perc,2024.1.4,Win32,59.88023952,,,,,,,,,,,,,,124,lobe,,,,,,315.3007,316.4689,0,1,0.6412,,0,189,189,123,1,pseudoword,0,REAL,FALSA
,,,,,,,,,6046ac1161b60d0fc94b0000,001,2025-04-30_08h54.47.317,empathy_intonation_perc,2024.1.4,Win32,59.88023952,,,,,,,,,,,,,,99,bugor,,,,,,316.4694,317.5535,0,1,0.5516,,0,190,190,98,1,pseudoword,0,REAL,FALSA
,,,,,,,,,6046ac1161b60d0fc94b0000,001,2025-04-30_08h54.47.317,empathy_intonation_perc,2024.1.4,Win32,59.88023952,,,,,,,,,,,,,,145,rúo,,,,,,317.554,318.922,0,1,0.8284,,0,191,191,144,1,pseudoword,0,REAL,FALSA
