lextale_instructions.started,lextale_instructions.stopped,lextale_instructions_loop.thisRepN,lextale_instructions_loop.thisTrialN,lextale_instructions_loop.thisN,lextale_instructions_loop.thisIndex,lextale_instructions_loop.ran,instructions_text,continue_text,participant,session,date,expName,psychopyVersion,OS,frameRate,lextale_practice.started,lextale_practice.stopped,key_resp_lextale_practice.keys,key_resp_lextale_practice.corr,key_resp_lextale_practice.rt,key_resp_lextale_practice.duration,lextale_practice_feedback.started,lextale_practice_feedback.stopped,lextale_practice_trials.thisRepN,lextale_practice_trials.thisTrialN,lextale_practice_trials.thisN,lextale_practice_trials.thisIndex,lextale_practice_trials.ran,stim,word,correct_response,prac_button_real,prac_button_false,lextale_check.started,lextale_check.stopped,lextale_trial.started,lextale_trial.stopped,key_resp_lextale_trial.keys,key_resp_lextale_trial.corr,key_resp_lextale_trial.rt,key_resp_lextale_trial.duration,lextail_trials.thisRepN,lextail_trials.thisTrialN,lextail_trials.thisN,lextail_trials.thisIndex,lextail_trials.ran,type,correct_reponse,button_real,button_false
0.002,10.386,0,0,0,0,1,"Este es un test de vocabulario en español. 
  
  A continuación vas a ver 90 secuencias de letras que parecen 'españolas'.
  
  Solo algunas de ellas son palabras de verdad.",(presiona la barra espaciadora para continuar),60fd0232c3f0f1a0f44ca3fb,001,2025-05-04_17h22.59.776,empathy_intonation_perc,2024.1.4,Win32,60.09615385,,,,,,,,,,,,,,,,,,,,,,,,,,,,,,,,,,,
10.39,24.559,0,1,1,1,1,"Por favor, señala las palabras que tú conoces (aquellas que estás convencido que son palabras españolas, incluso aunque no seas capaz de dar el significado preciso).",(presiona la barra espaciadora para continuar),60fd0232c3f0f1a0f44ca3fb,001,2025-05-04_17h22.59.776,empathy_intonation_perc,2024.1.4,Win32,60.09615385,,,,,,,,,,,,,,,,,,,,,,,,,,,,,,,,,,,
24.56,32.432,0,2,2,2,1,Pero cuidado: los errores se penalizan. Por eso no tiene sentido tratar de incrementar tu puntuación marcando como reales palabras que nunca has visto.,(presiona la barra espaciadora para continuar),60fd0232c3f0f1a0f44ca3fb,001,2025-05-04_17h22.59.776,empathy_intonation_perc,2024.1.4,Win32,60.09615385,,,,,,,,,,,,,,,,,,,,,,,,,,,,,,,,,,,
32.433,37.912,0,3,3,3,1,"Presiona la tecla 1 si piensas que es una palabra real y la tecla 
  0 si piensas que es una palabra falsa. 
  
  Vamos a practicar un poco...",(presiona la barra espaciadora para continuar),60fd0232c3f0f1a0f44ca3fb,001,2025-05-04_17h22.59.776,empathy_intonation_perc,2024.1.4,Win32,60.09615385,,,,,,,,,,,,,,,,,,,,,,,,,,,,,,,,,,,
,,,,,,,,,60fd0232c3f0f1a0f44ca3fb,001,2025-05-04_17h22.59.776,empathy_intonation_perc,2024.1.4,Win32,60.09615385,37.92,40.159,0,1,1.699,,40.159,41.159,0,0,0,0,1,0,depiste,0,REAL,FALSA,,,,,,,,,,,,,,,,,
,,,,,,,,,60fd0232c3f0f1a0f44ca3fb,001,2025-05-04_17h22.59.776,empathy_intonation_perc,2024.1.4,Win32,60.09615385,41.161,42.573,1,1,0.885,,42.573,43.573,0,1,1,1,1,0,sí,1,REAL,FALSA,,,,,,,,,,,,,,,,,
,,,,,,,,,60fd0232c3f0f1a0f44ca3fb,001,2025-05-04_17h22.59.776,empathy_intonation_perc,2024.1.4,Win32,60.09615385,43.573,45.437,0,1,1.316,,45.437,46.437,0,2,2,2,1,0,coné,0,REAL,FALSA,,,,,,,,,,,,,,,,,
,,,,,,,,,60fd0232c3f0f1a0f44ca3fb,001,2025-05-04_17h22.59.776,empathy_intonation_perc,2024.1.4,Win32,60.09615385,46.44,48.385,0,1,1.403,,48.385,49.384,0,3,3,3,1,0,calpar,0,REAL,FALSA,,,,,,,,,,,,,,,,,
,,,,,,,,,60fd0232c3f0f1a0f44ca3fb,001,2025-05-04_17h22.59.776,empathy_intonation_perc,2024.1.4,Win32,60.09615385,49.386,50.583,0,1,0.656,,50.583,51.583,0,4,4,4,1,0,joten,0,REAL,FALSA,,,,,,,,,,,,,,,,,
,,,,,,,,,60fd0232c3f0f1a0f44ca3fb,001,2025-05-04_17h22.59.776,empathy_intonation_perc,2024.1.4,Win32,60.09615385,51.585,53.952,1,1,1.832,,53.952,54.947,0,5,5,5,1,0,sacapuntas,1,REAL,FALSA,,,,,,,,,,,,,,,,,
,,,,,,,,,60fd0232c3f0f1a0f44ca3fb,001,2025-05-04_17h22.59.776,empathy_intonation_perc,2024.1.4,Win32,60.09615385,54.949,56.245,0,1,0.752,,56.245,57.244,0,6,6,6,1,0,priba,0,REAL,FALSA,,,,,,,,,,,,,,,,,
,,,,,,,,,60fd0232c3f0f1a0f44ca3fb,001,2025-05-04_17h22.59.776,empathy_intonation_perc,2024.1.4,Win32,60.09615385,57.247,58.777,1,0,0.993,,58.777,59.775,0,7,7,7,1,0,pelasula,0,REAL,FALSA,,,,,,,,,,,,,,,,,
,,,,,,,,,60fd0232c3f0f1a0f44ca3fb,001,2025-05-04_17h22.59.776,empathy_intonation_perc,2024.1.4,Win32,60.09615385,59.776,60.974,1,1,0.664,,60.975,61.973,0,8,8,8,1,0,bien,1,REAL,FALSA,,,,,,,,,,,,,,,,,
,,,,,,,,,60fd0232c3f0f1a0f44ca3fb,001,2025-05-04_17h22.59.776,empathy_intonation_perc,2024.1.4,Win32,60.09615385,61.974,63.123,1,1,0.598,,63.123,64.124,0,9,9,9,1,0,casa,1,REAL,FALSA,,,,,,,,,,,,,,,,,
,,,,,,,,,60fd0232c3f0f1a0f44ca3fb,001,2025-05-04_17h22.59.776,empathy_intonation_perc,2024.1.4,Win32,60.09615385,64.128,65.37,0,1,0.71,,65.37,66.37,0,10,10,10,1,0,lejo,0,REAL,FALSA,,,,,,,,,,,,,,,,,
,,,,,,,,,60fd0232c3f0f1a0f44ca3fb,001,2025-05-04_17h22.59.776,empathy_intonation_perc,2024.1.4,Win32,60.09615385,66.373,67.851,0,1,0.936,,67.852,68.851,0,11,11,11,1,0,pretantas,0,REAL,FALSA,,,,,,,,,,,,,,,,,
,,,,,,,,,60fd0232c3f0f1a0f44ca3fb,001,2025-05-04_17h22.59.776,empathy_intonation_perc,2024.1.4,Win32,60.09615385,,,,,,,,,,,,,,,,,,,68.851,72.397,,,,,,,,,,,,,,,
,,,,,,,,,60fd0232c3f0f1a0f44ca3fb,001,2025-05-04_17h22.59.776,empathy_intonation_perc,2024.1.4,Win32,60.09615385,,,,,,,,,,,,,,3,disco,,,,,,72.41,73.847,1,0,0.9,,0,0,0,2,1,three_way_cognate,1,REAL,FALSA
,,,,,,,,,60fd0232c3f0f1a0f44ca3fb,001,2025-05-04_17h22.59.776,empathy_intonation_perc,2024.1.4,Win32,60.09615385,,,,,,,,,,,,,,90,venado,,,,,,73.848,75.628,1,0,1.237,,0,1,1,89,1,non_cognate,1,REAL,FALSA
,,,,,,,,,60fd0232c3f0f1a0f44ca3fb,001,2025-05-04_17h22.59.776,empathy_intonation_perc,2024.1.4,Win32,60.09615385,,,,,,,,,,,,,,36,viable,,,,,,75.631,76.994,1,0,0.818,,0,2,2,35,1,two_way_cognate,1,REAL,FALSA
,,,,,,,,,60fd0232c3f0f1a0f44ca3fb,001,2025-05-04_17h22.59.776,empathy_intonation_perc,2024.1.4,Win32,60.09615385,,,,,,,,,,,,,,116,grigir,,,,,,76.998,78.193,0,1,0.66,,0,3,3,115,1,pseudoword,0,REAL,FALSA
,,,,,,,,,60fd0232c3f0f1a0f44ca3fb,001,2025-05-04_17h22.59.776,empathy_intonation_perc,2024.1.4,Win32,60.09615385,,,,,,,,,,,,,,134,molor,,,,,,78.196,79.425,0,1,0.694,,0,4,4,133,1,pseudoword,0,REAL,FALSA
,,,,,,,,,60fd0232c3f0f1a0f44ca3fb,001,2025-05-04_17h22.59.776,empathy_intonation_perc,2024.1.4,Win32,60.09615385,,,,,,,,,,,,,,129,vinzó,,,,,,79.426,80.607,0,1,0.634,,0,5,5,128,1,pseudoword,0,REAL,FALSA
,,,,,,,,,60fd0232c3f0f1a0f44ca3fb,001,2025-05-04_17h22.59.776,empathy_intonation_perc,2024.1.4,Win32,60.09615385,,,,,,,,,,,,,,17,clan,,,,,,80.609,81.906,0,1,0.751,,0,6,6,16,1,three_way_cognate,1,REAL,FALSA
,,,,,,,,,60fd0232c3f0f1a0f44ca3fb,001,2025-05-04_17h22.59.776,empathy_intonation_perc,2024.1.4,Win32,60.09615385,,,,,,,,,,,,,,146,gió,,,,,,81.908,83.039,0,1,0.603,,0,7,7,145,1,pseudoword,0,REAL,FALSA
,,,,,,,,,60fd0232c3f0f1a0f44ca3fb,001,2025-05-04_17h22.59.776,empathy_intonation_perc,2024.1.4,Win32,60.09615385,,,,,,,,,,,,,,142,parre,,,,,,83.04,84.288,0,1,0.696,,0,8,8,141,1,pseudoword,0,REAL,FALSA
,,,,,,,,,60fd0232c3f0f1a0f44ca3fb,001,2025-05-04_17h22.59.776,empathy_intonation_perc,2024.1.4,Win32,60.09615385,,,,,,,,,,,,,,136,hueas,,,,,,84.289,85.652,0,1,0.816,,0,9,9,135,1,pseudoword,0,REAL,FALSA
,,,,,,,,,60fd0232c3f0f1a0f44ca3fb,001,2025-05-04_17h22.59.776,empathy_intonation_perc,2024.1.4,Win32,60.09615385,,,,,,,,,,,,,,19,mafia,,,,,,85.653,87.052,1,0,0.851,,0,10,10,18,1,three_way_cognate,1,REAL,FALSA
,,,,,,,,,60fd0232c3f0f1a0f44ca3fb,001,2025-05-04_17h22.59.776,empathy_intonation_perc,2024.1.4,Win32,60.09615385,,,,,,,,,,,,,,108,jauda,,,,,,87.054,88.334,0,1,0.742,,0,11,11,107,1,pseudoword,0,REAL,FALSA
,,,,,,,,,60fd0232c3f0f1a0f44ca3fb,001,2025-05-04_17h22.59.776,empathy_intonation_perc,2024.1.4,Win32,60.09615385,,,,,,,,,,,,,,61,aduana,,,,,,88.335,89.682,1,0,0.802,,0,12,12,60,1,non_cognate,1,REAL,FALSA
,,,,,,,,,60fd0232c3f0f1a0f44ca3fb,001,2025-05-04_17h22.59.776,empathy_intonation_perc,2024.1.4,Win32,60.09615385,,,,,,,,,,,,,,92,flecha,,,,,,89.686,90.948,0,1,0.729,,0,13,13,91,1,non_cognate,1,REAL,FALSA
,,,,,,,,,60fd0232c3f0f1a0f44ca3fb,001,2025-05-04_17h22.59.776,empathy_intonation_perc,2024.1.4,Win32,60.09615385,,,,,,,,,,,,,,72,rostro,,,,,,90.949,92.547,0,1,1.055,,0,14,14,71,1,non_cognate,1,REAL,FALSA
,,,,,,,,,60fd0232c3f0f1a0f44ca3fb,001,2025-05-04_17h22.59.776,empathy_intonation_perc,2024.1.4,Win32,60.09615385,,,,,,,,,,,,,,141,virios,,,,,,92.548,93.812,0,1,0.72,,0,15,15,140,1,pseudoword,0,REAL,FALSA
,,,,,,,,,60fd0232c3f0f1a0f44ca3fb,001,2025-05-04_17h22.59.776,empathy_intonation_perc,2024.1.4,Win32,60.09615385,,,,,,,,,,,,,,174,pabea,,,,,,93.812,95.045,0,1,0.697,,0,16,16,173,1,pseudoword,0,REAL,FALSA
,,,,,,,,,60fd0232c3f0f1a0f44ca3fb,001,2025-05-04_17h22.59.776,empathy_intonation_perc,2024.1.4,Win32,60.09615385,,,,,,,,,,,,,,22,mango,,,,,,95.046,96.344,1,0,0.757,,0,17,17,21,1,three_way_cognate,1,REAL,FALSA
,,,,,,,,,60fd0232c3f0f1a0f44ca3fb,001,2025-05-04_17h22.59.776,empathy_intonation_perc,2024.1.4,Win32,60.09615385,,,,,,,,,,,,,,156,ozoso,,,,,,96.346,97.892,1,0,1.012,,0,18,18,155,1,pseudoword,0,REAL,FALSA
,,,,,,,,,60fd0232c3f0f1a0f44ca3fb,001,2025-05-04_17h22.59.776,empathy_intonation_perc,2024.1.4,Win32,60.09615385,,,,,,,,,,,,,,130,dubo,,,,,,97.894,99.208,1,0,0.77,,0,19,19,129,1,pseudoword,0,REAL,FALSA
,,,,,,,,,60fd0232c3f0f1a0f44ca3fb,001,2025-05-04_17h22.59.776,empathy_intonation_perc,2024.1.4,Win32,60.09615385,,,,,,,,,,,,,,2,tumor,,,,,,99.214,100.722,1,0,0.976,,0,20,20,1,1,three_way_cognate,1,REAL,FALSA
,,,,,,,,,60fd0232c3f0f1a0f44ca3fb,001,2025-05-04_17h22.59.776,empathy_intonation_perc,2024.1.4,Win32,60.09615385,,,,,,,,,,,,,,177,entodo,,,,,,100.723,102.455,1,0,1.201,,0,21,21,176,1,pseudoword,0,REAL,FALSA
,,,,,,,,,60fd0232c3f0f1a0f44ca3fb,001,2025-05-04_17h22.59.776,empathy_intonation_perc,2024.1.4,Win32,60.09615385,,,,,,,,,,,,,,39,casual,,,,,,102.458,103.704,1,0,0.703,,0,22,22,38,1,two_way_cognate,1,REAL,FALSA
,,,,,,,,,60fd0232c3f0f1a0f44ca3fb,001,2025-05-04_17h22.59.776,empathy_intonation_perc,2024.1.4,Win32,60.09615385,,,,,,,,,,,,,,118,bará,,,,,,103.706,104.986,1,0,0.74,,0,23,23,117,1,pseudoword,0,REAL,FALSA
,,,,,,,,,60fd0232c3f0f1a0f44ca3fb,001,2025-05-04_17h22.59.776,empathy_intonation_perc,2024.1.4,Win32,60.09615385,,,,,,,,,,,,,,63,hilo,,,,,,104.989,106.118,0,1,0.598,,0,24,24,62,1,non_cognate,1,REAL,FALSA
,,,,,,,,,60fd0232c3f0f1a0f44ca3fb,001,2025-05-04_17h22.59.776,empathy_intonation_perc,2024.1.4,Win32,60.09615385,,,,,,,,,,,,,,139,sasos,,,,,,106.119,107.384,0,1,0.715,,0,25,25,138,1,pseudoword,0,REAL,FALSA
,,,,,,,,,60fd0232c3f0f1a0f44ca3fb,001,2025-05-04_17h22.59.776,empathy_intonation_perc,2024.1.4,Win32,60.09615385,,,,,,,,,,,,,,162,cengo,,,,,,107.384,108.599,0,1,0.682,,0,26,26,161,1,pseudoword,0,REAL,FALSA
,,,,,,,,,60fd0232c3f0f1a0f44ca3fb,001,2025-05-04_17h22.59.776,empathy_intonation_perc,2024.1.4,Win32,60.09615385,,,,,,,,,,,,,,164,tecia,,,,,,108.601,109.782,0,1,0.643,,0,27,27,163,1,pseudoword,0,REAL,FALSA
,,,,,,,,,60fd0232c3f0f1a0f44ca3fb,001,2025-05-04_17h22.59.776,empathy_intonation_perc,2024.1.4,Win32,60.09615385,,,,,,,,,,,,,,159,trcia,,,,,,109.782,111.015,0,1,0.688,,0,28,28,158,1,pseudoword,0,REAL,FALSA
,,,,,,,,,60fd0232c3f0f1a0f44ca3fb,001,2025-05-04_17h22.59.776,empathy_intonation_perc,2024.1.4,Win32,60.09615385,,,,,,,,,,,,,,15,test,,,,,,111.017,112.529,0,1,0.98,,0,29,29,14,1,three_way_cognate,1,REAL,FALSA
,,,,,,,,,60fd0232c3f0f1a0f44ca3fb,001,2025-05-04_17h22.59.776,empathy_intonation_perc,2024.1.4,Win32,60.09615385,,,,,,,,,,,,,,4,flora,,,,,,112.53,114.045,1,0,0.972,,0,30,30,3,1,three_way_cognate,1,REAL,FALSA
,,,,,,,,,60fd0232c3f0f1a0f44ca3fb,001,2025-05-04_17h22.59.776,empathy_intonation_perc,2024.1.4,Win32,60.09615385,,,,,,,,,,,,,,188,amplir,,,,,,114.045,115.327,1,0,0.736,,0,31,31,187,1,pseudoword,0,REAL,FALSA
,,,,,,,,,60fd0232c3f0f1a0f44ca3fb,001,2025-05-04_17h22.59.776,empathy_intonation_perc,2024.1.4,Win32,60.09615385,,,,,,,,,,,,,,78,rendir,,,,,,115.328,116.658,1,0,0.786,,0,32,32,77,1,non_cognate,1,REAL,FALSA
,,,,,,,,,60fd0232c3f0f1a0f44ca3fb,001,2025-05-04_17h22.59.776,empathy_intonation_perc,2024.1.4,Win32,60.09615385,,,,,,,,,,,,,,189,medium,,,,,,116.659,117.861,1,0,0.678,,0,33,33,188,1,pseudoword,0,REAL,FALSA
,,,,,,,,,60fd0232c3f0f1a0f44ca3fb,001,2025-05-04_17h22.59.776,empathy_intonation_perc,2024.1.4,Win32,60.09615385,,,,,,,,,,,,,,21,hotel,,,,,,117.861,119.49,1,0,1.084,,0,34,34,20,1,three_way_cognate,1,REAL,FALSA
,,,,,,,,,60fd0232c3f0f1a0f44ca3fb,001,2025-05-04_17h22.59.776,empathy_intonation_perc,2024.1.4,Win32,60.09615385,,,,,,,,,,,,,,182,desaro,,,,,,119.491,120.906,1,0,0.857,,0,35,35,181,1,pseudoword,0,REAL,FALSA
,,,,,,,,,60fd0232c3f0f1a0f44ca3fb,001,2025-05-04_17h22.59.776,empathy_intonation_perc,2024.1.4,Win32,60.09615385,,,,,,,,,,,,,,95,listo,,,,,,120.906,122.171,1,0,0.716,,0,36,36,94,1,non_cognate,1,REAL,FALSA
,,,,,,,,,60fd0232c3f0f1a0f44ca3fb,001,2025-05-04_17h22.59.776,empathy_intonation_perc,2024.1.4,Win32,60.09615385,,,,,,,,,,,,,,161,civas,,,,,,122.172,123.486,0,1,0.779,,0,37,37,160,1,pseudoword,0,REAL,FALSA
,,,,,,,,,60fd0232c3f0f1a0f44ca3fb,001,2025-05-04_17h22.59.776,empathy_intonation_perc,2024.1.4,Win32,60.09615385,,,,,,,,,,,,,,151,prías,,,,,,123.487,125.235,0,1,1.211,,0,38,38,150,1,pseudoword,0,REAL,FALSA
,,,,,,,,,60fd0232c3f0f1a0f44ca3fb,001,2025-05-04_17h22.59.776,empathy_intonation_perc,2024.1.4,Win32,60.09615385,,,,,,,,,,,,,,38,halo,,,,,,125.235,126.483,0,1,0.703,,0,39,39,37,1,two_way_cognate,1,REAL,FALSA
,,,,,,,,,60fd0232c3f0f1a0f44ca3fb,001,2025-05-04_17h22.59.776,empathy_intonation_perc,2024.1.4,Win32,60.09615385,,,,,,,,,,,,,,121,barbs,,,,,,126.484,127.618,0,1,0.607,,0,40,40,120,1,pseudoword,0,REAL,FALSA
,,,,,,,,,60fd0232c3f0f1a0f44ca3fb,001,2025-05-04_17h22.59.776,empathy_intonation_perc,2024.1.4,Win32,60.09615385,,,,,,,,,,,,,,70,ánimo,,,,,,127.619,128.865,1,0,0.699,,0,41,41,69,1,non_cognate,1,REAL,FALSA
,,,,,,,,,60fd0232c3f0f1a0f44ca3fb,001,2025-05-04_17h22.59.776,empathy_intonation_perc,2024.1.4,Win32,60.09615385,,,,,,,,,,,,,,110,densó,,,,,,128.866,130.297,0,1,0.886,,0,42,42,109,1,pseudoword,0,REAL,FALSA
,,,,,,,,,60fd0232c3f0f1a0f44ca3fb,001,2025-05-04_17h22.59.776,empathy_intonation_perc,2024.1.4,Win32,60.09615385,,,,,,,,,,,,,,163,llzan,,,,,,130.299,131.479,0,1,0.634,,0,43,43,162,1,pseudoword,0,REAL,FALSA
,,,,,,,,,60fd0232c3f0f1a0f44ca3fb,001,2025-05-04_17h22.59.776,empathy_intonation_perc,2024.1.4,Win32,60.09615385,,,,,,,,,,,,,,101,losco,,,,,,131.48,132.912,0,1,0.882,,0,44,44,100,1,pseudoword,0,REAL,FALSA
,,,,,,,,,60fd0232c3f0f1a0f44ca3fb,001,2025-05-04_17h22.59.776,empathy_intonation_perc,2024.1.4,Win32,60.09615385,,,,,,,,,,,,,,7,albino,,,,,,132.916,134.177,0,1,0.722,,0,45,45,6,1,three_way_cognate,1,REAL,FALSA
,,,,,,,,,60fd0232c3f0f1a0f44ca3fb,001,2025-05-04_17h22.59.776,empathy_intonation_perc,2024.1.4,Win32,60.09615385,,,,,,,,,,,,,,12,dogma,,,,,,134.178,135.442,0,1,0.713,,0,46,46,11,1,three_way_cognate,1,REAL,FALSA
,,,,,,,,,60fd0232c3f0f1a0f44ca3fb,001,2025-05-04_17h22.59.776,empathy_intonation_perc,2024.1.4,Win32,60.09615385,,,,,,,,,,,,,,34,actor,,,,,,135.443,136.543,1,0,0.57,,0,47,47,33,1,two_way_cognate,1,REAL,FALSA
,,,,,,,,,60fd0232c3f0f1a0f44ca3fb,001,2025-05-04_17h22.59.776,empathy_intonation_perc,2024.1.4,Win32,60.09615385,,,,,,,,,,,,,,102,coyo,,,,,,136.545,138.856,0,1,1.783,,0,48,48,101,1,pseudoword,0,REAL,FALSA
,,,,,,,,,60fd0232c3f0f1a0f44ca3fb,001,2025-05-04_17h22.59.776,empathy_intonation_perc,2024.1.4,Win32,60.09615385,,,,,,,,,,,,,,180,pupica,,,,,,138.857,141.287,0,1,1.89,,0,49,49,179,1,pseudoword,0,REAL,FALSA
,,,,,,,,,60fd0232c3f0f1a0f44ca3fb,001,2025-05-04_17h22.59.776,empathy_intonation_perc,2024.1.4,Win32,60.09615385,,,,,,,,,,,,,,18,altar,,,,,,141.29,142.736,1,0,0.9,,0,50,50,17,1,three_way_cognate,1,REAL,FALSA
,,,,,,,,,60fd0232c3f0f1a0f44ca3fb,001,2025-05-04_17h22.59.776,empathy_intonation_perc,2024.1.4,Win32,60.09615385,,,,,,,,,,,,,,10,drama,,,,,,142.737,143.951,1,0,0.667,,0,51,51,9,1,three_way_cognate,1,REAL,FALSA
,,,,,,,,,60fd0232c3f0f1a0f44ca3fb,001,2025-05-04_17h22.59.776,empathy_intonation_perc,2024.1.4,Win32,60.09615385,,,,,,,,,,,,,,1,moral,,,,,,143.953,145.751,1,0,1.247,,0,52,52,0,1,three_way_cognate,1,REAL,FALSA
,,,,,,,,,60fd0232c3f0f1a0f44ca3fb,001,2025-05-04_17h22.59.776,empathy_intonation_perc,2024.1.4,Win32,60.09615385,,,,,,,,,,,,,,149,emén,,,,,,145.752,146.866,0,1,0.57,,0,53,53,148,1,pseudoword,0,REAL,FALSA
,,,,,,,,,60fd0232c3f0f1a0f44ca3fb,001,2025-05-04_17h22.59.776,empathy_intonation_perc,2024.1.4,Win32,60.09615385,,,,,,,,,,,,,,150,cricó,,,,,,146.869,147.998,0,1,0.583,,0,54,54,149,1,pseudoword,0,REAL,FALSA
,,,,,,,,,60fd0232c3f0f1a0f44ca3fb,001,2025-05-04_17h22.59.776,empathy_intonation_perc,2024.1.4,Win32,60.09615385,,,,,,,,,,,,,,127,vien,,,,,,147.999,150.03,0,1,1.483,,0,55,55,126,1,pseudoword,0,REAL,FALSA
,,,,,,,,,60fd0232c3f0f1a0f44ca3fb,001,2025-05-04_17h22.59.776,empathy_intonation_perc,2024.1.4,Win32,60.09615385,,,,,,,,,,,,,,68,puñal,,,,,,150.031,151.263,0,1,0.691,,0,56,56,67,1,non_cognate,1,REAL,FALSA
,,,,,,,,,60fd0232c3f0f1a0f44ca3fb,001,2025-05-04_17h22.59.776,empathy_intonation_perc,2024.1.4,Win32,60.09615385,,,,,,,,,,,,,,147,alla,,,,,,151.263,153.16,0,1,1.365,,0,57,57,146,1,pseudoword,0,REAL,FALSA
,,,,,,,,,60fd0232c3f0f1a0f44ca3fb,001,2025-05-04_17h22.59.776,empathy_intonation_perc,2024.1.4,Win32,60.09615385,,,,,,,,,,,,,,84,aviso,,,,,,153.161,154.376,1,0,0.675,,0,58,58,83,1,non_cognate,1,REAL,FALSA
,,,,,,,,,60fd0232c3f0f1a0f44ca3fb,001,2025-05-04_17h22.59.776,empathy_intonation_perc,2024.1.4,Win32,60.09615385,,,,,,,,,,,,,,173,mibro,,,,,,154.377,155.508,0,1,0.586,,0,59,59,172,1,pseudoword,0,REAL,FALSA
,,,,,,,,,60fd0232c3f0f1a0f44ca3fb,001,2025-05-04_17h22.59.776,empathy_intonation_perc,2024.1.4,Win32,60.09615385,,,,,,,,,,,,,,165,chote,,,,,,155.509,156.558,0,1,0.521,,0,60,60,164,1,pseudoword,0,REAL,FALSA
,,,,,,,,,60fd0232c3f0f1a0f44ca3fb,001,2025-05-04_17h22.59.776,empathy_intonation_perc,2024.1.4,Win32,60.09615385,,,,,,,,,,,,,,77,suave,,,,,,156.558,157.707,0,1,0.614,,0,61,61,76,1,non_cognate,1,REAL,FALSA
,,,,,,,,,60fd0232c3f0f1a0f44ca3fb,001,2025-05-04_17h22.59.776,empathy_intonation_perc,2024.1.4,Win32,60.09615385,,,,,,,,,,,,,,60,siglo,,,,,,157.708,158.973,0,1,0.717,,0,62,62,59,1,non_cognate,1,REAL,FALSA
,,,,,,,,,60fd0232c3f0f1a0f44ca3fb,001,2025-05-04_17h22.59.776,empathy_intonation_perc,2024.1.4,Win32,60.09615385,,,,,,,,,,,,,,126,tobre,,,,,,158.973,160.138,0,1,0.627,,0,63,63,125,1,pseudoword,0,REAL,FALSA
,,,,,,,,,60fd0232c3f0f1a0f44ca3fb,001,2025-05-04_17h22.59.776,empathy_intonation_perc,2024.1.4,Win32,60.09615385,,,,,,,,,,,,,,46,mortal,,,,,,160.139,161.636,1,0,0.955,,0,64,64,45,1,two_way_cognate,1,REAL,FALSA
,,,,,,,,,60fd0232c3f0f1a0f44ca3fb,001,2025-05-04_17h22.59.776,empathy_intonation_perc,2024.1.4,Win32,60.09615385,,,,,,,,,,,,,,51,listo,,,,,,161.637,163.335,1,0,1.151,,0,65,65,50,1,non_cognate,1,REAL,FALSA
,,,,,,,,,60fd0232c3f0f1a0f44ca3fb,001,2025-05-04_17h22.59.776,empathy_intonation_perc,2024.1.4,Win32,60.09615385,,,,,,,,,,,,,,152,prave,,,,,,163.336,164.534,0,1,0.658,,0,66,66,151,1,pseudoword,0,REAL,FALSA
,,,,,,,,,60fd0232c3f0f1a0f44ca3fb,001,2025-05-04_17h22.59.776,empathy_intonation_perc,2024.1.4,Win32,60.09615385,,,,,,,,,,,,,,8,kilo,,,,,,164.535,166.321,1,0,1.257,,0,67,67,7,1,three_way_cognate,1,REAL,FALSA
,,,,,,,,,60fd0232c3f0f1a0f44ca3fb,001,2025-05-04_17h22.59.776,empathy_intonation_perc,2024.1.4,Win32,60.09615385,,,,,,,,,,,,,,32,animal,,,,,,166.322,167.448,1,0,0.595,,0,68,68,31,1,two_way_cognate,1,REAL,FALSA
,,,,,,,,,60fd0232c3f0f1a0f44ca3fb,001,2025-05-04_17h22.59.776,empathy_intonation_perc,2024.1.4,Win32,60.09615385,,,,,,,,,,,,,,41,pasta,,,,,,167.449,168.581,1,0,0.59,,0,69,69,40,1,two_way_cognate,1,REAL,FALSA
,,,,,,,,,60fd0232c3f0f1a0f44ca3fb,001,2025-05-04_17h22.59.776,empathy_intonation_perc,2024.1.4,Win32,60.09615385,,,,,,,,,,,,,,45,total,,,,,,168.582,169.829,1,0,0.707,,0,70,70,44,1,two_way_cognate,1,REAL,FALSA
,,,,,,,,,60fd0232c3f0f1a0f44ca3fb,001,2025-05-04_17h22.59.776,empathy_intonation_perc,2024.1.4,Win32,60.09615385,,,,,,,,,,,,,,67,llamar,,,,,,169.83,171.179,1,0,0.81,,0,71,71,66,1,non_cognate,1,REAL,FALSA
,,,,,,,,,60fd0232c3f0f1a0f44ca3fb,001,2025-05-04_17h22.59.776,empathy_intonation_perc,2024.1.4,Win32,60.09615385,,,,,,,,,,,,,,143,hurcos,,,,,,171.181,172.544,0,1,0.825,,0,72,72,142,1,pseudoword,0,REAL,FALSA
,,,,,,,,,60fd0232c3f0f1a0f44ca3fb,001,2025-05-04_17h22.59.776,empathy_intonation_perc,2024.1.4,Win32,60.09615385,,,,,,,,,,,,,,135,panté,,,,,,172.545,173.676,0,1,0.587,,0,73,73,134,1,pseudoword,0,REAL,FALSA
,,,,,,,,,60fd0232c3f0f1a0f44ca3fb,001,2025-05-04_17h22.59.776,empathy_intonation_perc,2024.1.4,Win32,60.09615385,,,,,,,,,,,,,,26,enigma,,,,,,173.684,175.124,1,0,0.897,,0,74,74,25,1,two_way_cognate,1,REAL,FALSA
,,,,,,,,,60fd0232c3f0f1a0f44ca3fb,001,2025-05-04_17h22.59.776,empathy_intonation_perc,2024.1.4,Win32,60.09615385,,,,,,,,,,,,,,104,estulo,,,,,,175.125,176.559,1,0,0.89,,0,75,75,103,1,pseudoword,0,REAL,FALSA
,,,,,,,,,60fd0232c3f0f1a0f44ca3fb,001,2025-05-04_17h22.59.776,empathy_intonation_perc,2024.1.4,Win32,60.09615385,,,,,,,,,,,,,,169,pitis,,,,,,176.56,177.689,0,1,0.592,,0,76,76,168,1,pseudoword,0,REAL,FALSA
,,,,,,,,,60fd0232c3f0f1a0f44ca3fb,001,2025-05-04_17h22.59.776,empathy_intonation_perc,2024.1.4,Win32,60.09615385,,,,,,,,,,,,,,29,clamor,,,,,,177.689,179.405,1,0,1.174,,0,77,77,28,1,two_way_cognate,1,REAL,FALSA
,,,,,,,,,60fd0232c3f0f1a0f44ca3fb,001,2025-05-04_17h22.59.776,empathy_intonation_perc,2024.1.4,Win32,60.09615385,,,,,,,,,,,,,,128,pelí,,,,,,179.407,180.52,0,1,0.587,,0,78,78,127,1,pseudoword,0,REAL,FALSA
,,,,,,,,,60fd0232c3f0f1a0f44ca3fb,001,2025-05-04_17h22.59.776,empathy_intonation_perc,2024.1.4,Win32,60.09615385,,,,,,,,,,,,,,83,hálito,,,,,,180.521,181.718,0,1,0.654,,0,79,79,82,1,non_cognate,1,REAL,FALSA
,,,,,,,,,60fd0232c3f0f1a0f44ca3fb,001,2025-05-04_17h22.59.776,empathy_intonation_perc,2024.1.4,Win32,60.09615385,,,,,,,,,,,,,,49,teñir,,,,,,181.719,183.385,0,1,1.124,,0,80,80,48,1,non_cognate,1,REAL,FALSA
,,,,,,,,,60fd0232c3f0f1a0f44ca3fb,001,2025-05-04_17h22.59.776,empathy_intonation_perc,2024.1.4,Win32,60.09615385,,,,,,,,,,,,,,31,civil,,,,,,183.385,184.599,1,0,0.686,,0,81,81,30,1,two_way_cognate,1,REAL,FALSA
,,,,,,,,,60fd0232c3f0f1a0f44ca3fb,001,2025-05-04_17h22.59.776,empathy_intonation_perc,2024.1.4,Win32,60.09615385,,,,,,,,,,,,,,175,tradía,,,,,,184.6,185.798,0,1,0.66,,0,82,82,174,1,pseudoword,0,REAL,FALSA
,,,,,,,,,60fd0232c3f0f1a0f44ca3fb,001,2025-05-04_17h22.59.776,empathy_intonation_perc,2024.1.4,Win32,60.09615385,,,,,,,,,,,,,,6,horror,,,,,,185.799,187.298,1,0,0.957,,0,83,83,5,1,three_way_cognate,1,REAL,FALSA
,,,,,,,,,60fd0232c3f0f1a0f44ca3fb,001,2025-05-04_17h22.59.776,empathy_intonation_perc,2024.1.4,Win32,60.09615385,,,,,,,,,,,,,,99,bugor,,,,,,187.298,188.446,0,1,0.605,,0,84,84,98,1,pseudoword,0,REAL,FALSA
,,,,,,,,,60fd0232c3f0f1a0f44ca3fb,001,2025-05-04_17h22.59.776,empathy_intonation_perc,2024.1.4,Win32,60.09615385,,,,,,,,,,,,,,94,forro,,,,,,188.446,189.562,0,1,0.587,,0,85,85,93,1,non_cognate,1,REAL,FALSA
,,,,,,,,,60fd0232c3f0f1a0f44ca3fb,001,2025-05-04_17h22.59.776,empathy_intonation_perc,2024.1.4,Win32,60.09615385,,,,,,,,,,,,,,117,morrá,,,,,,189.563,190.811,0,1,0.702,,0,86,86,116,1,pseudoword,0,REAL,FALSA
,,,,,,,,,60fd0232c3f0f1a0f44ca3fb,001,2025-05-04_17h22.59.776,empathy_intonation_perc,2024.1.4,Win32,60.09615385,,,,,,,,,,,,,,44,editor,,,,,,190.812,191.977,1,0,0.623,,0,87,87,43,1,two_way_cognate,1,REAL,FALSA
,,,,,,,,,60fd0232c3f0f1a0f44ca3fb,001,2025-05-04_17h22.59.776,empathy_intonation_perc,2024.1.4,Win32,60.09615385,,,,,,,,,,,,,,69,tiza,,,,,,191.977,193.126,0,1,0.615,,0,88,88,68,1,non_cognate,1,REAL,FALSA
,,,,,,,,,60fd0232c3f0f1a0f44ca3fb,001,2025-05-04_17h22.59.776,empathy_intonation_perc,2024.1.4,Win32,60.09615385,,,,,,,,,,,,,,54,tapón,,,,,,193.128,194.424,0,1,0.761,,0,89,89,53,1,non_cognate,1,REAL,FALSA
,,,,,,,,,60fd0232c3f0f1a0f44ca3fb,001,2025-05-04_17h22.59.776,empathy_intonation_perc,2024.1.4,Win32,60.09615385,,,,,,,,,,,,,,27,piano,,,,,,194.425,195.906,1,0,0.946,,0,90,90,26,1,two_way_cognate,1,REAL,FALSA
,,,,,,,,,60fd0232c3f0f1a0f44ca3fb,001,2025-05-04_17h22.59.776,empathy_intonation_perc,2024.1.4,Win32,60.09615385,,,,,,,,,,,,,,74,ala,,,,,,195.908,197.039,0,1,0.597,,0,91,91,73,1,non_cognate,1,REAL,FALSA
,,,,,,,,,60fd0232c3f0f1a0f44ca3fb,001,2025-05-04_17h22.59.776,empathy_intonation_perc,2024.1.4,Win32,60.09615385,,,,,,,,,,,,,,178,inichó,,,,,,197.04,199.389,0,1,1.802,,0,92,92,177,1,pseudoword,0,REAL,FALSA
,,,,,,,,,60fd0232c3f0f1a0f44ca3fb,001,2025-05-04_17h22.59.776,empathy_intonation_perc,2024.1.4,Win32,60.09615385,,,,,,,,,,,,,,181,gravés,,,,,,199.393,200.869,1,0,0.943,,0,93,93,180,1,pseudoword,0,REAL,FALSA
,,,,,,,,,60fd0232c3f0f1a0f44ca3fb,001,2025-05-04_17h22.59.776,empathy_intonation_perc,2024.1.4,Win32,60.09615385,,,,,,,,,,,,,,190,asumie,,,,,,200.87,202.102,0,1,0.691,,0,94,94,189,1,pseudoword,0,REAL,FALSA
,,,,,,,,,60fd0232c3f0f1a0f44ca3fb,001,2025-05-04_17h22.59.776,empathy_intonation_perc,2024.1.4,Win32,60.09615385,,,,,,,,,,,,,,65,guerra,,,,,,202.102,203.317,0,1,0.679,,0,95,95,64,1,non_cognate,1,REAL,FALSA
,,,,,,,,,60fd0232c3f0f1a0f44ca3fb,001,2025-05-04_17h22.59.776,empathy_intonation_perc,2024.1.4,Win32,60.09615385,,,,,,,,,,,,,,20,trauma,,,,,,203.319,204.416,1,0,0.554,,0,96,96,19,1,three_way_cognate,1,REAL,FALSA
,,,,,,,,,60fd0232c3f0f1a0f44ca3fb,001,2025-05-04_17h22.59.776,empathy_intonation_perc,2024.1.4,Win32,60.09615385,,,,,,,,,,,,,,13,plan,,,,,,204.419,205.681,1,0,0.733,,0,97,97,12,1,three_way_cognate,1,REAL,FALSA
,,,,,,,,,60fd0232c3f0f1a0f44ca3fb,001,2025-05-04_17h22.59.776,empathy_intonation_perc,2024.1.4,Win32,60.09615385,,,,,,,,,,,,,,119,esís,,,,,,205.682,206.864,0,1,0.644,,0,98,98,118,1,pseudoword,0,REAL,FALSA
,,,,,,,,,60fd0232c3f0f1a0f44ca3fb,001,2025-05-04_17h22.59.776,empathy_intonation_perc,2024.1.4,Win32,60.09615385,,,,,,,,,,,,,,37,torso,,,,,,206.865,208.046,1,0,0.64,,0,99,99,36,1,two_way_cognate,1,REAL,FALSA
,,,,,,,,,60fd0232c3f0f1a0f44ca3fb,001,2025-05-04_17h22.59.776,empathy_intonation_perc,2024.1.4,Win32,60.09615385,,,,,,,,,,,,,,40,pelvis,,,,,,208.05,209.811,0,1,1.231,,0,100,100,39,1,two_way_cognate,1,REAL,FALSA
,,,,,,,,,60fd0232c3f0f1a0f44ca3fb,001,2025-05-04_17h22.59.776,empathy_intonation_perc,2024.1.4,Win32,60.09615385,,,,,,,,,,,,,,82,brillo,,,,,,209.812,211.609,1,0,1.248,,0,101,101,81,1,non_cognate,1,REAL,FALSA
,,,,,,,,,60fd0232c3f0f1a0f44ca3fb,001,2025-05-04_17h22.59.776,empathy_intonation_perc,2024.1.4,Win32,60.09615385,,,,,,,,,,,,,,79,suelo,,,,,,211.612,215.039,1,0,2.882,,0,102,102,78,1,non_cognate,1,REAL,FALSA
,,,,,,,,,60fd0232c3f0f1a0f44ca3fb,001,2025-05-04_17h22.59.776,empathy_intonation_perc,2024.1.4,Win32,60.09615385,,,,,,,,,,,,,,80,cuenco,,,,,,215.041,216.488,1,0,0.898,,0,103,103,79,1,non_cognate,1,REAL,FALSA
,,,,,,,,,60fd0232c3f0f1a0f44ca3fb,001,2025-05-04_17h22.59.776,empathy_intonation_perc,2024.1.4,Win32,60.09615385,,,,,,,,,,,,,,157,seled,,,,,,216.489,217.638,0,1,0.599,,0,104,104,156,1,pseudoword,0,REAL,FALSA
,,,,,,,,,60fd0232c3f0f1a0f44ca3fb,001,2025-05-04_17h22.59.776,empathy_intonation_perc,2024.1.4,Win32,60.09615385,,,,,,,,,,,,,,25,vigor,,,,,,217.638,218.737,0,1,0.558,,0,105,105,24,1,two_way_cognate,1,REAL,FALSA
,,,,,,,,,60fd0232c3f0f1a0f44ca3fb,001,2025-05-04_17h22.59.776,empathy_intonation_perc,2024.1.4,Win32,60.09615385,,,,,,,,,,,,,,191,frasis,,,,,,218.738,220.002,0,1,0.729,,0,106,106,190,1,pseudoword,0,REAL,FALSA
,,,,,,,,,60fd0232c3f0f1a0f44ca3fb,001,2025-05-04_17h22.59.776,empathy_intonation_perc,2024.1.4,Win32,60.09615385,,,,,,,,,,,,,,5,extra,,,,,,220.003,221.218,0,1,0.679,,0,107,107,4,1,three_way_cognate,1,REAL,FALSA
,,,,,,,,,60fd0232c3f0f1a0f44ca3fb,001,2025-05-04_17h22.59.776,empathy_intonation_perc,2024.1.4,Win32,60.09615385,,,,,,,,,,,,,,88,percha,,,,,,221.219,222.583,0,1,0.828,,0,108,108,87,1,non_cognate,1,REAL,FALSA
,,,,,,,,,60fd0232c3f0f1a0f44ca3fb,001,2025-05-04_17h22.59.776,empathy_intonation_perc,2024.1.4,Win32,60.09615385,,,,,,,,,,,,,,89,muñeca,,,,,,222.584,223.899,0,1,0.768,,0,109,109,88,1,non_cognate,1,REAL,FALSA
,,,,,,,,,60fd0232c3f0f1a0f44ca3fb,001,2025-05-04_17h22.59.776,empathy_intonation_perc,2024.1.4,Win32,60.09615385,,,,,,,,,,,,,,106,diebro,,,,,,223.901,225.314,0,1,0.871,,0,110,110,105,1,pseudoword,0,REAL,FALSA
,,,,,,,,,60fd0232c3f0f1a0f44ca3fb,001,2025-05-04_17h22.59.776,empathy_intonation_perc,2024.1.4,Win32,60.09615385,,,,,,,,,,,,,,50,sierra,,,,,,225.315,228.079,1,0,2.222,,0,111,111,49,1,non_cognate,1,REAL,FALSA
,,,,,,,,,60fd0232c3f0f1a0f44ca3fb,001,2025-05-04_17h22.59.776,empathy_intonation_perc,2024.1.4,Win32,60.09615385,,,,,,,,,,,,,,137,trugo,,,,,,228.079,229.31,0,1,0.689,,0,112,112,136,1,pseudoword,0,REAL,FALSA
,,,,,,,,,60fd0232c3f0f1a0f44ca3fb,001,2025-05-04_17h22.59.776,empathy_intonation_perc,2024.1.4,Win32,60.09615385,,,,,,,,,,,,,,73,llevar,,,,,,229.311,231.542,0,1,1.688,,0,113,113,72,1,non_cognate,1,REAL,FALSA
,,,,,,,,,60fd0232c3f0f1a0f44ca3fb,001,2025-05-04_17h22.59.776,empathy_intonation_perc,2024.1.4,Win32,60.09615385,,,,,,,,,,,,,,55,maldad,,,,,,231.543,233.009,0,1,0.926,,0,114,114,54,1,non_cognate,1,REAL,FALSA
,,,,,,,,,60fd0232c3f0f1a0f44ca3fb,001,2025-05-04_17h22.59.776,empathy_intonation_perc,2024.1.4,Win32,60.09615385,,,,,,,,,,,,,,107,plago,,,,,,233.012,234.522,1,0,0.976,,0,115,115,106,1,pseudoword,0,REAL,FALSA
,,,,,,,,,60fd0232c3f0f1a0f44ca3fb,001,2025-05-04_17h22.59.776,empathy_intonation_perc,2024.1.4,Win32,60.09615385,,,,,,,,,,,,,,115,lidena,,,,,,234.524,235.739,0,1,0.668,,0,116,116,114,1,pseudoword,0,REAL,FALSA
,,,,,,,,,60fd0232c3f0f1a0f44ca3fb,001,2025-05-04_17h22.59.776,empathy_intonation_perc,2024.1.4,Win32,60.09615385,,,,,,,,,,,,,,100,épinas,,,,,,235.74,237.587,0,1,1.303,,0,117,117,99,1,pseudoword,0,REAL,FALSA
,,,,,,,,,60fd0232c3f0f1a0f44ca3fb,001,2025-05-04_17h22.59.776,empathy_intonation_perc,2024.1.4,Win32,60.09615385,,,,,,,,,,,,,,14,aura,,,,,,237.589,238.836,1,0,0.714,,0,118,118,13,1,three_way_cognate,1,REAL,FALSA
,,,,,,,,,60fd0232c3f0f1a0f44ca3fb,001,2025-05-04_17h22.59.776,empathy_intonation_perc,2024.1.4,Win32,60.09615385,,,,,,,,,,,,,,53,punta,,,,,,238.837,240.118,1,0,0.734,,0,119,119,52,1,non_cognate,1,REAL,FALSA
,,,,,,,,,60fd0232c3f0f1a0f44ca3fb,001,2025-05-04_17h22.59.776,empathy_intonation_perc,2024.1.4,Win32,60.09615385,,,,,,,,,,,,,,71,torta,,,,,,240.119,241.667,1,0,1.014,,0,120,120,70,1,non_cognate,1,REAL,FALSA
,,,,,,,,,60fd0232c3f0f1a0f44ca3fb,001,2025-05-04_17h22.59.776,empathy_intonation_perc,2024.1.4,Win32,60.09615385,,,,,,,,,,,,,,103,vueras,,,,,,241.669,243.033,0,1,0.821,,0,121,121,102,1,pseudoword,0,REAL,FALSA
,,,,,,,,,60fd0232c3f0f1a0f44ca3fb,001,2025-05-04_17h22.59.776,empathy_intonation_perc,2024.1.4,Win32,60.09615385,,,,,,,,,,,,,,113,nasce,,,,,,243.033,244.931,1,0,1.354,,0,122,122,112,1,pseudoword,0,REAL,FALSA
,,,,,,,,,60fd0232c3f0f1a0f44ca3fb,001,2025-05-04_17h22.59.776,empathy_intonation_perc,2024.1.4,Win32,60.09615385,,,,,,,,,,,,,,43,honor,,,,,,244.932,246.13,1,0,0.665,,0,123,123,42,1,two_way_cognate,1,REAL,FALSA
,,,,,,,,,60fd0232c3f0f1a0f44ca3fb,001,2025-05-04_17h22.59.776,empathy_intonation_perc,2024.1.4,Win32,60.09615385,,,,,,,,,,,,,,167,dobbo,,,,,,246.131,247.395,0,1,0.725,,0,124,124,166,1,pseudoword,0,REAL,FALSA
,,,,,,,,,60fd0232c3f0f1a0f44ca3fb,001,2025-05-04_17h22.59.776,empathy_intonation_perc,2024.1.4,Win32,60.09615385,,,,,,,,,,,,,,30,fiscal,,,,,,247.396,249.81,0,1,1.873,,0,125,125,29,1,two_way_cognate,1,REAL,FALSA
,,,,,,,,,60fd0232c3f0f1a0f44ca3fb,001,2025-05-04_17h22.59.776,empathy_intonation_perc,2024.1.4,Win32,60.09615385,,,,,,,,,,,,,,168,cobén,,,,,,249.811,250.992,0,1,0.636,,0,126,126,167,1,pseudoword,0,REAL,FALSA
,,,,,,,,,60fd0232c3f0f1a0f44ca3fb,001,2025-05-04_17h22.59.776,empathy_intonation_perc,2024.1.4,Win32,60.09615385,,,,,,,,,,,,,,145,rúo,,,,,,250.993,252.157,0,1,0.635,,0,127,127,144,1,pseudoword,0,REAL,FALSA
,,,,,,,,,60fd0232c3f0f1a0f44ca3fb,001,2025-05-04_17h22.59.776,empathy_intonation_perc,2024.1.4,Win32,60.09615385,,,,,,,,,,,,,,176,gripar,,,,,,252.158,253.523,0,1,0.824,,0,128,128,175,1,pseudoword,0,REAL,FALSA
,,,,,,,,,60fd0232c3f0f1a0f44ca3fb,001,2025-05-04_17h22.59.776,empathy_intonation_perc,2024.1.4,Win32,60.09615385,,,,,,,,,,,,,,35,aurora,,,,,,253.524,255.771,1,0,1.71,,0,129,129,34,1,two_way_cognate,1,REAL,FALSA
,,,,,,,,,60fd0232c3f0f1a0f44ca3fb,001,2025-05-04_17h22.59.776,empathy_intonation_perc,2024.1.4,Win32,60.09615385,,,,,,,,,,,,,,48,pelvis,,,,,,255.772,257.037,0,1,0.725,,0,130,130,47,1,two_way_cognate,1,REAL,FALSA
,,,,,,,,,60fd0232c3f0f1a0f44ca3fb,001,2025-05-04_17h22.59.776,empathy_intonation_perc,2024.1.4,Win32,60.09615385,,,,,,,,,,,,,,42,rumor,,,,,,257.038,258.485,1,0,0.901,,0,131,131,41,1,two_way_cognate,1,REAL,FALSA
,,,,,,,,,60fd0232c3f0f1a0f44ca3fb,001,2025-05-04_17h22.59.776,empathy_intonation_perc,2024.1.4,Win32,60.09615385,,,,,,,,,,,,,,59,feo,,,,,,258.486,260.167,1,0,1.149,,0,132,132,58,1,non_cognate,1,REAL,FALSA
,,,,,,,,,60fd0232c3f0f1a0f44ca3fb,001,2025-05-04_17h22.59.776,empathy_intonation_perc,2024.1.4,Win32,60.09615385,,,,,,,,,,,,,,154,harvé,,,,,,260.168,261.815,0,1,1.1,,0,133,133,153,1,pseudoword,0,REAL,FALSA
,,,,,,,,,60fd0232c3f0f1a0f44ca3fb,001,2025-05-04_17h22.59.776,empathy_intonation_perc,2024.1.4,Win32,60.09615385,,,,,,,,,,,,,,66,aleta,,,,,,261.816,263.531,0,1,1.19,,0,134,134,65,1,non_cognate,1,REAL,FALSA
,,,,,,,,,60fd0232c3f0f1a0f44ca3fb,001,2025-05-04_17h22.59.776,empathy_intonation_perc,2024.1.4,Win32,60.09615385,,,,,,,,,,,,,,124,lobe,,,,,,263.531,264.63,0,1,0.563,,0,135,135,123,1,pseudoword,0,REAL,FALSA
,,,,,,,,,60fd0232c3f0f1a0f44ca3fb,001,2025-05-04_17h22.59.776,empathy_intonation_perc,2024.1.4,Win32,60.09615385,,,,,,,,,,,,,,76,chocar,,,,,,264.631,266.298,0,1,1.12,,0,136,136,75,1,non_cognate,1,REAL,FALSA
,,,,,,,,,60fd0232c3f0f1a0f44ca3fb,001,2025-05-04_17h22.59.776,empathy_intonation_perc,2024.1.4,Win32,60.09615385,,,,,,,,,,,,,,111,monue,,,,,,266.301,267.528,0,1,0.7,,0,137,137,110,1,pseudoword,0,REAL,FALSA
,,,,,,,,,60fd0232c3f0f1a0f44ca3fb,001,2025-05-04_17h22.59.776,empathy_intonation_perc,2024.1.4,Win32,60.09615385,,,,,,,,,,,,,,16,chat,,,,,,267.529,268.893,0,1,0.826,,0,138,138,15,1,three_way_cognate,1,REAL,FALSA
,,,,,,,,,60fd0232c3f0f1a0f44ca3fb,001,2025-05-04_17h22.59.776,empathy_intonation_perc,2024.1.4,Win32,60.09615385,,,,,,,,,,,,,,133,conso,,,,,,268.894,270.225,1,0,0.797,,0,139,139,132,1,pseudoword,0,REAL,FALSA
,,,,,,,,,60fd0232c3f0f1a0f44ca3fb,001,2025-05-04_17h22.59.776,empathy_intonation_perc,2024.1.4,Win32,60.09615385,,,,,,,,,,,,,,153,golla,,,,,,270.227,271.541,0,1,0.769,,0,140,140,152,1,pseudoword,0,REAL,FALSA
,,,,,,,,,60fd0232c3f0f1a0f44ca3fb,001,2025-05-04_17h22.59.776,empathy_intonation_perc,2024.1.4,Win32,60.09615385,,,,,,,,,,,,,,120,mauja,,,,,,271.544,272.673,0,1,0.594,,0,141,141,119,1,pseudoword,0,REAL,FALSA
,,,,,,,,,60fd0232c3f0f1a0f44ca3fb,001,2025-05-04_17h22.59.776,empathy_intonation_perc,2024.1.4,Win32,60.09615385,,,,,,,,,,,,,,132,nocó,,,,,,272.674,273.805,1,0,0.588,,0,142,142,131,1,pseudoword,0,REAL,FALSA
,,,,,,,,,60fd0232c3f0f1a0f44ca3fb,001,2025-05-04_17h22.59.776,empathy_intonation_perc,2024.1.4,Win32,60.09615385,,,,,,,,,,,,,,62,pegar,,,,,,273.806,275.121,1,0,0.775,,0,143,143,61,1,non_cognate,1,REAL,FALSA
,,,,,,,,,60fd0232c3f0f1a0f44ca3fb,001,2025-05-04_17h22.59.776,empathy_intonation_perc,2024.1.4,Win32,60.09615385,,,,,,,,,,,,,,81,sacar,,,,,,275.123,276.386,1,0,0.717,,0,144,144,80,1,non_cognate,1,REAL,FALSA
,,,,,,,,,60fd0232c3f0f1a0f44ca3fb,001,2025-05-04_17h22.59.776,empathy_intonation_perc,2024.1.4,Win32,60.09615385,,,,,,,,,,,,,,170,diabo,,,,,,276.387,277.985,1,0,1.06,,0,145,145,169,1,pseudoword,0,REAL,FALSA
,,,,,,,,,60fd0232c3f0f1a0f44ca3fb,001,2025-05-04_17h22.59.776,empathy_intonation_perc,2024.1.4,Win32,60.09615385,,,,,,,,,,,,,,98,martir,,,,,,277.986,279.25,1,0,0.717,,0,146,146,97,1,pseudoword,0,REAL,FALSA
,,,,,,,,,60fd0232c3f0f1a0f44ca3fb,001,2025-05-04_17h22.59.776,empathy_intonation_perc,2024.1.4,Win32,60.09615385,,,,,,,,,,,,,,185,aljizo,,,,,,279.252,280.416,0,1,0.617,,0,147,147,184,1,pseudoword,0,REAL,FALSA
,,,,,,,,,60fd0232c3f0f1a0f44ca3fb,001,2025-05-04_17h22.59.776,empathy_intonation_perc,2024.1.4,Win32,60.09615385,,,,,,,,,,,,,,131,fuar,,,,,,280.419,281.831,0,1,0.886,,0,148,148,130,1,pseudoword,0,REAL,FALSA
,,,,,,,,,60fd0232c3f0f1a0f44ca3fb,001,2025-05-04_17h22.59.776,empathy_intonation_perc,2024.1.4,Win32,60.09615385,,,,,,,,,,,,,,140,chorde,,,,,,281.832,282.964,0,1,0.596,,0,149,149,139,1,pseudoword,0,REAL,FALSA
,,,,,,,,,60fd0232c3f0f1a0f44ca3fb,001,2025-05-04_17h22.59.776,empathy_intonation_perc,2024.1.4,Win32,60.09615385,,,,,,,,,,,,,,144,diroco,,,,,,282.964,284.146,0,1,0.653,,0,150,150,143,1,pseudoword,0,REAL,FALSA
,,,,,,,,,60fd0232c3f0f1a0f44ca3fb,001,2025-05-04_17h22.59.776,empathy_intonation_perc,2024.1.4,Win32,60.09615385,,,,,,,,,,,,,,33,collar,,,,,,284.147,285.462,1,0,0.766,,0,151,151,32,1,two_way_cognate,1,REAL,FALSA
,,,,,,,,,60fd0232c3f0f1a0f44ca3fb,001,2025-05-04_17h22.59.776,empathy_intonation_perc,2024.1.4,Win32,60.09615385,,,,,,,,,,,,,,112,samón,,,,,,285.462,286.727,1,0,0.718,,0,152,152,111,1,pseudoword,0,REAL,FALSA
,,,,,,,,,60fd0232c3f0f1a0f44ca3fb,001,2025-05-04_17h22.59.776,empathy_intonation_perc,2024.1.4,Win32,60.09615385,,,,,,,,,,,,,,85,enorme,,,,,,286.728,288.009,1,0,0.741,,0,153,153,84,1,non_cognate,1,REAL,FALSA
,,,,,,,,,60fd0232c3f0f1a0f44ca3fb,001,2025-05-04_17h22.59.776,empathy_intonation_perc,2024.1.4,Win32,60.09615385,,,,,,,,,,,,,,28,ardor,,,,,,288.01,289.375,1,0,0.821,,0,154,154,27,1,two_way_cognate,1,REAL,FALSA
,,,,,,,,,60fd0232c3f0f1a0f44ca3fb,001,2025-05-04_17h22.59.776,empathy_intonation_perc,2024.1.4,Win32,60.09615385,,,,,,,,,,,,,,56,pico,,,,,,289.376,290.59,1,0,0.66,,0,155,155,55,1,non_cognate,1,REAL,FALSA
,,,,,,,,,60fd0232c3f0f1a0f44ca3fb,001,2025-05-04_17h22.59.776,empathy_intonation_perc,2024.1.4,Win32,60.09615385,,,,,,,,,,,,,,64,rizado,,,,,,290.591,292.805,1,0,1.674,,0,156,156,63,1,non_cognate,1,REAL,FALSA
,,,,,,,,,60fd0232c3f0f1a0f44ca3fb,001,2025-05-04_17h22.59.776,empathy_intonation_perc,2024.1.4,Win32,60.09615385,,,,,,,,,,,,,,172,dogue,,,,,,292.807,294.004,0,1,0.651,,0,157,157,171,1,pseudoword,0,REAL,FALSA
,,,,,,,,,60fd0232c3f0f1a0f44ca3fb,001,2025-05-04_17h22.59.776,empathy_intonation_perc,2024.1.4,Win32,60.09615385,,,,,,,,,,,,,,192,próces,,,,,,294.005,295.553,0,1,1,,0,158,158,191,1,pseudoword,0,REAL,FALSA
,,,,,,,,,60fd0232c3f0f1a0f44ca3fb,001,2025-05-04_17h22.59.776,empathy_intonation_perc,2024.1.4,Win32,60.09615385,,,,,,,,,,,,,,138,tator,,,,,,295.554,296.752,0,1,0.654,,0,159,159,137,1,pseudoword,0,REAL,FALSA
,,,,,,,,,60fd0232c3f0f1a0f44ca3fb,001,2025-05-04_17h22.59.776,empathy_intonation_perc,2024.1.4,Win32,60.09615385,,,,,,,,,,,,,,155,kugis,,,,,,296.753,297.867,0,1,0.57,,0,160,160,154,1,pseudoword,0,REAL,FALSA
,,,,,,,,,60fd0232c3f0f1a0f44ca3fb,001,2025-05-04_17h22.59.776,empathy_intonation_perc,2024.1.4,Win32,60.09615385,,,,,,,,,,,,,,97,nocita,,,,,,297.868,299.467,1,0,1.076,,0,161,161,96,1,pseudoword,0,REAL,FALSA
,,,,,,,,,60fd0232c3f0f1a0f44ca3fb,001,2025-05-04_17h22.59.776,empathy_intonation_perc,2024.1.4,Win32,60.09615385,,,,,,,,,,,,,,91,equipo,,,,,,299.467,300.766,1,0,0.75,,0,162,162,90,1,non_cognate,1,REAL,FALSA
,,,,,,,,,60fd0232c3f0f1a0f44ca3fb,001,2025-05-04_17h22.59.776,empathy_intonation_perc,2024.1.4,Win32,60.09615385,,,,,,,,,,,,,,166,anfia,,,,,,300.77,302.114,0,1,0.796,,0,163,163,165,1,pseudoword,0,REAL,FALSA
,,,,,,,,,60fd0232c3f0f1a0f44ca3fb,001,2025-05-04_17h22.59.776,empathy_intonation_perc,2024.1.4,Win32,60.09615385,,,,,,,,,,,,,,52,blando,,,,,,302.115,303.712,1,0,1.046,,0,164,164,51,1,non_cognate,1,REAL,FALSA
,,,,,,,,,60fd0232c3f0f1a0f44ca3fb,001,2025-05-04_17h22.59.776,empathy_intonation_perc,2024.1.4,Win32,60.09615385,,,,,,,,,,,,,,58,colcha,,,,,,303.714,304.978,0,1,0.714,,0,165,165,57,1,non_cognate,1,REAL,FALSA
,,,,,,,,,60fd0232c3f0f1a0f44ca3fb,001,2025-05-04_17h22.59.776,empathy_intonation_perc,2024.1.4,Win32,60.09615385,,,,,,,,,,,,,,125,ceme,,,,,,304.979,306.111,0,1,0.596,,0,166,166,124,1,pseudoword,0,REAL,FALSA
,,,,,,,,,60fd0232c3f0f1a0f44ca3fb,001,2025-05-04_17h22.59.776,empathy_intonation_perc,2024.1.4,Win32,60.09615385,,,,,,,,,,,,,,86,cuenco,,,,,,306.112,308.059,1,0,1.402,,0,167,167,85,1,non_cognate,1,REAL,FALSA
,,,,,,,,,60fd0232c3f0f1a0f44ca3fb,001,2025-05-04_17h22.59.776,empathy_intonation_perc,2024.1.4,Win32,60.09615385,,,,,,,,,,,,,,158,babrá,,,,,,308.059,309.291,0,1,0.696,,0,168,168,157,1,pseudoword,0,REAL,FALSA
,,,,,,,,,60fd0232c3f0f1a0f44ca3fb,001,2025-05-04_17h22.59.776,empathy_intonation_perc,2024.1.4,Win32,60.09615385,,,,,,,,,,,,,,57,regalo,,,,,,309.292,310.59,1,0,0.764,,0,169,169,56,1,non_cognate,1,REAL,FALSA
,,,,,,,,,60fd0232c3f0f1a0f44ca3fb,001,2025-05-04_17h22.59.776,empathy_intonation_perc,2024.1.4,Win32,60.09615385,,,,,,,,,,,,,,105,peniz,,,,,,310.591,311.872,0,1,0.749,,0,170,170,104,1,pseudoword,0,REAL,FALSA
,,,,,,,,,60fd0232c3f0f1a0f44ca3fb,001,2025-05-04_17h22.59.776,empathy_intonation_perc,2024.1.4,Win32,60.09615385,,,,,,,,,,,,,,183,edioso,,,,,,311.872,313.837,0,1,1.431,,0,171,171,182,1,pseudoword,0,REAL,FALSA
,,,,,,,,,60fd0232c3f0f1a0f44ca3fb,001,2025-05-04_17h22.59.776,empathy_intonation_perc,2024.1.4,Win32,60.09615385,,,,,,,,,,,,,,114,dibrea,,,,,,313.838,315.002,0,1,0.633,,0,172,172,113,1,pseudoword,0,REAL,FALSA
,,,,,,,,,60fd0232c3f0f1a0f44ca3fb,001,2025-05-04_17h22.59.776,empathy_intonation_perc,2024.1.4,Win32,60.09615385,,,,,,,,,,,,,,160,fomeó,,,,,,315.004,317.518,0,1,1.969,,0,173,173,159,1,pseudoword,0,REAL,FALSA
,,,,,,,,,60fd0232c3f0f1a0f44ca3fb,001,2025-05-04_17h22.59.776,empathy_intonation_perc,2024.1.4,Win32,60.09615385,,,,,,,,,,,,,,179,suelet,,,,,,317.518,318.667,0,1,0.612,,0,174,174,178,1,pseudoword,0,REAL,FALSA
,,,,,,,,,60fd0232c3f0f1a0f44ca3fb,001,2025-05-04_17h22.59.776,empathy_intonation_perc,2024.1.4,Win32,60.09615385,,,,,,,,,,,,,,187,nomata,,,,,,318.669,319.799,0,1,0.592,,0,175,175,186,1,pseudoword,0,REAL,FALSA
,,,,,,,,,60fd0232c3f0f1a0f44ca3fb,001,2025-05-04_17h22.59.776,empathy_intonation_perc,2024.1.4,Win32,60.09615385,,,,,,,,,,,,,,9,portal,,,,,,319.799,320.981,0,1,0.632,,0,176,176,8,1,three_way_cognate,1,REAL,FALSA
,,,,,,,,,60fd0232c3f0f1a0f44ca3fb,001,2025-05-04_17h22.59.776,empathy_intonation_perc,2024.1.4,Win32,60.09615385,,,,,,,,,,,,,,23,plural,,,,,,320.981,322.347,1,0,0.818,,0,177,177,22,1,three_way_cognate,1,REAL,FALSA
,,,,,,,,,60fd0232c3f0f1a0f44ca3fb,001,2025-05-04_17h22.59.776,empathy_intonation_perc,2024.1.4,Win32,60.09615385,,,,,,,,,,,,,,123,arane,,,,,,322.348,323.728,0,1,0.831,,0,178,178,122,1,pseudoword,0,REAL,FALSA
,,,,,,,,,60fd0232c3f0f1a0f44ca3fb,001,2025-05-04_17h22.59.776,empathy_intonation_perc,2024.1.4,Win32,60.09615385,,,,,,,,,,,,,,87,muleta,,,,,,323.728,325.011,0,1,0.758,,0,179,179,86,1,non_cognate,1,REAL,FALSA
,,,,,,,,,60fd0232c3f0f1a0f44ca3fb,001,2025-05-04_17h22.59.776,empathy_intonation_perc,2024.1.4,Win32,60.09615385,,,,,,,,,,,,,,109,laras,,,,,,325.012,326.692,0,1,1.137,,0,180,180,108,1,pseudoword,0,REAL,FALSA
,,,,,,,,,60fd0232c3f0f1a0f44ca3fb,001,2025-05-04_17h22.59.776,empathy_intonation_perc,2024.1.4,Win32,60.09615385,,,,,,,,,,,,,,93,tapa,,,,,,326.693,328.324,0,1,1.089,,0,181,181,92,1,non_cognate,1,REAL,FALSA
,,,,,,,,,60fd0232c3f0f1a0f44ca3fb,001,2025-05-04_17h22.59.776,empathy_intonation_perc,2024.1.4,Win32,60.09615385,,,,,,,,,,,,,,122,boñaz,,,,,,328.325,329.457,0,1,0.594,,0,182,182,121,1,pseudoword,0,REAL,FALSA
,,,,,,,,,60fd0232c3f0f1a0f44ca3fb,001,2025-05-04_17h22.59.776,empathy_intonation_perc,2024.1.4,Win32,60.09615385,,,,,,,,,,,,,,171,gotro,,,,,,329.457,330.739,0,1,0.75,,0,183,183,170,1,pseudoword,0,REAL,FALSA
,,,,,,,,,60fd0232c3f0f1a0f44ca3fb,001,2025-05-04_17h22.59.776,empathy_intonation_perc,2024.1.4,Win32,60.09615385,,,,,,,,,,,,,,148,gino,,,,,,330.741,331.938,0,1,0.652,,0,184,184,147,1,pseudoword,0,REAL,FALSA
,,,,,,,,,60fd0232c3f0f1a0f44ca3fb,001,2025-05-04_17h22.59.776,empathy_intonation_perc,2024.1.4,Win32,60.09615385,,,,,,,,,,,,,,184,huenos,,,,,,331.939,333.403,0,1,0.923,,0,185,185,183,1,pseudoword,0,REAL,FALSA
,,,,,,,,,60fd0232c3f0f1a0f44ca3fb,001,2025-05-04_17h22.59.776,empathy_intonation_perc,2024.1.4,Win32,60.09615385,,,,,,,,,,,,,,186,rizate,,,,,,333.404,334.954,0,1,1.004,,0,186,186,185,1,pseudoword,0,REAL,FALSA
,,,,,,,,,60fd0232c3f0f1a0f44ca3fb,001,2025-05-04_17h22.59.776,empathy_intonation_perc,2024.1.4,Win32,60.09615385,,,,,,,,,,,,,,24,retina,,,,,,334.959,336.901,1,0,1.408,,0,187,187,23,1,three_way_cognate,1,REAL,FALSA
,,,,,,,,,60fd0232c3f0f1a0f44ca3fb,001,2025-05-04_17h22.59.776,empathy_intonation_perc,2024.1.4,Win32,60.09615385,,,,,,,,,,,,,,96,caro,,,,,,336.902,338.1,1,0,0.65,,0,188,188,95,1,non_cognate,1,REAL,FALSA
,,,,,,,,,60fd0232c3f0f1a0f44ca3fb,001,2025-05-04_17h22.59.776,empathy_intonation_perc,2024.1.4,Win32,60.09615385,,,,,,,,,,,,,,47,color,,,,,,338.102,339.132,1,0,0.494,,0,189,189,46,1,two_way_cognate,1,REAL,FALSA
,,,,,,,,,60fd0232c3f0f1a0f44ca3fb,001,2025-05-04_17h22.59.776,empathy_intonation_perc,2024.1.4,Win32,60.09615385,,,,,,,,,,,,,,11,golf,,,,,,339.135,341.347,1,0,1.682,,0,190,190,10,1,three_way_cognate,1,REAL,FALSA
,,,,,,,,,60fd0232c3f0f1a0f44ca3fb,001,2025-05-04_17h22.59.776,empathy_intonation_perc,2024.1.4,Win32,60.09615385,,,,,,,,,,,,,,75,patada,,,,,,341.348,343.212,0,1,1.313,,0,191,191,74,1,non_cognate,1,REAL,FALSA
