lextale_instructions.started,lextale_instructions.stopped,lextale_instructions_loop.thisRepN,lextale_instructions_loop.thisTrialN,lextale_instructions_loop.thisN,lextale_instructions_loop.thisIndex,lextale_instructions_loop.ran,instructions_text,continue_text,participant,session,date,expName,psychopyVersion,OS,frameRate,lextale_practice.started,lextale_practice.stopped,key_resp_lextale_practice.keys,key_resp_lextale_practice.corr,key_resp_lextale_practice.rt,key_resp_lextale_practice.duration,lextale_practice_feedback.started,lextale_practice_feedback.stopped,lextale_practice_trials.thisRepN,lextale_practice_trials.thisTrialN,lextale_practice_trials.thisN,lextale_practice_trials.thisIndex,lextale_practice_trials.ran,stim,word,correct_response,prac_button_real,prac_button_false,lextale_check.started,lextale_check.stopped,lextale_trial.started,lextale_trial.stopped,key_resp_lextale_trial.keys,key_resp_lextale_trial.corr,key_resp_lextale_trial.rt,key_resp_lextale_trial.duration,lextail_trials.thisRepN,lextail_trials.thisTrialN,lextail_trials.thisN,lextail_trials.thisIndex,lextail_trials.ran,type,correct_reponse,button_real,button_false
0.003,14.6461,0,0,0,0,1,"Este es un test de vocabulario en español. 
  
  A continuación vas a ver 90 secuencias de letras que parecen 'españolas'.
  
  Solo algunas de ellas son palabras de verdad.",(presiona la barra espaciadora para continuar),60fd3574955a2ca75409573c,001,2025-05-05_08h58.55.942,empathy_intonation_perc,2024.1.4,MacIntel,120.4819277,,,,,,,,,,,,,,,,,,,,,,,,,,,,,,,,,,,
14.6466,23.8704,0,1,1,1,1,"Por favor, señala las palabras que tú conoces (aquellas que estás convencido que son palabras españolas, incluso aunque no seas capaz de dar el significado preciso).",(presiona la barra espaciadora para continuar),60fd3574955a2ca75409573c,001,2025-05-05_08h58.55.942,empathy_intonation_perc,2024.1.4,MacIntel,120.4819277,,,,,,,,,,,,,,,,,,,,,,,,,,,,,,,,,,,
23.8708,32.9626,0,2,2,2,1,Pero cuidado: los errores se penalizan. Por eso no tiene sentido tratar de incrementar tu puntuación marcando como reales palabras que nunca has visto.,(presiona la barra espaciadora para continuar),60fd3574955a2ca75409573c,001,2025-05-05_08h58.55.942,empathy_intonation_perc,2024.1.4,MacIntel,120.4819277,,,,,,,,,,,,,,,,,,,,,,,,,,,,,,,,,,,
32.963,149.5798,0,3,3,3,1,"Presiona la tecla 1 si piensas que es una palabra real y la tecla 
  0 si piensas que es una palabra falsa. 
  
  Vamos a practicar un poco...",(presiona la barra espaciadora para continuar),60fd3574955a2ca75409573c,001,2025-05-05_08h58.55.942,empathy_intonation_perc,2024.1.4,MacIntel,120.4819277,,,,,,,,,,,,,,,,,,,,,,,,,,,,,,,,,,,
,,,,,,,,,60fd3574955a2ca75409573c,001,2025-05-05_08h58.55.942,empathy_intonation_perc,2024.1.4,MacIntel,120.4819277,149.5825,151.6217,0,1,1.5209,,151.622,152.6214,0,0,0,0,1,0,depiste,0,REAL,FALSA,,,,,,,,,,,,,,,,,
,,,,,,,,,60fd3574955a2ca75409573c,001,2025-05-05_08h58.55.942,empathy_intonation_perc,2024.1.4,MacIntel,120.4819277,152.6218,154.08,1,1,0.9331,,154.08,155.08,0,1,1,1,1,0,sí,1,REAL,FALSA,,,,,,,,,,,,,,,,,
,,,,,,,,,60fd3574955a2ca75409573c,001,2025-05-05_08h58.55.942,empathy_intonation_perc,2024.1.4,MacIntel,120.4819277,155.0805,156.9711,1,0,1.3685,,156.9713,157.9716,0,2,2,2,1,0,coné,0,REAL,FALSA,,,,,,,,,,,,,,,,,
,,,,,,,,,60fd3574955a2ca75409573c,001,2025-05-05_08h58.55.942,empathy_intonation_perc,2024.1.4,MacIntel,120.4819277,157.972,159.8966,1,0,1.4026,,159.8966,160.8968,0,3,3,3,1,0,calpar,0,REAL,FALSA,,,,,,,,,,,,,,,,,
,,,,,,,,,60fd3574955a2ca75409573c,001,2025-05-05_08h58.55.942,empathy_intonation_perc,2024.1.4,MacIntel,120.4819277,160.8972,162.1467,0,1,0.7292,,162.1467,163.1467,0,4,4,4,1,0,joten,0,REAL,FALSA,,,,,,,,,,,,,,,,,
,,,,,,,,,60fd3574955a2ca75409573c,001,2025-05-05_08h58.55.942,empathy_intonation_perc,2024.1.4,MacIntel,120.4819277,163.1472,164.7544,1,1,1.0858,,164.7546,165.7552,0,5,5,5,1,0,sacapuntas,1,REAL,FALSA,,,,,,,,,,,,,,,,,
,,,,,,,,,60fd3574955a2ca75409573c,001,2025-05-05_08h58.55.942,empathy_intonation_perc,2024.1.4,MacIntel,120.4819277,165.7558,167.1958,0,1,0.9154,,167.1959,168.1968,0,6,6,6,1,0,priba,0,REAL,FALSA,,,,,,,,,,,,,,,,,
,,,,,,,,,60fd3574955a2ca75409573c,001,2025-05-05_08h58.55.942,empathy_intonation_perc,2024.1.4,MacIntel,120.4819277,168.1971,170.2469,1,0,1.5297,,170.2469,171.2466,0,7,7,7,1,0,pelasula,0,REAL,FALSA,,,,,,,,,,,,,,,,,
,,,,,,,,,60fd3574955a2ca75409573c,001,2025-05-05_08h58.55.942,empathy_intonation_perc,2024.1.4,MacIntel,120.4819277,171.2469,172.4297,1,1,0.6575,,172.4298,173.43,0,8,8,8,1,0,bien,1,REAL,FALSA,,,,,,,,,,,,,,,,,
,,,,,,,,,60fd3574955a2ca75409573c,001,2025-05-05_08h58.55.942,empathy_intonation_perc,2024.1.4,MacIntel,120.4819277,173.4304,174.5551,1,1,0.5996,,174.5551,175.5551,0,9,9,9,1,0,casa,1,REAL,FALSA,,,,,,,,,,,,,,,,,
,,,,,,,,,60fd3574955a2ca75409573c,001,2025-05-05_08h58.55.942,empathy_intonation_perc,2024.1.4,MacIntel,120.4819277,175.5556,177.3469,0,1,1.2657,,177.3469,178.3467,0,10,10,10,1,0,lejo,0,REAL,FALSA,,,,,,,,,,,,,,,,,
,,,,,,,,,60fd3574955a2ca75409573c,001,2025-05-05_08h58.55.942,empathy_intonation_perc,2024.1.4,MacIntel,120.4819277,178.347,180.2882,0,1,1.4159,,180.2882,181.2885,0,11,11,11,1,0,pretantas,0,REAL,FALSA,,,,,,,,,,,,,,,,,
,,,,,,,,,60fd3574955a2ca75409573c,001,2025-05-05_08h58.55.942,empathy_intonation_perc,2024.1.4,MacIntel,120.4819277,,,,,,,,,,,,,,,,,,,181.289,184.18,,,,,,,,,,,,,,,
,,,,,,,,,60fd3574955a2ca75409573c,001,2025-05-05_08h58.55.942,empathy_intonation_perc,2024.1.4,MacIntel,120.4819277,,,,,,,,,,,,,,19,mafia,,,,,,184.187,185.4135,1,0,0.7187,,0,0,0,18,1,three_way_cognate,1,REAL,FALSA
,,,,,,,,,60fd3574955a2ca75409573c,001,2025-05-05_08h58.55.942,empathy_intonation_perc,2024.1.4,MacIntel,120.4819277,,,,,,,,,,,,,,112,samón,,,,,,185.4139,186.7219,0,1,0.7829,,0,1,1,111,1,pseudoword,0,REAL,FALSA
,,,,,,,,,60fd3574955a2ca75409573c,001,2025-05-05_08h58.55.942,empathy_intonation_perc,2024.1.4,MacIntel,120.4819277,,,,,,,,,,,,,,149,emén,,,,,,186.7221,188.0552,0,1,0.8097,,0,2,2,148,1,pseudoword,0,REAL,FALSA
,,,,,,,,,60fd3574955a2ca75409573c,001,2025-05-05_08h58.55.942,empathy_intonation_perc,2024.1.4,MacIntel,120.4819277,,,,,,,,,,,,,,57,regalo,,,,,,188.0556,189.1552,1,0,0.5743,,0,3,3,56,1,non_cognate,1,REAL,FALSA
,,,,,,,,,60fd3574955a2ca75409573c,001,2025-05-05_08h58.55.942,empathy_intonation_perc,2024.1.4,MacIntel,120.4819277,,,,,,,,,,,,,,92,flecha,,,,,,189.1556,190.5884,0,1,0.9134,,0,4,4,91,1,non_cognate,1,REAL,FALSA
,,,,,,,,,60fd3574955a2ca75409573c,001,2025-05-05_08h58.55.942,empathy_intonation_perc,2024.1.4,MacIntel,120.4819277,,,,,,,,,,,,,,17,clan,,,,,,190.5887,192.0131,1,0,0.9027,,0,5,5,16,1,three_way_cognate,1,REAL,FALSA
,,,,,,,,,60fd3574955a2ca75409573c,001,2025-05-05_08h58.55.942,empathy_intonation_perc,2024.1.4,MacIntel,120.4819277,,,,,,,,,,,,,,98,martir,,,,,,192.0135,193.621,1,0,1.0908,,0,6,6,97,1,pseudoword,0,REAL,FALSA
,,,,,,,,,60fd3574955a2ca75409573c,001,2025-05-05_08h58.55.942,empathy_intonation_perc,2024.1.4,MacIntel,120.4819277,,,,,,,,,,,,,,164,tecia,,,,,,193.6212,194.9215,0,1,0.7789,,0,7,7,163,1,pseudoword,0,REAL,FALSA
,,,,,,,,,60fd3574955a2ca75409573c,001,2025-05-05_08h58.55.942,empathy_intonation_perc,2024.1.4,MacIntel,120.4819277,,,,,,,,,,,,,,69,tiza,,,,,,194.9218,196.3379,0,1,0.891,,0,8,8,68,1,non_cognate,1,REAL,FALSA
,,,,,,,,,60fd3574955a2ca75409573c,001,2025-05-05_08h58.55.942,empathy_intonation_perc,2024.1.4,MacIntel,120.4819277,,,,,,,,,,,,,,14,aura,,,,,,196.3382,197.4636,1,0,0.608,,0,9,9,13,1,three_way_cognate,1,REAL,FALSA
,,,,,,,,,60fd3574955a2ca75409573c,001,2025-05-05_08h58.55.942,empathy_intonation_perc,2024.1.4,MacIntel,120.4819277,,,,,,,,,,,,,,61,aduana,,,,,,197.4641,198.7961,1,0,0.813,,0,10,10,60,1,non_cognate,1,REAL,FALSA
,,,,,,,,,60fd3574955a2ca75409573c,001,2025-05-05_08h58.55.942,empathy_intonation_perc,2024.1.4,MacIntel,120.4819277,,,,,,,,,,,,,,178,inichó,,,,,,198.7963,200.1886,0,1,0.8752,,0,11,11,177,1,pseudoword,0,REAL,FALSA
,,,,,,,,,60fd3574955a2ca75409573c,001,2025-05-05_08h58.55.942,empathy_intonation_perc,2024.1.4,MacIntel,120.4819277,,,,,,,,,,,,,,86,cuenco,,,,,,200.1889,201.6301,1,0,0.9177,,0,12,12,85,1,non_cognate,1,REAL,FALSA
,,,,,,,,,60fd3574955a2ca75409573c,001,2025-05-05_08h58.55.942,empathy_intonation_perc,2024.1.4,MacIntel,120.4819277,,,,,,,,,,,,,,191,frasis,,,,,,201.6304,203.2552,1,0,1.1001,,0,13,13,190,1,pseudoword,0,REAL,FALSA
,,,,,,,,,60fd3574955a2ca75409573c,001,2025-05-05_08h58.55.942,empathy_intonation_perc,2024.1.4,MacIntel,120.4819277,,,,,,,,,,,,,,162,cengo,,,,,,203.2554,205.3636,1,0,1.5857,,0,14,14,161,1,pseudoword,0,REAL,FALSA
,,,,,,,,,60fd3574955a2ca75409573c,001,2025-05-05_08h58.55.942,empathy_intonation_perc,2024.1.4,MacIntel,120.4819277,,,,,,,,,,,,,,141,virios,,,,,,205.364,206.672,0,1,0.784,,0,15,15,140,1,pseudoword,0,REAL,FALSA
,,,,,,,,,60fd3574955a2ca75409573c,001,2025-05-05_08h58.55.942,empathy_intonation_perc,2024.1.4,MacIntel,120.4819277,,,,,,,,,,,,,,148,gino,,,,,,206.6724,208.2802,1,0,1.0831,,0,16,16,147,1,pseudoword,0,REAL,FALSA
,,,,,,,,,60fd3574955a2ca75409573c,001,2025-05-05_08h58.55.942,empathy_intonation_perc,2024.1.4,MacIntel,120.4819277,,,,,,,,,,,,,,177,entodo,,,,,,208.2806,209.8471,1,0,1.0452,,0,17,17,176,1,pseudoword,0,REAL,FALSA
,,,,,,,,,60fd3574955a2ca75409573c,001,2025-05-05_08h58.55.942,empathy_intonation_perc,2024.1.4,MacIntel,120.4819277,,,,,,,,,,,,,,85,enorme,,,,,,209.8475,211.097,1,0,0.7253,,0,18,18,84,1,non_cognate,1,REAL,FALSA
,,,,,,,,,60fd3574955a2ca75409573c,001,2025-05-05_08h58.55.942,empathy_intonation_perc,2024.1.4,MacIntel,120.4819277,,,,,,,,,,,,,,107,plago,,,,,,211.0973,212.5306,1,0,0.9145,,0,19,19,106,1,pseudoword,0,REAL,FALSA
,,,,,,,,,60fd3574955a2ca75409573c,001,2025-05-05_08h58.55.942,empathy_intonation_perc,2024.1.4,MacIntel,120.4819277,,,,,,,,,,,,,,99,bugor,,,,,,212.5309,213.6886,0,1,0.6379,,0,20,20,98,1,pseudoword,0,REAL,FALSA
,,,,,,,,,60fd3574955a2ca75409573c,001,2025-05-05_08h58.55.942,empathy_intonation_perc,2024.1.4,MacIntel,120.4819277,,,,,,,,,,,,,,96,caro,,,,,,213.6889,215.7634,0,1,1.551,,0,21,21,95,1,non_cognate,1,REAL,FALSA
,,,,,,,,,60fd3574955a2ca75409573c,001,2025-05-05_08h58.55.942,empathy_intonation_perc,2024.1.4,MacIntel,120.4819277,,,,,,,,,,,,,,93,tapa,,,,,,215.7639,216.8545,1,0,0.5684,,0,22,22,92,1,non_cognate,1,REAL,FALSA
,,,,,,,,,60fd3574955a2ca75409573c,001,2025-05-05_08h58.55.942,empathy_intonation_perc,2024.1.4,MacIntel,120.4819277,,,,,,,,,,,,,,114,dibrea,,,,,,216.8548,218.3387,0,1,0.9762,,0,23,23,113,1,pseudoword,0,REAL,FALSA
,,,,,,,,,60fd3574955a2ca75409573c,001,2025-05-05_08h58.55.942,empathy_intonation_perc,2024.1.4,MacIntel,120.4819277,,,,,,,,,,,,,,154,harvé,,,,,,218.339,219.8303,0,1,0.9657,,0,24,24,153,1,pseudoword,0,REAL,FALSA
,,,,,,,,,60fd3574955a2ca75409573c,001,2025-05-05_08h58.55.942,empathy_intonation_perc,2024.1.4,MacIntel,120.4819277,,,,,,,,,,,,,,182,desaro,,,,,,219.8305,221.164,0,1,0.8071,,0,25,25,181,1,pseudoword,0,REAL,FALSA
,,,,,,,,,60fd3574955a2ca75409573c,001,2025-05-05_08h58.55.942,empathy_intonation_perc,2024.1.4,MacIntel,120.4819277,,,,,,,,,,,,,,71,torta,,,,,,221.1643,222.2555,1,0,0.5677,,0,26,26,70,1,non_cognate,1,REAL,FALSA
,,,,,,,,,60fd3574955a2ca75409573c,001,2025-05-05_08h58.55.942,empathy_intonation_perc,2024.1.4,MacIntel,120.4819277,,,,,,,,,,,,,,41,pasta,,,,,,222.2557,223.3798,1,0,0.6015,,0,27,27,40,1,two_way_cognate,1,REAL,FALSA
,,,,,,,,,60fd3574955a2ca75409573c,001,2025-05-05_08h58.55.942,empathy_intonation_perc,2024.1.4,MacIntel,120.4819277,,,,,,,,,,,,,,104,estulo,,,,,,223.3801,224.4722,1,0,0.5771,,0,28,28,103,1,pseudoword,0,REAL,FALSA
,,,,,,,,,60fd3574955a2ca75409573c,001,2025-05-05_08h58.55.942,empathy_intonation_perc,2024.1.4,MacIntel,120.4819277,,,,,,,,,,,,,,157,seled,,,,,,224.4724,225.6805,0,1,0.6829,,0,29,29,156,1,pseudoword,0,REAL,FALSA
,,,,,,,,,60fd3574955a2ca75409573c,001,2025-05-05_08h58.55.942,empathy_intonation_perc,2024.1.4,MacIntel,120.4819277,,,,,,,,,,,,,,176,gripar,,,,,,225.6808,227.1141,1,0,0.9188,,0,30,30,175,1,pseudoword,0,REAL,FALSA
,,,,,,,,,60fd3574955a2ca75409573c,001,2025-05-05_08h58.55.942,empathy_intonation_perc,2024.1.4,MacIntel,120.4819277,,,,,,,,,,,,,,123,arane,,,,,,227.1145,228.2963,0,1,0.6623,,0,31,31,122,1,pseudoword,0,REAL,FALSA
,,,,,,,,,60fd3574955a2ca75409573c,001,2025-05-05_08h58.55.942,empathy_intonation_perc,2024.1.4,MacIntel,120.4819277,,,,,,,,,,,,,,2,tumor,,,,,,228.2965,229.4554,1,0,0.6431,,0,32,32,1,1,three_way_cognate,1,REAL,FALSA
,,,,,,,,,60fd3574955a2ca75409573c,001,2025-05-05_08h58.55.942,empathy_intonation_perc,2024.1.4,MacIntel,120.4819277,,,,,,,,,,,,,,95,listo,,,,,,229.4558,230.6388,1,0,0.6693,,0,33,33,94,1,non_cognate,1,REAL,FALSA
,,,,,,,,,60fd3574955a2ca75409573c,001,2025-05-05_08h58.55.942,empathy_intonation_perc,2024.1.4,MacIntel,120.4819277,,,,,,,,,,,,,,120,mauja,,,,,,230.639,231.9058,0,1,0.7411,,0,34,34,119,1,pseudoword,0,REAL,FALSA
,,,,,,,,,60fd3574955a2ca75409573c,001,2025-05-05_08h58.55.942,empathy_intonation_perc,2024.1.4,MacIntel,120.4819277,,,,,,,,,,,,,,13,plan,,,,,,231.9063,233.0138,1,0,0.5839,,0,35,35,12,1,three_way_cognate,1,REAL,FALSA
,,,,,,,,,60fd3574955a2ca75409573c,001,2025-05-05_08h58.55.942,empathy_intonation_perc,2024.1.4,MacIntel,120.4819277,,,,,,,,,,,,,,188,amplir,,,,,,233.0141,234.6304,0,1,1.0942,,0,36,36,187,1,pseudoword,0,REAL,FALSA
,,,,,,,,,60fd3574955a2ca75409573c,001,2025-05-05_08h58.55.942,empathy_intonation_perc,2024.1.4,MacIntel,120.4819277,,,,,,,,,,,,,,72,rostro,,,,,,234.6308,235.9971,0,1,0.8424,,0,37,37,71,1,non_cognate,1,REAL,FALSA
,,,,,,,,,60fd3574955a2ca75409573c,001,2025-05-05_08h58.55.942,empathy_intonation_perc,2024.1.4,MacIntel,120.4819277,,,,,,,,,,,,,,68,puñal,,,,,,235.9974,237.4806,0,1,0.9608,,0,38,38,67,1,non_cognate,1,REAL,FALSA
,,,,,,,,,60fd3574955a2ca75409573c,001,2025-05-05_08h58.55.942,empathy_intonation_perc,2024.1.4,MacIntel,120.4819277,,,,,,,,,,,,,,181,gravés,,,,,,237.481,238.8629,1,0,0.8593,,0,39,39,180,1,pseudoword,0,REAL,FALSA
,,,,,,,,,60fd3574955a2ca75409573c,001,2025-05-05_08h58.55.942,empathy_intonation_perc,2024.1.4,MacIntel,120.4819277,,,,,,,,,,,,,,108,jauda,,,,,,238.8632,240.1389,0,1,0.7581,,0,40,40,107,1,pseudoword,0,REAL,FALSA
,,,,,,,,,60fd3574955a2ca75409573c,001,2025-05-05_08h58.55.942,empathy_intonation_perc,2024.1.4,MacIntel,120.4819277,,,,,,,,,,,,,,34,actor,,,,,,240.1393,241.2972,1,0,0.6349,,0,41,41,33,1,two_way_cognate,1,REAL,FALSA
,,,,,,,,,60fd3574955a2ca75409573c,001,2025-05-05_08h58.55.942,empathy_intonation_perc,2024.1.4,MacIntel,120.4819277,,,,,,,,,,,,,,54,tapón,,,,,,241.2976,242.7142,0,1,0.8967,,0,42,42,53,1,non_cognate,1,REAL,FALSA
,,,,,,,,,60fd3574955a2ca75409573c,001,2025-05-05_08h58.55.942,empathy_intonation_perc,2024.1.4,MacIntel,120.4819277,,,,,,,,,,,,,,180,pupica,,,,,,242.7144,244.1977,0,1,0.9657,,0,43,43,179,1,pseudoword,0,REAL,FALSA
,,,,,,,,,60fd3574955a2ca75409573c,001,2025-05-05_08h58.55.942,empathy_intonation_perc,2024.1.4,MacIntel,120.4819277,,,,,,,,,,,,,,130,dubo,,,,,,244.1978,245.5388,0,1,0.8164,,0,44,44,129,1,pseudoword,0,REAL,FALSA
,,,,,,,,,60fd3574955a2ca75409573c,001,2025-05-05_08h58.55.942,empathy_intonation_perc,2024.1.4,MacIntel,120.4819277,,,,,,,,,,,,,,90,venado,,,,,,245.539,247.0389,0,1,0.9765,,0,45,45,89,1,non_cognate,1,REAL,FALSA
,,,,,,,,,60fd3574955a2ca75409573c,001,2025-05-05_08h58.55.942,empathy_intonation_perc,2024.1.4,MacIntel,120.4819277,,,,,,,,,,,,,,81,sacar,,,,,,247.0393,248.3138,1,0,0.7505,,0,46,46,80,1,non_cognate,1,REAL,FALSA
,,,,,,,,,60fd3574955a2ca75409573c,001,2025-05-05_08h58.55.942,empathy_intonation_perc,2024.1.4,MacIntel,120.4819277,,,,,,,,,,,,,,74,ala,,,,,,248.3141,250.0973,1,0,1.2594,,0,47,47,73,1,non_cognate,1,REAL,FALSA
,,,,,,,,,60fd3574955a2ca75409573c,001,2025-05-05_08h58.55.942,empathy_intonation_perc,2024.1.4,MacIntel,120.4819277,,,,,,,,,,,,,,59,feo,,,,,,250.0976,251.1888,0,1,0.5719,,0,48,48,58,1,non_cognate,1,REAL,FALSA
,,,,,,,,,60fd3574955a2ca75409573c,001,2025-05-05_08h58.55.942,empathy_intonation_perc,2024.1.4,MacIntel,120.4819277,,,,,,,,,,,,,,138,tator,,,,,,251.1891,252.5139,1,0,0.8048,,0,49,49,137,1,pseudoword,0,REAL,FALSA
,,,,,,,,,60fd3574955a2ca75409573c,001,2025-05-05_08h58.55.942,empathy_intonation_perc,2024.1.4,MacIntel,120.4819277,,,,,,,,,,,,,,9,portal,,,,,,252.5141,253.9383,1,0,0.8999,,0,50,50,8,1,three_way_cognate,1,REAL,FALSA
,,,,,,,,,60fd3574955a2ca75409573c,001,2025-05-05_08h58.55.942,empathy_intonation_perc,2024.1.4,MacIntel,120.4819277,,,,,,,,,,,,,,139,sasos,,,,,,253.9385,255.3305,0,1,0.8807,,0,51,51,138,1,pseudoword,0,REAL,FALSA
,,,,,,,,,60fd3574955a2ca75409573c,001,2025-05-05_08h58.55.942,empathy_intonation_perc,2024.1.4,MacIntel,120.4819277,,,,,,,,,,,,,,158,babrá,,,,,,255.3309,257.5058,1,0,1.6565,,0,52,52,157,1,pseudoword,0,REAL,FALSA
,,,,,,,,,60fd3574955a2ca75409573c,001,2025-05-05_08h58.55.942,empathy_intonation_perc,2024.1.4,MacIntel,120.4819277,,,,,,,,,,,,,,133,conso,,,,,,257.5062,259.0551,0,1,1.025,,0,53,53,132,1,pseudoword,0,REAL,FALSA
,,,,,,,,,60fd3574955a2ca75409573c,001,2025-05-05_08h58.55.942,empathy_intonation_perc,2024.1.4,MacIntel,120.4819277,,,,,,,,,,,,,,70,ánimo,,,,,,259.0555,261.2881,0,1,1.7184,,0,54,54,69,1,non_cognate,1,REAL,FALSA
,,,,,,,,,60fd3574955a2ca75409573c,001,2025-05-05_08h58.55.942,empathy_intonation_perc,2024.1.4,MacIntel,120.4819277,,,,,,,,,,,,,,171,gotro,,,,,,261.2884,262.5968,0,1,0.7921,,0,55,55,170,1,pseudoword,0,REAL,FALSA
,,,,,,,,,60fd3574955a2ca75409573c,001,2025-05-05_08h58.55.942,empathy_intonation_perc,2024.1.4,MacIntel,120.4819277,,,,,,,,,,,,,,127,vien,,,,,,262.5971,264.0807,1,0,0.9674,,0,56,56,126,1,pseudoword,0,REAL,FALSA
,,,,,,,,,60fd3574955a2ca75409573c,001,2025-05-05_08h58.55.942,empathy_intonation_perc,2024.1.4,MacIntel,120.4819277,,,,,,,,,,,,,,30,fiscal,,,,,,264.0812,265.664,1,0,1.0652,,0,57,57,29,1,two_way_cognate,1,REAL,FALSA
,,,,,,,,,60fd3574955a2ca75409573c,001,2025-05-05_08h58.55.942,empathy_intonation_perc,2024.1.4,MacIntel,120.4819277,,,,,,,,,,,,,,4,flora,,,,,,265.6642,266.9891,1,0,0.8004,,0,58,58,3,1,three_way_cognate,1,REAL,FALSA
,,,,,,,,,60fd3574955a2ca75409573c,001,2025-05-05_08h58.55.942,empathy_intonation_perc,2024.1.4,MacIntel,120.4819277,,,,,,,,,,,,,,116,grigir,,,,,,266.9894,268.189,0,1,0.6772,,0,59,59,115,1,pseudoword,0,REAL,FALSA
,,,,,,,,,60fd3574955a2ca75409573c,001,2025-05-05_08h58.55.942,empathy_intonation_perc,2024.1.4,MacIntel,120.4819277,,,,,,,,,,,,,,118,bará,,,,,,268.1892,269.5218,0,1,0.8103,,0,60,60,117,1,pseudoword,0,REAL,FALSA
,,,,,,,,,60fd3574955a2ca75409573c,001,2025-05-05_08h58.55.942,empathy_intonation_perc,2024.1.4,MacIntel,120.4819277,,,,,,,,,,,,,,153,golla,,,,,,269.5222,270.6976,0,1,0.6584,,0,61,61,152,1,pseudoword,0,REAL,FALSA
,,,,,,,,,60fd3574955a2ca75409573c,001,2025-05-05_08h58.55.942,empathy_intonation_perc,2024.1.4,MacIntel,120.4819277,,,,,,,,,,,,,,77,suave,,,,,,270.6982,271.8388,1,0,0.6173,,0,62,62,76,1,non_cognate,1,REAL,FALSA
,,,,,,,,,60fd3574955a2ca75409573c,001,2025-05-05_08h58.55.942,empathy_intonation_perc,2024.1.4,MacIntel,120.4819277,,,,,,,,,,,,,,163,llzan,,,,,,271.8391,273.064,0,1,0.7136,,0,63,63,162,1,pseudoword,0,REAL,FALSA
,,,,,,,,,60fd3574955a2ca75409573c,001,2025-05-05_08h58.55.942,empathy_intonation_perc,2024.1.4,MacIntel,120.4819277,,,,,,,,,,,,,,26,enigma,,,,,,273.0643,274.3722,1,0,0.7839,,0,64,64,25,1,two_way_cognate,1,REAL,FALSA
,,,,,,,,,60fd3574955a2ca75409573c,001,2025-05-05_08h58.55.942,empathy_intonation_perc,2024.1.4,MacIntel,120.4819277,,,,,,,,,,,,,,143,hurcos,,,,,,274.3724,275.8889,0,1,0.9997,,0,65,65,142,1,pseudoword,0,REAL,FALSA
,,,,,,,,,60fd3574955a2ca75409573c,001,2025-05-05_08h58.55.942,empathy_intonation_perc,2024.1.4,MacIntel,120.4819277,,,,,,,,,,,,,,1,moral,,,,,,275.8892,277.3966,1,0,0.9854,,0,66,66,0,1,three_way_cognate,1,REAL,FALSA
,,,,,,,,,60fd3574955a2ca75409573c,001,2025-05-05_08h58.55.942,empathy_intonation_perc,2024.1.4,MacIntel,120.4819277,,,,,,,,,,,,,,3,disco,,,,,,277.3968,278.5223,1,0,0.6096,,0,67,67,2,1,three_way_cognate,1,REAL,FALSA
,,,,,,,,,60fd3574955a2ca75409573c,001,2025-05-05_08h58.55.942,empathy_intonation_perc,2024.1.4,MacIntel,120.4819277,,,,,,,,,,,,,,106,diebro,,,,,,278.5227,279.7559,0,1,0.7079,,0,68,68,105,1,pseudoword,0,REAL,FALSA
,,,,,,,,,60fd3574955a2ca75409573c,001,2025-05-05_08h58.55.942,empathy_intonation_perc,2024.1.4,MacIntel,120.4819277,,,,,,,,,,,,,,39,casual,,,,,,279.7563,280.989,1,0,0.7078,,0,69,69,38,1,two_way_cognate,1,REAL,FALSA
,,,,,,,,,60fd3574955a2ca75409573c,001,2025-05-05_08h58.55.942,empathy_intonation_perc,2024.1.4,MacIntel,120.4819277,,,,,,,,,,,,,,179,suelet,,,,,,280.9892,282.2892,0,1,0.776,,0,70,70,178,1,pseudoword,0,REAL,FALSA
,,,,,,,,,60fd3574955a2ca75409573c,001,2025-05-05_08h58.55.942,empathy_intonation_perc,2024.1.4,MacIntel,120.4819277,,,,,,,,,,,,,,55,maldad,,,,,,282.2895,283.5391,0,1,0.7237,,0,71,71,54,1,non_cognate,1,REAL,FALSA
,,,,,,,,,60fd3574955a2ca75409573c,001,2025-05-05_08h58.55.942,empathy_intonation_perc,2024.1.4,MacIntel,120.4819277,,,,,,,,,,,,,,161,civas,,,,,,283.5394,284.8051,0,1,0.7457,,0,72,72,160,1,pseudoword,0,REAL,FALSA
,,,,,,,,,60fd3574955a2ca75409573c,001,2025-05-05_08h58.55.942,empathy_intonation_perc,2024.1.4,MacIntel,120.4819277,,,,,,,,,,,,,,40,pelvis,,,,,,284.8053,286.5227,1,0,1.2004,,0,73,73,39,1,two_way_cognate,1,REAL,FALSA
,,,,,,,,,60fd3574955a2ca75409573c,001,2025-05-05_08h58.55.942,empathy_intonation_perc,2024.1.4,MacIntel,120.4819277,,,,,,,,,,,,,,105,peniz,,,,,,286.5231,287.6307,0,1,0.583,,0,74,74,104,1,pseudoword,0,REAL,FALSA
,,,,,,,,,60fd3574955a2ca75409573c,001,2025-05-05_08h58.55.942,empathy_intonation_perc,2024.1.4,MacIntel,120.4819277,,,,,,,,,,,,,,7,albino,,,,,,287.631,289.1142,1,0,0.9644,,0,75,75,6,1,three_way_cognate,1,REAL,FALSA
,,,,,,,,,60fd3574955a2ca75409573c,001,2025-05-05_08h58.55.942,empathy_intonation_perc,2024.1.4,MacIntel,120.4819277,,,,,,,,,,,,,,115,lidena,,,,,,289.1144,290.33,0,1,0.6929,,0,76,76,114,1,pseudoword,0,REAL,FALSA
,,,,,,,,,60fd3574955a2ca75409573c,001,2025-05-05_08h58.55.942,empathy_intonation_perc,2024.1.4,MacIntel,120.4819277,,,,,,,,,,,,,,15,test,,,,,,290.3304,292.3726,1,0,1.5172,,0,77,77,14,1,three_way_cognate,1,REAL,FALSA
,,,,,,,,,60fd3574955a2ca75409573c,001,2025-05-05_08h58.55.942,empathy_intonation_perc,2024.1.4,MacIntel,120.4819277,,,,,,,,,,,,,,129,vinzó,,,,,,292.373,293.5058,0,1,0.6119,,0,78,78,128,1,pseudoword,0,REAL,FALSA
,,,,,,,,,60fd3574955a2ca75409573c,001,2025-05-05_08h58.55.942,empathy_intonation_perc,2024.1.4,MacIntel,120.4819277,,,,,,,,,,,,,,145,rúo,,,,,,293.5062,294.8308,0,1,0.8062,,0,79,79,144,1,pseudoword,0,REAL,FALSA
,,,,,,,,,60fd3574955a2ca75409573c,001,2025-05-05_08h58.55.942,empathy_intonation_perc,2024.1.4,MacIntel,120.4819277,,,,,,,,,,,,,,80,cuenco,,,,,,294.8312,296.1393,1,0,0.7839,,0,80,80,79,1,non_cognate,1,REAL,FALSA
,,,,,,,,,60fd3574955a2ca75409573c,001,2025-05-05_08h58.55.942,empathy_intonation_perc,2024.1.4,MacIntel,120.4819277,,,,,,,,,,,,,,103,vueras,,,,,,296.1396,297.3392,0,1,0.675,,0,81,81,102,1,pseudoword,0,REAL,FALSA
,,,,,,,,,60fd3574955a2ca75409573c,001,2025-05-05_08h58.55.942,empathy_intonation_perc,2024.1.4,MacIntel,120.4819277,,,,,,,,,,,,,,28,ardor,,,,,,297.3394,298.8226,0,1,0.9577,,0,82,82,27,1,two_way_cognate,1,REAL,FALSA
,,,,,,,,,60fd3574955a2ca75409573c,001,2025-05-05_08h58.55.942,empathy_intonation_perc,2024.1.4,MacIntel,120.4819277,,,,,,,,,,,,,,48,pelvis,,,,,,298.8229,300.4227,1,0,1.082,,0,83,83,47,1,two_way_cognate,1,REAL,FALSA
,,,,,,,,,60fd3574955a2ca75409573c,001,2025-05-05_08h58.55.942,empathy_intonation_perc,2024.1.4,MacIntel,120.4819277,,,,,,,,,,,,,,175,tradía,,,,,,300.423,303.2809,1,0,2.334,,0,84,84,174,1,pseudoword,0,REAL,FALSA
,,,,,,,,,60fd3574955a2ca75409573c,001,2025-05-05_08h58.55.942,empathy_intonation_perc,2024.1.4,MacIntel,120.4819277,,,,,,,,,,,,,,52,blando,,,,,,303.2813,304.406,0,1,0.5993,,0,85,85,51,1,non_cognate,1,REAL,FALSA
,,,,,,,,,60fd3574955a2ca75409573c,001,2025-05-05_08h58.55.942,empathy_intonation_perc,2024.1.4,MacIntel,120.4819277,,,,,,,,,,,,,,21,hotel,,,,,,304.4064,305.6478,1,0,0.718,,0,86,86,20,1,three_way_cognate,1,REAL,FALSA
,,,,,,,,,60fd3574955a2ca75409573c,001,2025-05-05_08h58.55.942,empathy_intonation_perc,2024.1.4,MacIntel,120.4819277,,,,,,,,,,,,,,172,dogue,,,,,,305.6482,306.9563,0,1,0.7828,,0,87,87,171,1,pseudoword,0,REAL,FALSA
,,,,,,,,,60fd3574955a2ca75409573c,001,2025-05-05_08h58.55.942,empathy_intonation_perc,2024.1.4,MacIntel,120.4819277,,,,,,,,,,,,,,44,editor,,,,,,306.9567,308.1473,1,0,0.6734,,0,88,88,43,1,two_way_cognate,1,REAL,FALSA
,,,,,,,,,60fd3574955a2ca75409573c,001,2025-05-05_08h58.55.942,empathy_intonation_perc,2024.1.4,MacIntel,120.4819277,,,,,,,,,,,,,,91,equipo,,,,,,308.1476,310.3809,0,1,1.713,,0,89,89,90,1,non_cognate,1,REAL,FALSA
,,,,,,,,,60fd3574955a2ca75409573c,001,2025-05-05_08h58.55.942,empathy_intonation_perc,2024.1.4,MacIntel,120.4819277,,,,,,,,,,,,,,137,trugo,,,,,,310.3812,311.8975,0,1,0.996,,0,90,90,136,1,pseudoword,0,REAL,FALSA
,,,,,,,,,60fd3574955a2ca75409573c,001,2025-05-05_08h58.55.942,empathy_intonation_perc,2024.1.4,MacIntel,120.4819277,,,,,,,,,,,,,,51,listo,,,,,,311.8978,313.2144,1,0,0.7981,,0,91,91,50,1,non_cognate,1,REAL,FALSA
,,,,,,,,,60fd3574955a2ca75409573c,001,2025-05-05_08h58.55.942,empathy_intonation_perc,2024.1.4,MacIntel,120.4819277,,,,,,,,,,,,,,170,diabo,,,,,,313.2147,314.5554,0,1,0.8181,,0,92,92,169,1,pseudoword,0,REAL,FALSA
,,,,,,,,,60fd3574955a2ca75409573c,001,2025-05-05_08h58.55.942,empathy_intonation_perc,2024.1.4,MacIntel,120.4819277,,,,,,,,,,,,,,37,torso,,,,,,314.5558,315.9476,1,0,0.8804,,0,93,93,36,1,two_way_cognate,1,REAL,FALSA
,,,,,,,,,60fd3574955a2ca75409573c,001,2025-05-05_08h58.55.942,empathy_intonation_perc,2024.1.4,MacIntel,120.4819277,,,,,,,,,,,,,,126,tobre,,,,,,315.9478,317.1979,0,1,0.7253,,0,94,94,125,1,pseudoword,0,REAL,FALSA
,,,,,,,,,60fd3574955a2ca75409573c,001,2025-05-05_08h58.55.942,empathy_intonation_perc,2024.1.4,MacIntel,120.4819277,,,,,,,,,,,,,,135,panté,,,,,,317.1984,318.5301,0,1,0.8097,,0,95,95,134,1,pseudoword,0,REAL,FALSA
,,,,,,,,,60fd3574955a2ca75409573c,001,2025-05-05_08h58.55.942,empathy_intonation_perc,2024.1.4,MacIntel,120.4819277,,,,,,,,,,,,,,10,drama,,,,,,318.5305,322.4477,1,0,3.3997,,0,96,96,9,1,three_way_cognate,1,REAL,FALSA
,,,,,,,,,60fd3574955a2ca75409573c,001,2025-05-05_08h58.55.942,empathy_intonation_perc,2024.1.4,MacIntel,120.4819277,,,,,,,,,,,,,,27,piano,,,,,,322.4481,324.6802,1,0,1.7087,,0,97,97,26,1,two_way_cognate,1,REAL,FALSA
,,,,,,,,,60fd3574955a2ca75409573c,001,2025-05-05_08h58.55.942,empathy_intonation_perc,2024.1.4,MacIntel,120.4819277,,,,,,,,,,,,,,190,asumie,,,,,,324.6805,325.9387,0,1,0.735,,0,98,98,189,1,pseudoword,0,REAL,FALSA
,,,,,,,,,60fd3574955a2ca75409573c,001,2025-05-05_08h58.55.942,empathy_intonation_perc,2024.1.4,MacIntel,120.4819277,,,,,,,,,,,,,,58,colcha,,,,,,325.939,328.5644,0,1,2.107,,0,99,99,57,1,non_cognate,1,REAL,FALSA
,,,,,,,,,60fd3574955a2ca75409573c,001,2025-05-05_08h58.55.942,empathy_intonation_perc,2024.1.4,MacIntel,120.4819277,,,,,,,,,,,,,,173,mibro,,,,,,328.5647,330.0638,0,1,0.9764,,0,100,100,172,1,pseudoword,0,REAL,FALSA
,,,,,,,,,60fd3574955a2ca75409573c,001,2025-05-05_08h58.55.942,empathy_intonation_perc,2024.1.4,MacIntel,120.4819277,,,,,,,,,,,,,,73,llevar,,,,,,330.0641,340.6557,1,0,10.0757,,0,101,101,72,1,non_cognate,1,REAL,FALSA
,,,,,,,,,60fd3574955a2ca75409573c,001,2025-05-05_08h58.55.942,empathy_intonation_perc,2024.1.4,MacIntel,120.4819277,,,,,,,,,,,,,,140,chorde,,,,,,340.656,341.7722,0,1,0.5887,,0,102,102,139,1,pseudoword,0,REAL,FALSA
,,,,,,,,,60fd3574955a2ca75409573c,001,2025-05-05_08h58.55.942,empathy_intonation_perc,2024.1.4,MacIntel,120.4819277,,,,,,,,,,,,,,168,cobén,,,,,,341.7726,342.9807,0,1,0.6927,,0,103,103,167,1,pseudoword,0,REAL,FALSA
,,,,,,,,,60fd3574955a2ca75409573c,001,2025-05-05_08h58.55.942,empathy_intonation_perc,2024.1.4,MacIntel,120.4819277,,,,,,,,,,,,,,22,mango,,,,,,342.9811,344.3313,1,0,0.8303,,0,104,104,21,1,three_way_cognate,1,REAL,FALSA
,,,,,,,,,60fd3574955a2ca75409573c,001,2025-05-05_08h58.55.942,empathy_intonation_perc,2024.1.4,MacIntel,120.4819277,,,,,,,,,,,,,,117,morrá,,,,,,344.3316,349.9557,0,1,5.1002,,0,105,105,116,1,pseudoword,0,REAL,FALSA
,,,,,,,,,60fd3574955a2ca75409573c,001,2025-05-05_08h58.55.942,empathy_intonation_perc,2024.1.4,MacIntel,120.4819277,,,,,,,,,,,,,,184,huenos,,,,,,349.9559,351.1395,0,1,0.6679,,0,106,106,183,1,pseudoword,0,REAL,FALSA
,,,,,,,,,60fd3574955a2ca75409573c,001,2025-05-05_08h58.55.942,empathy_intonation_perc,2024.1.4,MacIntel,120.4819277,,,,,,,,,,,,,,169,pitis,,,,,,351.1398,352.4479,0,1,0.7825,,0,107,107,168,1,pseudoword,0,REAL,FALSA
,,,,,,,,,60fd3574955a2ca75409573c,001,2025-05-05_08h58.55.942,empathy_intonation_perc,2024.1.4,MacIntel,120.4819277,,,,,,,,,,,,,,16,chat,,,,,,352.4481,354.1062,0,1,1.1385,,0,108,108,15,1,three_way_cognate,1,REAL,FALSA
,,,,,,,,,60fd3574955a2ca75409573c,001,2025-05-05_08h58.55.942,empathy_intonation_perc,2024.1.4,MacIntel,120.4819277,,,,,,,,,,,,,,94,forro,,,,,,354.1065,355.3729,0,1,0.7419,,0,109,109,93,1,non_cognate,1,REAL,FALSA
,,,,,,,,,60fd3574955a2ca75409573c,001,2025-05-05_08h58.55.942,empathy_intonation_perc,2024.1.4,MacIntel,120.4819277,,,,,,,,,,,,,,53,punta,,,,,,355.3731,356.4643,1,0,0.569,,0,110,110,52,1,non_cognate,1,REAL,FALSA
,,,,,,,,,60fd3574955a2ca75409573c,001,2025-05-05_08h58.55.942,empathy_intonation_perc,2024.1.4,MacIntel,120.4819277,,,,,,,,,,,,,,38,halo,,,,,,356.4646,357.6062,1,0,0.6224,,0,111,111,37,1,two_way_cognate,1,REAL,FALSA
,,,,,,,,,60fd3574955a2ca75409573c,001,2025-05-05_08h58.55.942,empathy_intonation_perc,2024.1.4,MacIntel,120.4819277,,,,,,,,,,,,,,67,llamar,,,,,,357.6065,359.0645,1,0,0.9317,,0,112,112,66,1,non_cognate,1,REAL,FALSA
,,,,,,,,,60fd3574955a2ca75409573c,001,2025-05-05_08h58.55.942,empathy_intonation_perc,2024.1.4,MacIntel,120.4819277,,,,,,,,,,,,,,88,percha,,,,,,359.0648,360.5146,0,1,0.9296,,0,113,113,87,1,non_cognate,1,REAL,FALSA
,,,,,,,,,60fd3574955a2ca75409573c,001,2025-05-05_08h58.55.942,empathy_intonation_perc,2024.1.4,MacIntel,120.4819277,,,,,,,,,,,,,,159,trcia,,,,,,360.5148,361.6479,0,1,0.609,,0,114,114,158,1,pseudoword,0,REAL,FALSA
,,,,,,,,,60fd3574955a2ca75409573c,001,2025-05-05_08h58.55.942,empathy_intonation_perc,2024.1.4,MacIntel,120.4819277,,,,,,,,,,,,,,113,nasce,,,,,,361.6482,362.9977,0,1,0.8241,,0,115,115,112,1,pseudoword,0,REAL,FALSA
,,,,,,,,,60fd3574955a2ca75409573c,001,2025-05-05_08h58.55.942,empathy_intonation_perc,2024.1.4,MacIntel,120.4819277,,,,,,,,,,,,,,151,prías,,,,,,362.9981,365.2729,0,1,1.7509,,0,116,116,150,1,pseudoword,0,REAL,FALSA
,,,,,,,,,60fd3574955a2ca75409573c,001,2025-05-05_08h58.55.942,empathy_intonation_perc,2024.1.4,MacIntel,120.4819277,,,,,,,,,,,,,,47,color,,,,,,365.2731,366.398,1,0,0.5987,,0,117,117,46,1,two_way_cognate,1,REAL,FALSA
,,,,,,,,,60fd3574955a2ca75409573c,001,2025-05-05_08h58.55.942,empathy_intonation_perc,2024.1.4,MacIntel,120.4819277,,,,,,,,,,,,,,100,épinas,,,,,,366.3983,367.6646,0,1,0.7396,,0,118,118,99,1,pseudoword,0,REAL,FALSA
,,,,,,,,,60fd3574955a2ca75409573c,001,2025-05-05_08h58.55.942,empathy_intonation_perc,2024.1.4,MacIntel,120.4819277,,,,,,,,,,,,,,66,aleta,,,,,,367.6648,369.0224,0,1,0.8347,,0,119,119,65,1,non_cognate,1,REAL,FALSA
,,,,,,,,,60fd3574955a2ca75409573c,001,2025-05-05_08h58.55.942,empathy_intonation_perc,2024.1.4,MacIntel,120.4819277,,,,,,,,,,,,,,155,kugis,,,,,,369.0227,370.4647,0,1,0.9246,,0,120,120,154,1,pseudoword,0,REAL,FALSA
,,,,,,,,,60fd3574955a2ca75409573c,001,2025-05-05_08h58.55.942,empathy_intonation_perc,2024.1.4,MacIntel,120.4819277,,,,,,,,,,,,,,83,hálito,,,,,,370.465,371.8476,0,1,0.8578,,0,121,121,82,1,non_cognate,1,REAL,FALSA
,,,,,,,,,60fd3574955a2ca75409573c,001,2025-05-05_08h58.55.942,empathy_intonation_perc,2024.1.4,MacIntel,120.4819277,,,,,,,,,,,,,,20,trauma,,,,,,371.848,373.0821,1,0,0.7156,,0,122,122,19,1,three_way_cognate,1,REAL,FALSA
,,,,,,,,,60fd3574955a2ca75409573c,001,2025-05-05_08h58.55.942,empathy_intonation_perc,2024.1.4,MacIntel,120.4819277,,,,,,,,,,,,,,29,clamor,,,,,,373.0824,374.198,1,0,0.5916,,0,123,123,28,1,two_way_cognate,1,REAL,FALSA
,,,,,,,,,60fd3574955a2ca75409573c,001,2025-05-05_08h58.55.942,empathy_intonation_perc,2024.1.4,MacIntel,120.4819277,,,,,,,,,,,,,,65,guerra,,,,,,374.1984,375.398,0,1,0.676,,0,124,124,64,1,non_cognate,1,REAL,FALSA
,,,,,,,,,60fd3574955a2ca75409573c,001,2025-05-05_08h58.55.942,empathy_intonation_perc,2024.1.4,MacIntel,120.4819277,,,,,,,,,,,,,,87,muleta,,,,,,375.3985,377.0566,0,1,1.1422,,0,125,125,86,1,non_cognate,1,REAL,FALSA
,,,,,,,,,60fd3574955a2ca75409573c,001,2025-05-05_08h58.55.942,empathy_intonation_perc,2024.1.4,MacIntel,120.4819277,,,,,,,,,,,,,,25,vigor,,,,,,377.0569,378.4899,0,1,0.9086,,0,126,126,24,1,two_way_cognate,1,REAL,FALSA
,,,,,,,,,60fd3574955a2ca75409573c,001,2025-05-05_08h58.55.942,empathy_intonation_perc,2024.1.4,MacIntel,120.4819277,,,,,,,,,,,,,,89,muñeca,,,,,,378.4905,382.7648,0,1,3.7494,,0,127,127,88,1,non_cognate,1,REAL,FALSA
,,,,,,,,,60fd3574955a2ca75409573c,001,2025-05-05_08h58.55.942,empathy_intonation_perc,2024.1.4,MacIntel,120.4819277,,,,,,,,,,,,,,186,rizate,,,,,,382.7652,384.6483,0,1,1.3632,,0,128,128,185,1,pseudoword,0,REAL,FALSA
,,,,,,,,,60fd3574955a2ca75409573c,001,2025-05-05_08h58.55.942,empathy_intonation_perc,2024.1.4,MacIntel,120.4819277,,,,,,,,,,,,,,8,kilo,,,,,,384.6486,387.4565,0,1,2.2845,,0,129,129,7,1,three_way_cognate,1,REAL,FALSA
,,,,,,,,,60fd3574955a2ca75409573c,001,2025-05-05_08h58.55.942,empathy_intonation_perc,2024.1.4,MacIntel,120.4819277,,,,,,,,,,,,,,167,dobbo,,,,,,387.4569,393.2734,0,1,5.2978,,0,130,130,166,1,pseudoword,0,REAL,FALSA
,,,,,,,,,60fd3574955a2ca75409573c,001,2025-05-05_08h58.55.942,empathy_intonation_perc,2024.1.4,MacIntel,120.4819277,,,,,,,,,,,,,,12,dogma,,,,,,393.2737,394.7313,0,1,0.9394,,0,131,131,11,1,three_way_cognate,1,REAL,FALSA
,,,,,,,,,60fd3574955a2ca75409573c,001,2025-05-05_08h58.55.942,empathy_intonation_perc,2024.1.4,MacIntel,120.4819277,,,,,,,,,,,,,,128,pelí,,,,,,394.7318,396.3482,0,1,1.0984,,0,132,132,127,1,pseudoword,0,REAL,FALSA
,,,,,,,,,60fd3574955a2ca75409573c,001,2025-05-05_08h58.55.942,empathy_intonation_perc,2024.1.4,MacIntel,120.4819277,,,,,,,,,,,,,,23,plural,,,,,,396.3486,399.7732,1,0,2.9021,,0,133,133,22,1,three_way_cognate,1,REAL,FALSA
,,,,,,,,,60fd3574955a2ca75409573c,001,2025-05-05_08h58.55.942,empathy_intonation_perc,2024.1.4,MacIntel,120.4819277,,,,,,,,,,,,,,174,pabea,,,,,,399.7736,400.9898,0,1,0.691,,0,134,134,173,1,pseudoword,0,REAL,FALSA
,,,,,,,,,60fd3574955a2ca75409573c,001,2025-05-05_08h58.55.942,empathy_intonation_perc,2024.1.4,MacIntel,120.4819277,,,,,,,,,,,,,,121,barbs,,,,,,400.9901,402.1899,0,1,0.6803,,0,135,135,120,1,pseudoword,0,REAL,FALSA
,,,,,,,,,60fd3574955a2ca75409573c,001,2025-05-05_08h58.55.942,empathy_intonation_perc,2024.1.4,MacIntel,120.4819277,,,,,,,,,,,,,,36,viable,,,,,,402.1904,403.4979,0,1,0.7826,,0,136,136,35,1,two_way_cognate,1,REAL,FALSA
,,,,,,,,,60fd3574955a2ca75409573c,001,2025-05-05_08h58.55.942,empathy_intonation_perc,2024.1.4,MacIntel,120.4819277,,,,,,,,,,,,,,97,nocita,,,,,,403.4983,404.6316,1,0,0.61,,0,137,137,96,1,pseudoword,0,REAL,FALSA
,,,,,,,,,60fd3574955a2ca75409573c,001,2025-05-05_08h58.55.942,empathy_intonation_perc,2024.1.4,MacIntel,120.4819277,,,,,,,,,,,,,,160,fomeó,,,,,,404.632,405.8065,0,1,0.6507,,0,138,138,159,1,pseudoword,0,REAL,FALSA
,,,,,,,,,60fd3574955a2ca75409573c,001,2025-05-05_08h58.55.942,empathy_intonation_perc,2024.1.4,MacIntel,120.4819277,,,,,,,,,,,,,,165,chote,,,,,,405.8071,407.065,0,1,0.7339,,0,139,139,164,1,pseudoword,0,REAL,FALSA
,,,,,,,,,60fd3574955a2ca75409573c,001,2025-05-05_08h58.55.942,empathy_intonation_perc,2024.1.4,MacIntel,120.4819277,,,,,,,,,,,,,,144,diroco,,,,,,407.0653,408.9817,0,1,1.393,,0,140,140,143,1,pseudoword,0,REAL,FALSA
,,,,,,,,,60fd3574955a2ca75409573c,001,2025-05-05_08h58.55.942,empathy_intonation_perc,2024.1.4,MacIntel,120.4819277,,,,,,,,,,,,,,125,ceme,,,,,,408.9819,410.2316,0,1,0.7248,,0,141,141,124,1,pseudoword,0,REAL,FALSA
,,,,,,,,,60fd3574955a2ca75409573c,001,2025-05-05_08h58.55.942,empathy_intonation_perc,2024.1.4,MacIntel,120.4819277,,,,,,,,,,,,,,5,extra,,,,,,410.2319,411.3233,0,1,0.5664,,0,142,142,4,1,three_way_cognate,1,REAL,FALSA
,,,,,,,,,60fd3574955a2ca75409573c,001,2025-05-05_08h58.55.942,empathy_intonation_perc,2024.1.4,MacIntel,120.4819277,,,,,,,,,,,,,,60,siglo,,,,,,411.3235,412.5733,0,1,0.7293,,0,143,143,59,1,non_cognate,1,REAL,FALSA
,,,,,,,,,60fd3574955a2ca75409573c,001,2025-05-05_08h58.55.942,empathy_intonation_perc,2024.1.4,MacIntel,120.4819277,,,,,,,,,,,,,,166,anfia,,,,,,412.5737,413.6732,0,1,0.5829,,0,144,144,165,1,pseudoword,0,REAL,FALSA
,,,,,,,,,60fd3574955a2ca75409573c,001,2025-05-05_08h58.55.942,empathy_intonation_perc,2024.1.4,MacIntel,120.4819277,,,,,,,,,,,,,,101,losco,,,,,,413.6735,414.74,0,1,0.5511,,0,145,145,100,1,pseudoword,0,REAL,FALSA
,,,,,,,,,60fd3574955a2ca75409573c,001,2025-05-05_08h58.55.942,empathy_intonation_perc,2024.1.4,MacIntel,120.4819277,,,,,,,,,,,,,,56,pico,,,,,,414.7404,416.0986,1,0,0.8393,,0,146,146,55,1,non_cognate,1,REAL,FALSA
,,,,,,,,,60fd3574955a2ca75409573c,001,2025-05-05_08h58.55.942,empathy_intonation_perc,2024.1.4,MacIntel,120.4819277,,,,,,,,,,,,,,84,aviso,,,,,,416.0992,417.282,0,1,0.6596,,0,147,147,83,1,non_cognate,1,REAL,FALSA
,,,,,,,,,60fd3574955a2ca75409573c,001,2025-05-05_08h58.55.942,empathy_intonation_perc,2024.1.4,MacIntel,120.4819277,,,,,,,,,,,,,,124,lobe,,,,,,417.2825,418.2726,0,1,0.4701,,0,148,148,123,1,pseudoword,0,REAL,FALSA
,,,,,,,,,60fd3574955a2ca75409573c,001,2025-05-05_08h58.55.942,empathy_intonation_perc,2024.1.4,MacIntel,120.4819277,,,,,,,,,,,,,,62,pegar,,,,,,418.2728,419.5401,1,0,0.7577,,0,149,149,61,1,non_cognate,1,REAL,FALSA
,,,,,,,,,60fd3574955a2ca75409573c,001,2025-05-05_08h58.55.942,empathy_intonation_perc,2024.1.4,MacIntel,120.4819277,,,,,,,,,,,,,,42,rumor,,,,,,419.5404,420.7151,1,0,0.6504,,0,150,150,41,1,two_way_cognate,1,REAL,FALSA
,,,,,,,,,60fd3574955a2ca75409573c,001,2025-05-05_08h58.55.942,empathy_intonation_perc,2024.1.4,MacIntel,120.4819277,,,,,,,,,,,,,,75,patada,,,,,,420.7155,422.3308,0,1,1.094,,0,151,151,74,1,non_cognate,1,REAL,FALSA
,,,,,,,,,60fd3574955a2ca75409573c,001,2025-05-05_08h58.55.942,empathy_intonation_perc,2024.1.4,MacIntel,120.4819277,,,,,,,,,,,,,,35,aurora,,,,,,422.3312,423.7142,1,0,0.8578,,0,152,152,34,1,two_way_cognate,1,REAL,FALSA
,,,,,,,,,60fd3574955a2ca75409573c,001,2025-05-05_08h58.55.942,empathy_intonation_perc,2024.1.4,MacIntel,120.4819277,,,,,,,,,,,,,,122,boñaz,,,,,,423.7145,425.0317,0,1,0.7923,,0,153,153,121,1,pseudoword,0,REAL,FALSA
,,,,,,,,,60fd3574955a2ca75409573c,001,2025-05-05_08h58.55.942,empathy_intonation_perc,2024.1.4,MacIntel,120.4819277,,,,,,,,,,,,,,64,rizado,,,,,,425.032,426.7901,0,1,1.2342,,0,154,154,63,1,non_cognate,1,REAL,FALSA
,,,,,,,,,60fd3574955a2ca75409573c,001,2025-05-05_08h58.55.942,empathy_intonation_perc,2024.1.4,MacIntel,120.4819277,,,,,,,,,,,,,,31,civil,,,,,,426.7903,427.7817,0,1,0.4657,,0,155,155,30,1,two_way_cognate,1,REAL,FALSA
,,,,,,,,,60fd3574955a2ca75409573c,001,2025-05-05_08h58.55.942,empathy_intonation_perc,2024.1.4,MacIntel,120.4819277,,,,,,,,,,,,,,132,nocó,,,,,,427.7822,428.7975,0,1,0.4972,,0,156,156,131,1,pseudoword,0,REAL,FALSA
,,,,,,,,,60fd3574955a2ca75409573c,001,2025-05-05_08h58.55.942,empathy_intonation_perc,2024.1.4,MacIntel,120.4819277,,,,,,,,,,,,,,110,densó,,,,,,428.7977,429.9066,0,1,0.6004,,0,157,157,109,1,pseudoword,0,REAL,FALSA
,,,,,,,,,60fd3574955a2ca75409573c,001,2025-05-05_08h58.55.942,empathy_intonation_perc,2024.1.4,MacIntel,120.4819277,,,,,,,,,,,,,,46,mortal,,,,,,429.9069,431.5733,1,0,1.1432,,0,158,158,45,1,two_way_cognate,1,REAL,FALSA
,,,,,,,,,60fd3574955a2ca75409573c,001,2025-05-05_08h58.55.942,empathy_intonation_perc,2024.1.4,MacIntel,120.4819277,,,,,,,,,,,,,,142,parre,,,,,,431.5736,433.3734,1,0,1.2754,,0,159,159,141,1,pseudoword,0,REAL,FALSA
,,,,,,,,,60fd3574955a2ca75409573c,001,2025-05-05_08h58.55.942,empathy_intonation_perc,2024.1.4,MacIntel,120.4819277,,,,,,,,,,,,,,11,golf,,,,,,433.3738,434.5228,1,0,0.6306,,0,160,160,10,1,three_way_cognate,1,REAL,FALSA
,,,,,,,,,60fd3574955a2ca75409573c,001,2025-05-05_08h58.55.942,empathy_intonation_perc,2024.1.4,MacIntel,120.4819277,,,,,,,,,,,,,,78,rendir,,,,,,434.5231,435.6735,0,1,0.6337,,0,161,161,77,1,non_cognate,1,REAL,FALSA
,,,,,,,,,60fd3574955a2ca75409573c,001,2025-05-05_08h58.55.942,empathy_intonation_perc,2024.1.4,MacIntel,120.4819277,,,,,,,,,,,,,,150,cricó,,,,,,435.6738,437.1732,0,1,0.9787,,0,162,162,149,1,pseudoword,0,REAL,FALSA
,,,,,,,,,60fd3574955a2ca75409573c,001,2025-05-05_08h58.55.942,empathy_intonation_perc,2024.1.4,MacIntel,120.4819277,,,,,,,,,,,,,,109,laras,,,,,,437.1736,438.5069,0,1,0.8083,,0,163,163,108,1,pseudoword,0,REAL,FALSA
,,,,,,,,,60fd3574955a2ca75409573c,001,2025-05-05_08h58.55.942,empathy_intonation_perc,2024.1.4,MacIntel,120.4819277,,,,,,,,,,,,,,45,total,,,,,,438.5072,439.7901,1,0,0.7639,,0,164,164,44,1,two_way_cognate,1,REAL,FALSA
,,,,,,,,,60fd3574955a2ca75409573c,001,2025-05-05_08h58.55.942,empathy_intonation_perc,2024.1.4,MacIntel,120.4819277,,,,,,,,,,,,,,152,prave,,,,,,439.7905,441.0571,1,0,0.7416,,0,165,165,151,1,pseudoword,0,REAL,FALSA
,,,,,,,,,60fd3574955a2ca75409573c,001,2025-05-05_08h58.55.942,empathy_intonation_perc,2024.1.4,MacIntel,120.4819277,,,,,,,,,,,,,,18,altar,,,,,,441.0575,442.1231,1,0,0.5421,,0,166,166,17,1,three_way_cognate,1,REAL,FALSA
,,,,,,,,,60fd3574955a2ca75409573c,001,2025-05-05_08h58.55.942,empathy_intonation_perc,2024.1.4,MacIntel,120.4819277,,,,,,,,,,,,,,136,hueas,,,,,,442.1235,443.2404,0,1,0.6015,,0,167,167,135,1,pseudoword,0,REAL,FALSA
,,,,,,,,,60fd3574955a2ca75409573c,001,2025-05-05_08h58.55.942,empathy_intonation_perc,2024.1.4,MacIntel,120.4819277,,,,,,,,,,,,,,63,hilo,,,,,,443.2408,444.2987,0,1,0.5346,,0,168,168,62,1,non_cognate,1,REAL,FALSA
,,,,,,,,,60fd3574955a2ca75409573c,001,2025-05-05_08h58.55.942,empathy_intonation_perc,2024.1.4,MacIntel,120.4819277,,,,,,,,,,,,,,79,suelo,,,,,,444.2991,446.1987,0,1,1.3803,,0,169,169,78,1,non_cognate,1,REAL,FALSA
,,,,,,,,,60fd3574955a2ca75409573c,001,2025-05-05_08h58.55.942,empathy_intonation_perc,2024.1.4,MacIntel,120.4819277,,,,,,,,,,,,,,192,próces,,,,,,446.1991,447.2655,0,1,0.5399,,0,170,170,191,1,pseudoword,0,REAL,FALSA
,,,,,,,,,60fd3574955a2ca75409573c,001,2025-05-05_08h58.55.942,empathy_intonation_perc,2024.1.4,MacIntel,120.4819277,,,,,,,,,,,,,,6,horror,,,,,,447.2661,448.5736,1,0,0.7841,,0,171,171,5,1,three_way_cognate,1,REAL,FALSA
,,,,,,,,,60fd3574955a2ca75409573c,001,2025-05-05_08h58.55.942,empathy_intonation_perc,2024.1.4,MacIntel,120.4819277,,,,,,,,,,,,,,147,alla,,,,,,448.5739,449.9818,0,1,0.8828,,0,172,172,146,1,pseudoword,0,REAL,FALSA
,,,,,,,,,60fd3574955a2ca75409573c,001,2025-05-05_08h58.55.942,empathy_intonation_perc,2024.1.4,MacIntel,120.4819277,,,,,,,,,,,,,,24,retina,,,,,,449.982,451.4318,1,0,0.9288,,0,173,173,23,1,three_way_cognate,1,REAL,FALSA
,,,,,,,,,60fd3574955a2ca75409573c,001,2025-05-05_08h58.55.942,empathy_intonation_perc,2024.1.4,MacIntel,120.4819277,,,,,,,,,,,,,,119,esís,,,,,,451.4321,452.5408,0,1,0.5895,,0,174,174,118,1,pseudoword,0,REAL,FALSA
,,,,,,,,,60fd3574955a2ca75409573c,001,2025-05-05_08h58.55.942,empathy_intonation_perc,2024.1.4,MacIntel,120.4819277,,,,,,,,,,,,,,50,sierra,,,,,,452.5412,453.6063,1,0,0.5436,,0,175,175,49,1,non_cognate,1,REAL,FALSA
,,,,,,,,,60fd3574955a2ca75409573c,001,2025-05-05_08h58.55.942,empathy_intonation_perc,2024.1.4,MacIntel,120.4819277,,,,,,,,,,,,,,33,collar,,,,,,453.6066,454.8571,1,0,0.728,,0,176,176,32,1,two_way_cognate,1,REAL,FALSA
,,,,,,,,,60fd3574955a2ca75409573c,001,2025-05-05_08h58.55.942,empathy_intonation_perc,2024.1.4,MacIntel,120.4819277,,,,,,,,,,,,,,189,medium,,,,,,454.8574,456.0402,1,0,0.6606,,0,177,177,188,1,pseudoword,0,REAL,FALSA
,,,,,,,,,60fd3574955a2ca75409573c,001,2025-05-05_08h58.55.942,empathy_intonation_perc,2024.1.4,MacIntel,120.4819277,,,,,,,,,,,,,,32,animal,,,,,,456.0406,457.2404,1,0,0.6758,,0,178,178,31,1,two_way_cognate,1,REAL,FALSA
,,,,,,,,,60fd3574955a2ca75409573c,001,2025-05-05_08h58.55.942,empathy_intonation_perc,2024.1.4,MacIntel,120.4819277,,,,,,,,,,,,,,134,molor,,,,,,457.2406,459.098,0,1,1.3388,,0,179,179,133,1,pseudoword,0,REAL,FALSA
,,,,,,,,,60fd3574955a2ca75409573c,001,2025-05-05_08h58.55.942,empathy_intonation_perc,2024.1.4,MacIntel,120.4819277,,,,,,,,,,,,,,49,teñir,,,,,,459.0984,460.0899,0,1,0.475,,0,180,180,48,1,non_cognate,1,REAL,FALSA
,,,,,,,,,60fd3574955a2ca75409573c,001,2025-05-05_08h58.55.942,empathy_intonation_perc,2024.1.4,MacIntel,120.4819277,,,,,,,,,,,,,,76,chocar,,,,,,460.0902,461.2736,0,1,0.6639,,0,181,181,75,1,non_cognate,1,REAL,FALSA
,,,,,,,,,60fd3574955a2ca75409573c,001,2025-05-05_08h58.55.942,empathy_intonation_perc,2024.1.4,MacIntel,120.4819277,,,,,,,,,,,,,,131,fuar,,,,,,461.2738,462.3069,0,1,0.5172,,0,182,182,130,1,pseudoword,0,REAL,FALSA
,,,,,,,,,60fd3574955a2ca75409573c,001,2025-05-05_08h58.55.942,empathy_intonation_perc,2024.1.4,MacIntel,120.4819277,,,,,,,,,,,,,,82,brillo,,,,,,462.3074,463.4155,0,1,0.5898,,0,183,183,81,1,non_cognate,1,REAL,FALSA
,,,,,,,,,60fd3574955a2ca75409573c,001,2025-05-05_08h58.55.942,empathy_intonation_perc,2024.1.4,MacIntel,120.4819277,,,,,,,,,,,,,,185,aljizo,,,,,,463.4158,464.7237,0,1,0.7892,,0,184,184,184,1,pseudoword,0,REAL,FALSA
,,,,,,,,,60fd3574955a2ca75409573c,001,2025-05-05_08h58.55.942,empathy_intonation_perc,2024.1.4,MacIntel,120.4819277,,,,,,,,,,,,,,146,gió,,,,,,464.7242,465.8654,0,1,0.616,,0,185,185,145,1,pseudoword,0,REAL,FALSA
,,,,,,,,,60fd3574955a2ca75409573c,001,2025-05-05_08h58.55.942,empathy_intonation_perc,2024.1.4,MacIntel,120.4819277,,,,,,,,,,,,,,43,honor,,,,,,465.8657,467.3152,1,0,0.9307,,0,186,186,42,1,two_way_cognate,1,REAL,FALSA
,,,,,,,,,60fd3574955a2ca75409573c,001,2025-05-05_08h58.55.942,empathy_intonation_perc,2024.1.4,MacIntel,120.4819277,,,,,,,,,,,,,,102,coyo,,,,,,467.3155,468.5159,0,1,0.6813,,0,187,187,101,1,pseudoword,0,REAL,FALSA
,,,,,,,,,60fd3574955a2ca75409573c,001,2025-05-05_08h58.55.942,empathy_intonation_perc,2024.1.4,MacIntel,120.4819277,,,,,,,,,,,,,,156,ozoso,,,,,,468.5163,469.6989,0,1,0.6698,,0,188,188,155,1,pseudoword,0,REAL,FALSA
,,,,,,,,,60fd3574955a2ca75409573c,001,2025-05-05_08h58.55.942,empathy_intonation_perc,2024.1.4,MacIntel,120.4819277,,,,,,,,,,,,,,187,nomata,,,,,,469.6992,471.14,0,1,0.9224,,0,189,189,186,1,pseudoword,0,REAL,FALSA
,,,,,,,,,60fd3574955a2ca75409573c,001,2025-05-05_08h58.55.942,empathy_intonation_perc,2024.1.4,MacIntel,120.4819277,,,,,,,,,,,,,,183,edioso,,,,,,471.1402,472.207,0,1,0.5481,,0,190,190,182,1,pseudoword,0,REAL,FALSA
,,,,,,,,,60fd3574955a2ca75409573c,001,2025-05-05_08h58.55.942,empathy_intonation_perc,2024.1.4,MacIntel,120.4819277,,,,,,,,,,,,,,111,monue,,,,,,472.2074,473.4237,0,1,0.7014,,0,191,191,110,1,pseudoword,0,REAL,FALSA
