lextale_instructions.started,lextale_instructions.stopped,lextale_instructions_loop.thisRepN,lextale_instructions_loop.thisTrialN,lextale_instructions_loop.thisN,lextale_instructions_loop.thisIndex,lextale_instructions_loop.ran,instructions_text,continue_text,participant,session,date,expName,psychopyVersion,OS,frameRate,lextale_practice.started,lextale_practice.stopped,key_resp_lextale_practice.keys,key_resp_lextale_practice.corr,key_resp_lextale_practice.rt,key_resp_lextale_practice.duration,lextale_practice_feedback.started,lextale_practice_feedback.stopped,lextale_practice_trials.thisRepN,lextale_practice_trials.thisTrialN,lextale_practice_trials.thisN,lextale_practice_trials.thisIndex,lextale_practice_trials.ran,stim,word,correct_response,prac_button_real,prac_button_false,lextale_check.started,lextale_check.stopped,lextale_trial.started,lextale_trial.stopped,key_resp_lextale_trial.keys,key_resp_lextale_trial.corr,key_resp_lextale_trial.rt,key_resp_lextale_trial.duration,lextail_trials.thisRepN,lextail_trials.thisTrialN,lextail_trials.thisN,lextail_trials.thisIndex,lextail_trials.ran,type,correct_reponse,button_real,button_false
0.0065,4.1377,0,0,0,0,1,"Este es un test de vocabulario en español. 
  
  A continuación vas a ver 90 secuencias de letras que parecen 'españolas'.
  
  Solo algunas de ellas son palabras de verdad.",(presiona la barra espaciadora para continuar),610485a4b72881131d111afd,001,2025-04-30_12h07.34.400,empathy_intonation_perc,2024.1.4,Win32,119.047619,,,,,,,,,,,,,,,,,,,,,,,,,,,,,,,,,,,
4.1386,10.1038,0,1,1,1,1,"Por favor, señala las palabras que tú conoces (aquellas que estás convencido que son palabras españolas, incluso aunque no seas capaz de dar el significado preciso).",(presiona la barra espaciadora para continuar),610485a4b72881131d111afd,001,2025-04-30_12h07.34.400,empathy_intonation_perc,2024.1.4,Win32,119.047619,,,,,,,,,,,,,,,,,,,,,,,,,,,,,,,,,,,
10.1043,15.5203,0,2,2,2,1,Pero cuidado: los errores se penalizan. Por eso no tiene sentido tratar de incrementar tu puntuación marcando como reales palabras que nunca has visto.,(presiona la barra espaciadora para continuar),610485a4b72881131d111afd,001,2025-04-30_12h07.34.400,empathy_intonation_perc,2024.1.4,Win32,119.047619,,,,,,,,,,,,,,,,,,,,,,,,,,,,,,,,,,,
15.5206,19.1204,0,3,3,3,1,"Presiona la tecla 1 si piensas que es una palabra real y la tecla 
  0 si piensas que es una palabra falsa. 
  
  Vamos a practicar un poco...",(presiona la barra espaciadora para continuar),610485a4b72881131d111afd,001,2025-04-30_12h07.34.400,empathy_intonation_perc,2024.1.4,Win32,119.047619,,,,,,,,,,,,,,,,,,,,,,,,,,,,,,,,,,,
,,,,,,,,,610485a4b72881131d111afd,001,2025-04-30_12h07.34.400,empathy_intonation_perc,2024.1.4,Win32,119.047619,19.1246,21.5119,0,1,1.8699,,21.5122,22.5118,0,0,0,0,1,0,depiste,0,REAL,FALSA,,,,,,,,,,,,,,,,,
,,,,,,,,,610485a4b72881131d111afd,001,2025-04-30_12h07.34.400,empathy_intonation_perc,2024.1.4,Win32,119.047619,22.5123,23.8033,1,1,0.772,,23.8034,24.8032,0,1,1,1,1,0,sí,1,REAL,FALSA,,,,,,,,,,,,,,,,,
,,,,,,,,,610485a4b72881131d111afd,001,2025-04-30_12h07.34.400,empathy_intonation_perc,2024.1.4,Win32,119.047619,24.8036,25.9373,0,1,0.6172,,25.9374,26.9366,0,2,2,2,1,0,coné,0,REAL,FALSA,,,,,,,,,,,,,,,,,
,,,,,,,,,610485a4b72881131d111afd,001,2025-04-30_12h07.34.400,empathy_intonation_perc,2024.1.4,Win32,119.047619,26.937,28.29,1,0,0.8328,,28.29,29.287,0,3,3,3,1,0,calpar,0,REAL,FALSA,,,,,,,,,,,,,,,,,
,,,,,,,,,610485a4b72881131d111afd,001,2025-04-30_12h07.34.400,empathy_intonation_perc,2024.1.4,Win32,119.047619,29.2874,30.4453,0,1,0.6383,,30.4454,31.4452,0,4,4,4,1,0,joten,0,REAL,FALSA,,,,,,,,,,,,,,,,,
,,,,,,,,,610485a4b72881131d111afd,001,2025-04-30_12h07.34.400,empathy_intonation_perc,2024.1.4,Win32,119.047619,31.4456,33.1286,1,1,1.1642,,33.1287,34.1287,0,5,5,5,1,0,sacapuntas,1,REAL,FALSA,,,,,,,,,,,,,,,,,
,,,,,,,,,610485a4b72881131d111afd,001,2025-04-30_12h07.34.400,empathy_intonation_perc,2024.1.4,Win32,119.047619,34.1291,35.4535,0,1,0.8065,,35.4537,36.4534,0,6,6,6,1,0,priba,0,REAL,FALSA,,,,,,,,,,,,,,,,,
,,,,,,,,,610485a4b72881131d111afd,001,2025-04-30_12h07.34.400,empathy_intonation_perc,2024.1.4,Win32,119.047619,36.4537,37.5785,0,1,0.6042,,37.5786,38.5785,0,7,7,7,1,0,pelasula,0,REAL,FALSA,,,,,,,,,,,,,,,,,
,,,,,,,,,610485a4b72881131d111afd,001,2025-04-30_12h07.34.400,empathy_intonation_perc,2024.1.4,Win32,119.047619,38.5789,39.6452,1,1,0.5482,,39.6453,40.6451,0,8,8,8,1,0,bien,1,REAL,FALSA,,,,,,,,,,,,,,,,,
,,,,,,,,,610485a4b72881131d111afd,001,2025-04-30_12h07.34.400,empathy_intonation_perc,2024.1.4,Win32,119.047619,40.6454,41.6784,1,1,0.5143,,41.6787,42.6783,0,9,9,9,1,0,casa,1,REAL,FALSA,,,,,,,,,,,,,,,,,
,,,,,,,,,610485a4b72881131d111afd,001,2025-04-30_12h07.34.400,empathy_intonation_perc,2024.1.4,Win32,119.047619,42.6786,43.987,1,0,0.7907,,43.9871,44.9869,0,10,10,10,1,0,lejo,0,REAL,FALSA,,,,,,,,,,,,,,,,,
,,,,,,,,,610485a4b72881131d111afd,001,2025-04-30_12h07.34.400,empathy_intonation_perc,2024.1.4,Win32,119.047619,44.9873,46.2707,0,1,0.766,,46.2707,47.2699,0,11,11,11,1,0,pretantas,0,REAL,FALSA,,,,,,,,,,,,,,,,,
,,,,,,,,,610485a4b72881131d111afd,001,2025-04-30_12h07.34.400,empathy_intonation_perc,2024.1.4,Win32,119.047619,,,,,,,,,,,,,,,,,,,47.2702,49.2615,,,,,,,,,,,,,,,
,,,,,,,,,610485a4b72881131d111afd,001,2025-04-30_12h07.34.400,empathy_intonation_perc,2024.1.4,Win32,119.047619,,,,,,,,,,,,,,70,ánimo,,,,,,49.2797,50.6364,1,0,0.8384,,0,0,0,69,1,non_cognate,1,REAL,FALSA
,,,,,,,,,610485a4b72881131d111afd,001,2025-04-30_12h07.34.400,empathy_intonation_perc,2024.1.4,Win32,119.047619,,,,,,,,,,,,,,187,nomata,,,,,,50.637,51.786,0,1,0.629,,0,1,1,186,1,pseudoword,0,REAL,FALSA
,,,,,,,,,610485a4b72881131d111afd,001,2025-04-30_12h07.34.400,empathy_intonation_perc,2024.1.4,Win32,119.047619,,,,,,,,,,,,,,24,retina,,,,,,51.7865,52.9277,1,0,0.6237,,0,2,2,23,1,three_way_cognate,1,REAL,FALSA
,,,,,,,,,610485a4b72881131d111afd,001,2025-04-30_12h07.34.400,empathy_intonation_perc,2024.1.4,Win32,119.047619,,,,,,,,,,,,,,163,llzan,,,,,,52.9282,54.0692,0,1,0.6225,,0,3,3,162,1,pseudoword,0,REAL,FALSA
,,,,,,,,,610485a4b72881131d111afd,001,2025-04-30_12h07.34.400,empathy_intonation_perc,2024.1.4,Win32,119.047619,,,,,,,,,,,,,,12,dogma,,,,,,54.0695,55.3527,1,0,0.7623,,0,4,4,11,1,three_way_cognate,1,REAL,FALSA
,,,,,,,,,610485a4b72881131d111afd,001,2025-04-30_12h07.34.400,empathy_intonation_perc,2024.1.4,Win32,119.047619,,,,,,,,,,,,,,77,suave,,,,,,55.3531,56.5277,1,0,0.6622,,0,5,5,76,1,non_cognate,1,REAL,FALSA
,,,,,,,,,610485a4b72881131d111afd,001,2025-04-30_12h07.34.400,empathy_intonation_perc,2024.1.4,Win32,119.047619,,,,,,,,,,,,,,21,hotel,,,,,,56.5282,57.6029,1,0,0.5556,,0,6,6,20,1,three_way_cognate,1,REAL,FALSA
,,,,,,,,,610485a4b72881131d111afd,001,2025-04-30_12h07.34.400,empathy_intonation_perc,2024.1.4,Win32,119.047619,,,,,,,,,,,,,,42,rumor,,,,,,57.6032,58.815,1,0,0.6914,,0,7,7,41,1,two_way_cognate,1,REAL,FALSA
,,,,,,,,,610485a4b72881131d111afd,001,2025-04-30_12h07.34.400,empathy_intonation_perc,2024.1.4,Win32,119.047619,,,,,,,,,,,,,,75,patada,,,,,,58.8155,60.2776,0,1,0.9461,,0,8,8,74,1,non_cognate,1,REAL,FALSA
,,,,,,,,,610485a4b72881131d111afd,001,2025-04-30_12h07.34.400,empathy_intonation_perc,2024.1.4,Win32,119.047619,,,,,,,,,,,,,,85,enorme,,,,,,60.2779,61.4693,1,0,0.6728,,0,9,9,84,1,non_cognate,1,REAL,FALSA
,,,,,,,,,610485a4b72881131d111afd,001,2025-04-30_12h07.34.400,empathy_intonation_perc,2024.1.4,Win32,119.047619,,,,,,,,,,,,,,130,dubo,,,,,,61.4696,62.6362,0,1,0.6471,,0,10,10,129,1,pseudoword,0,REAL,FALSA
,,,,,,,,,610485a4b72881131d111afd,001,2025-04-30_12h07.34.400,empathy_intonation_perc,2024.1.4,Win32,119.047619,,,,,,,,,,,,,,122,boñaz,,,,,,62.6365,63.7359,0,1,0.5797,,0,11,11,121,1,pseudoword,0,REAL,FALSA
,,,,,,,,,610485a4b72881131d111afd,001,2025-04-30_12h07.34.400,empathy_intonation_perc,2024.1.4,Win32,119.047619,,,,,,,,,,,,,,123,arane,,,,,,63.7365,64.9614,0,1,0.708,,0,12,12,122,1,pseudoword,0,REAL,FALSA
,,,,,,,,,610485a4b72881131d111afd,001,2025-04-30_12h07.34.400,empathy_intonation_perc,2024.1.4,Win32,119.047619,,,,,,,,,,,,,,48,pelvis,,,,,,64.962,66.111,1,0,0.6306,,0,13,13,47,1,two_way_cognate,1,REAL,FALSA
,,,,,,,,,610485a4b72881131d111afd,001,2025-04-30_12h07.34.400,empathy_intonation_perc,2024.1.4,Win32,119.047619,,,,,,,,,,,,,,141,virios,,,,,,66.1113,67.5279,0,1,0.8986,,0,14,14,140,1,pseudoword,0,REAL,FALSA
,,,,,,,,,610485a4b72881131d111afd,001,2025-04-30_12h07.34.400,empathy_intonation_perc,2024.1.4,Win32,119.047619,,,,,,,,,,,,,,11,golf,,,,,,67.5282,68.6362,1,0,0.5898,,0,15,15,10,1,three_way_cognate,1,REAL,FALSA
,,,,,,,,,610485a4b72881131d111afd,001,2025-04-30_12h07.34.400,empathy_intonation_perc,2024.1.4,Win32,119.047619,,,,,,,,,,,,,,124,lobe,,,,,,68.6365,69.8112,0,1,0.6594,,0,16,16,123,1,pseudoword,0,REAL,FALSA
,,,,,,,,,610485a4b72881131d111afd,001,2025-04-30_12h07.34.400,empathy_intonation_perc,2024.1.4,Win32,119.047619,,,,,,,,,,,,,,127,vien,,,,,,69.8117,71.1862,0,1,0.8562,,0,17,17,126,1,pseudoword,0,REAL,FALSA
,,,,,,,,,610485a4b72881131d111afd,001,2025-04-30_12h07.34.400,empathy_intonation_perc,2024.1.4,Win32,119.047619,,,,,,,,,,,,,,73,llevar,,,,,,71.1865,72.4862,1,0,0.7818,,0,18,18,72,1,non_cognate,1,REAL,FALSA
,,,,,,,,,610485a4b72881131d111afd,001,2025-04-30_12h07.34.400,empathy_intonation_perc,2024.1.4,Win32,119.047619,,,,,,,,,,,,,,174,pabea,,,,,,72.4868,73.6366,0,1,0.6327,,0,19,19,173,1,pseudoword,0,REAL,FALSA
,,,,,,,,,610485a4b72881131d111afd,001,2025-04-30_12h07.34.400,empathy_intonation_perc,2024.1.4,Win32,119.047619,,,,,,,,,,,,,,153,golla,,,,,,73.6369,74.6945,0,1,0.5394,,0,20,20,152,1,pseudoword,0,REAL,FALSA
,,,,,,,,,610485a4b72881131d111afd,001,2025-04-30_12h07.34.400,empathy_intonation_perc,2024.1.4,Win32,119.047619,,,,,,,,,,,,,,152,prave,,,,,,74.6949,75.853,0,1,0.6438,,0,21,21,151,1,pseudoword,0,REAL,FALSA
,,,,,,,,,610485a4b72881131d111afd,001,2025-04-30_12h07.34.400,empathy_intonation_perc,2024.1.4,Win32,119.047619,,,,,,,,,,,,,,175,tradía,,,,,,75.8534,77.219,0,1,0.8481,,0,22,22,174,1,pseudoword,0,REAL,FALSA
,,,,,,,,,610485a4b72881131d111afd,001,2025-04-30_12h07.34.400,empathy_intonation_perc,2024.1.4,Win32,119.047619,,,,,,,,,,,,,,106,diebro,,,,,,77.2194,78.2438,0,1,0.5086,,0,23,23,105,1,pseudoword,0,REAL,FALSA
,,,,,,,,,610485a4b72881131d111afd,001,2025-04-30_12h07.34.400,empathy_intonation_perc,2024.1.4,Win32,119.047619,,,,,,,,,,,,,,134,molor,,,,,,78.2443,79.4856,0,1,0.7235,,0,24,24,133,1,pseudoword,0,REAL,FALSA
,,,,,,,,,610485a4b72881131d111afd,001,2025-04-30_12h07.34.400,empathy_intonation_perc,2024.1.4,Win32,119.047619,,,,,,,,,,,,,,100,épinas,,,,,,79.4861,80.8688,0,1,0.865,,0,25,25,99,1,pseudoword,0,REAL,FALSA
,,,,,,,,,610485a4b72881131d111afd,001,2025-04-30_12h07.34.400,empathy_intonation_perc,2024.1.4,Win32,119.047619,,,,,,,,,,,,,,82,brillo,,,,,,80.8691,82.052,1,0,0.6634,,0,26,26,81,1,non_cognate,1,REAL,FALSA
,,,,,,,,,610485a4b72881131d111afd,001,2025-04-30_12h07.34.400,empathy_intonation_perc,2024.1.4,Win32,119.047619,,,,,,,,,,,,,,87,muleta,,,,,,82.0524,83.3606,1,0,0.7883,,0,27,27,86,1,non_cognate,1,REAL,FALSA
,,,,,,,,,610485a4b72881131d111afd,001,2025-04-30_12h07.34.400,empathy_intonation_perc,2024.1.4,Win32,119.047619,,,,,,,,,,,,,,144,diroco,,,,,,83.361,84.6104,0,1,0.7296,,0,28,28,143,1,pseudoword,0,REAL,FALSA
,,,,,,,,,610485a4b72881131d111afd,001,2025-04-30_12h07.34.400,empathy_intonation_perc,2024.1.4,Win32,119.047619,,,,,,,,,,,,,,32,animal,,,,,,84.6109,85.6271,1,0,0.4981,,0,29,29,31,1,two_way_cognate,1,REAL,FALSA
,,,,,,,,,610485a4b72881131d111afd,001,2025-04-30_12h07.34.400,empathy_intonation_perc,2024.1.4,Win32,119.047619,,,,,,,,,,,,,,126,tobre,,,,,,85.6278,87.0027,0,1,0.8579,,0,30,30,125,1,pseudoword,0,REAL,FALSA
,,,,,,,,,610485a4b72881131d111afd,001,2025-04-30_12h07.34.400,empathy_intonation_perc,2024.1.4,Win32,119.047619,,,,,,,,,,,,,,181,gravés,,,,,,87.0032,88.0187,0,1,0.4976,,0,31,31,180,1,pseudoword,0,REAL,FALSA
,,,,,,,,,610485a4b72881131d111afd,001,2025-04-30_12h07.34.400,empathy_intonation_perc,2024.1.4,Win32,119.047619,,,,,,,,,,,,,,66,aleta,,,,,,88.0191,89.1353,0,1,0.5974,,0,32,32,65,1,non_cognate,1,REAL,FALSA
,,,,,,,,,610485a4b72881131d111afd,001,2025-04-30_12h07.34.400,empathy_intonation_perc,2024.1.4,Win32,119.047619,,,,,,,,,,,,,,148,gino,,,,,,89.1357,90.0852,0,1,0.4301,,0,33,33,147,1,pseudoword,0,REAL,FALSA
,,,,,,,,,610485a4b72881131d111afd,001,2025-04-30_12h07.34.400,empathy_intonation_perc,2024.1.4,Win32,119.047619,,,,,,,,,,,,,,117,morrá,,,,,,90.0857,91.3519,0,1,0.7463,,0,34,34,116,1,pseudoword,0,REAL,FALSA
,,,,,,,,,610485a4b72881131d111afd,001,2025-04-30_12h07.34.400,empathy_intonation_perc,2024.1.4,Win32,119.047619,,,,,,,,,,,,,,41,pasta,,,,,,91.3523,92.3853,1,0,0.5176,,0,35,35,40,1,two_way_cognate,1,REAL,FALSA
,,,,,,,,,610485a4b72881131d111afd,001,2025-04-30_12h07.34.400,empathy_intonation_perc,2024.1.4,Win32,119.047619,,,,,,,,,,,,,,138,tator,,,,,,92.3857,93.7775,1,0,0.8729,,0,36,36,137,1,pseudoword,0,REAL,FALSA
,,,,,,,,,610485a4b72881131d111afd,001,2025-04-30_12h07.34.400,empathy_intonation_perc,2024.1.4,Win32,119.047619,,,,,,,,,,,,,,72,rostro,,,,,,93.7778,95.0274,1,0,0.7317,,0,37,37,71,1,non_cognate,1,REAL,FALSA
,,,,,,,,,610485a4b72881131d111afd,001,2025-04-30_12h07.34.400,empathy_intonation_perc,2024.1.4,Win32,119.047619,,,,,,,,,,,,,,86,cuenco,,,,,,95.0277,96.2268,0,1,0.6828,,0,38,38,85,1,non_cognate,1,REAL,FALSA
,,,,,,,,,610485a4b72881131d111afd,001,2025-04-30_12h07.34.400,empathy_intonation_perc,2024.1.4,Win32,119.047619,,,,,,,,,,,,,,1,moral,,,,,,96.2273,97.2684,1,0,0.5229,,0,39,39,0,1,three_way_cognate,1,REAL,FALSA
,,,,,,,,,610485a4b72881131d111afd,001,2025-04-30_12h07.34.400,empathy_intonation_perc,2024.1.4,Win32,119.047619,,,,,,,,,,,,,,121,barbs,,,,,,97.2688,98.5101,0,1,0.7204,,0,40,40,120,1,pseudoword,0,REAL,FALSA
,,,,,,,,,610485a4b72881131d111afd,001,2025-04-30_12h07.34.400,empathy_intonation_perc,2024.1.4,Win32,119.047619,,,,,,,,,,,,,,155,kugis,,,,,,98.5105,99.5518,0,1,0.5215,,0,41,41,154,1,pseudoword,0,REAL,FALSA
,,,,,,,,,610485a4b72881131d111afd,001,2025-04-30_12h07.34.400,empathy_intonation_perc,2024.1.4,Win32,119.047619,,,,,,,,,,,,,,162,cengo,,,,,,99.5522,100.8352,0,1,0.7663,,0,42,42,161,1,pseudoword,0,REAL,FALSA
,,,,,,,,,610485a4b72881131d111afd,001,2025-04-30_12h07.34.400,empathy_intonation_perc,2024.1.4,Win32,119.047619,,,,,,,,,,,,,,34,actor,,,,,,100.8358,101.9437,1,0,0.5893,,0,43,43,33,1,two_way_cognate,1,REAL,FALSA
,,,,,,,,,610485a4b72881131d111afd,001,2025-04-30_12h07.34.400,empathy_intonation_perc,2024.1.4,Win32,119.047619,,,,,,,,,,,,,,185,aljizo,,,,,,101.9442,103.0434,0,1,0.5822,,0,44,44,184,1,pseudoword,0,REAL,FALSA
,,,,,,,,,610485a4b72881131d111afd,001,2025-04-30_12h07.34.400,empathy_intonation_perc,2024.1.4,Win32,119.047619,,,,,,,,,,,,,,81,sacar,,,,,,103.0437,104.2016,1,0,0.6379,,0,45,45,80,1,non_cognate,1,REAL,FALSA
,,,,,,,,,610485a4b72881131d111afd,001,2025-04-30_12h07.34.400,empathy_intonation_perc,2024.1.4,Win32,119.047619,,,,,,,,,,,,,,57,regalo,,,,,,104.2023,105.235,1,0,0.5161,,0,46,46,56,1,non_cognate,1,REAL,FALSA
,,,,,,,,,610485a4b72881131d111afd,001,2025-04-30_12h07.34.400,empathy_intonation_perc,2024.1.4,Win32,119.047619,,,,,,,,,,,,,,186,rizate,,,,,,105.2355,106.4934,0,1,0.7411,,0,47,47,185,1,pseudoword,0,REAL,FALSA
,,,,,,,,,610485a4b72881131d111afd,001,2025-04-30_12h07.34.400,empathy_intonation_perc,2024.1.4,Win32,119.047619,,,,,,,,,,,,,,132,nocó,,,,,,106.4938,107.4938,0,1,0.4838,,0,48,48,131,1,pseudoword,0,REAL,FALSA
,,,,,,,,,610485a4b72881131d111afd,001,2025-04-30_12h07.34.400,empathy_intonation_perc,2024.1.4,Win32,119.047619,,,,,,,,,,,,,,168,cobén,,,,,,107.4942,108.4855,0,1,0.4742,,0,49,49,167,1,pseudoword,0,REAL,FALSA
,,,,,,,,,610485a4b72881131d111afd,001,2025-04-30_12h07.34.400,empathy_intonation_perc,2024.1.4,Win32,119.047619,,,,,,,,,,,,,,133,conso,,,,,,108.4859,109.4684,0,1,0.4636,,0,50,50,132,1,pseudoword,0,REAL,FALSA
,,,,,,,,,610485a4b72881131d111afd,001,2025-04-30_12h07.34.400,empathy_intonation_perc,2024.1.4,Win32,119.047619,,,,,,,,,,,,,,119,esís,,,,,,109.4688,110.4932,0,1,0.5069,,0,51,51,118,1,pseudoword,0,REAL,FALSA
,,,,,,,,,610485a4b72881131d111afd,001,2025-04-30_12h07.34.400,empathy_intonation_perc,2024.1.4,Win32,119.047619,,,,,,,,,,,,,,94,forro,,,,,,110.4936,111.6273,1,0,0.618,,0,52,52,93,1,non_cognate,1,REAL,FALSA
,,,,,,,,,610485a4b72881131d111afd,001,2025-04-30_12h07.34.400,empathy_intonation_perc,2024.1.4,Win32,119.047619,,,,,,,,,,,,,,27,piano,,,,,,111.6277,112.6769,1,0,0.5349,,0,53,53,26,1,two_way_cognate,1,REAL,FALSA
,,,,,,,,,610485a4b72881131d111afd,001,2025-04-30_12h07.34.400,empathy_intonation_perc,2024.1.4,Win32,119.047619,,,,,,,,,,,,,,88,percha,,,,,,112.6774,113.8433,0,1,0.647,,0,54,54,87,1,non_cognate,1,REAL,FALSA
,,,,,,,,,610485a4b72881131d111afd,001,2025-04-30_12h07.34.400,empathy_intonation_perc,2024.1.4,Win32,119.047619,,,,,,,,,,,,,,173,mibro,,,,,,113.8436,114.8767,0,1,0.5149,,0,55,55,172,1,pseudoword,0,REAL,FALSA
,,,,,,,,,610485a4b72881131d111afd,001,2025-04-30_12h07.34.400,empathy_intonation_perc,2024.1.4,Win32,119.047619,,,,,,,,,,,,,,52,blando,,,,,,114.877,115.9601,0,1,0.5637,,0,56,56,51,1,non_cognate,1,REAL,FALSA
,,,,,,,,,610485a4b72881131d111afd,001,2025-04-30_12h07.34.400,empathy_intonation_perc,2024.1.4,Win32,119.047619,,,,,,,,,,,,,,33,collar,,,,,,115.9604,117.0598,1,0,0.5805,,0,57,57,32,1,two_way_cognate,1,REAL,FALSA
,,,,,,,,,610485a4b72881131d111afd,001,2025-04-30_12h07.34.400,empathy_intonation_perc,2024.1.4,Win32,119.047619,,,,,,,,,,,,,,107,plago,,,,,,117.0601,118.2017,0,1,0.6223,,0,58,58,106,1,pseudoword,0,REAL,FALSA
,,,,,,,,,610485a4b72881131d111afd,001,2025-04-30_12h07.34.400,empathy_intonation_perc,2024.1.4,Win32,119.047619,,,,,,,,,,,,,,79,suelo,,,,,,118.2021,119.2221,0,1,0.499,,0,59,59,78,1,non_cognate,1,REAL,FALSA
,,,,,,,,,610485a4b72881131d111afd,001,2025-04-30_12h07.34.400,empathy_intonation_perc,2024.1.4,Win32,119.047619,,,,,,,,,,,,,,22,mango,,,,,,119.2227,120.36,1,0,0.6233,,0,60,60,21,1,three_way_cognate,1,REAL,FALSA
,,,,,,,,,610485a4b72881131d111afd,001,2025-04-30_12h07.34.400,empathy_intonation_perc,2024.1.4,Win32,119.047619,,,,,,,,,,,,,,120,mauja,,,,,,120.3605,121.5262,0,1,0.6472,,0,61,61,119,1,pseudoword,0,REAL,FALSA
,,,,,,,,,610485a4b72881131d111afd,001,2025-04-30_12h07.34.400,empathy_intonation_perc,2024.1.4,Win32,119.047619,,,,,,,,,,,,,,125,ceme,,,,,,121.5266,122.4847,0,1,0.438,,0,62,62,124,1,pseudoword,0,REAL,FALSA
,,,,,,,,,610485a4b72881131d111afd,001,2025-04-30_12h07.34.400,empathy_intonation_perc,2024.1.4,Win32,119.047619,,,,,,,,,,,,,,110,densó,,,,,,122.4851,123.4016,0,1,0.3958,,0,63,63,109,1,pseudoword,0,REAL,FALSA
,,,,,,,,,610485a4b72881131d111afd,001,2025-04-30_12h07.34.400,empathy_intonation_perc,2024.1.4,Win32,119.047619,,,,,,,,,,,,,,90,venado,,,,,,123.4019,124.4262,0,1,0.5077,,0,64,64,89,1,non_cognate,1,REAL,FALSA
,,,,,,,,,610485a4b72881131d111afd,001,2025-04-30_12h07.34.400,empathy_intonation_perc,2024.1.4,Win32,119.047619,,,,,,,,,,,,,,166,anfia,,,,,,124.4267,125.4014,0,1,0.4565,,0,65,65,165,1,pseudoword,0,REAL,FALSA
,,,,,,,,,610485a4b72881131d111afd,001,2025-04-30_12h07.34.400,empathy_intonation_perc,2024.1.4,Win32,119.047619,,,,,,,,,,,,,,7,albino,,,,,,125.4018,126.7513,1,0,0.8321,,0,66,66,6,1,three_way_cognate,1,REAL,FALSA
,,,,,,,,,610485a4b72881131d111afd,001,2025-04-30_12h07.34.400,empathy_intonation_perc,2024.1.4,Win32,119.047619,,,,,,,,,,,,,,43,honor,,,,,,126.7518,127.8346,1,0,0.5643,,0,67,67,42,1,two_way_cognate,1,REAL,FALSA
,,,,,,,,,610485a4b72881131d111afd,001,2025-04-30_12h07.34.400,empathy_intonation_perc,2024.1.4,Win32,119.047619,,,,,,,,,,,,,,136,hueas,,,,,,127.8352,128.9513,0,1,0.5986,,0,68,68,135,1,pseudoword,0,REAL,FALSA
,,,,,,,,,610485a4b72881131d111afd,001,2025-04-30_12h07.34.400,empathy_intonation_perc,2024.1.4,Win32,119.047619,,,,,,,,,,,,,,54,tapón,,,,,,128.9517,130.1844,0,1,0.7134,,0,69,69,53,1,non_cognate,1,REAL,FALSA
,,,,,,,,,610485a4b72881131d111afd,001,2025-04-30_12h07.34.400,empathy_intonation_perc,2024.1.4,Win32,119.047619,,,,,,,,,,,,,,68,puñal,,,,,,130.1847,131.1595,0,1,0.4561,,0,70,70,67,1,non_cognate,1,REAL,FALSA
,,,,,,,,,610485a4b72881131d111afd,001,2025-04-30_12h07.34.400,empathy_intonation_perc,2024.1.4,Win32,119.047619,,,,,,,,,,,,,,102,coyo,,,,,,131.1602,132.2183,0,1,0.5421,,0,71,71,101,1,pseudoword,0,REAL,FALSA
,,,,,,,,,610485a4b72881131d111afd,001,2025-04-30_12h07.34.400,empathy_intonation_perc,2024.1.4,Win32,119.047619,,,,,,,,,,,,,,96,caro,,,,,,132.2187,133.4347,1,0,0.7008,,0,72,72,95,1,non_cognate,1,REAL,FALSA
,,,,,,,,,610485a4b72881131d111afd,001,2025-04-30_12h07.34.400,empathy_intonation_perc,2024.1.4,Win32,119.047619,,,,,,,,,,,,,,108,jauda,,,,,,133.435,134.5346,0,1,0.5837,,0,73,73,107,1,pseudoword,0,REAL,FALSA
,,,,,,,,,610485a4b72881131d111afd,001,2025-04-30_12h07.34.400,empathy_intonation_perc,2024.1.4,Win32,119.047619,,,,,,,,,,,,,,165,chote,,,,,,134.5349,135.6927,1,0,0.6398,,0,74,74,164,1,pseudoword,0,REAL,FALSA
,,,,,,,,,610485a4b72881131d111afd,001,2025-04-30_12h07.34.400,empathy_intonation_perc,2024.1.4,Win32,119.047619,,,,,,,,,,,,,,80,cuenco,,,,,,135.6931,137.1761,0,1,0.9633,,0,75,75,79,1,non_cognate,1,REAL,FALSA
,,,,,,,,,610485a4b72881131d111afd,001,2025-04-30_12h07.34.400,empathy_intonation_perc,2024.1.4,Win32,119.047619,,,,,,,,,,,,,,169,pitis,,,,,,137.1764,138.2765,0,1,0.5839,,0,76,76,168,1,pseudoword,0,REAL,FALSA
,,,,,,,,,610485a4b72881131d111afd,001,2025-04-30_12h07.34.400,empathy_intonation_perc,2024.1.4,Win32,119.047619,,,,,,,,,,,,,,69,tiza,,,,,,138.277,139.3432,0,1,0.5478,,0,77,77,68,1,non_cognate,1,REAL,FALSA
,,,,,,,,,610485a4b72881131d111afd,001,2025-04-30_12h07.34.400,empathy_intonation_perc,2024.1.4,Win32,119.047619,,,,,,,,,,,,,,67,llamar,,,,,,139.3435,140.443,1,0,0.5808,,0,78,78,66,1,non_cognate,1,REAL,FALSA
,,,,,,,,,610485a4b72881131d111afd,001,2025-04-30_12h07.34.400,empathy_intonation_perc,2024.1.4,Win32,119.047619,,,,,,,,,,,,,,149,emén,,,,,,140.4434,141.6265,1,0,0.667,,0,79,79,148,1,pseudoword,0,REAL,FALSA
,,,,,,,,,610485a4b72881131d111afd,001,2025-04-30_12h07.34.400,empathy_intonation_perc,2024.1.4,Win32,119.047619,,,,,,,,,,,,,,84,aviso,,,,,,141.627,142.7349,1,0,0.5897,,0,80,80,83,1,non_cognate,1,REAL,FALSA
,,,,,,,,,610485a4b72881131d111afd,001,2025-04-30_12h07.34.400,empathy_intonation_perc,2024.1.4,Win32,119.047619,,,,,,,,,,,,,,128,pelí,,,,,,142.7351,143.9516,0,1,0.6987,,0,81,81,127,1,pseudoword,0,REAL,FALSA
,,,,,,,,,610485a4b72881131d111afd,001,2025-04-30_12h07.34.400,empathy_intonation_perc,2024.1.4,Win32,119.047619,,,,,,,,,,,,,,78,rendir,,,,,,143.9519,145.0933,1,0,0.6262,,0,82,82,77,1,non_cognate,1,REAL,FALSA
,,,,,,,,,610485a4b72881131d111afd,001,2025-04-30_12h07.34.400,empathy_intonation_perc,2024.1.4,Win32,119.047619,,,,,,,,,,,,,,15,test,,,,,,145.0937,146.2013,1,0,0.5964,,0,83,83,14,1,three_way_cognate,1,REAL,FALSA
,,,,,,,,,610485a4b72881131d111afd,001,2025-04-30_12h07.34.400,empathy_intonation_perc,2024.1.4,Win32,119.047619,,,,,,,,,,,,,,190,asumie,,,,,,146.2017,147.6095,0,1,0.8897,,0,84,84,189,1,pseudoword,0,REAL,FALSA
,,,,,,,,,610485a4b72881131d111afd,001,2025-04-30_12h07.34.400,empathy_intonation_perc,2024.1.4,Win32,119.047619,,,,,,,,,,,,,,35,aurora,,,,,,147.6098,148.8014,1,0,0.6747,,0,85,85,34,1,two_way_cognate,1,REAL,FALSA
,,,,,,,,,610485a4b72881131d111afd,001,2025-04-30_12h07.34.400,empathy_intonation_perc,2024.1.4,Win32,119.047619,,,,,,,,,,,,,,160,fomeó,,,,,,148.8019,149.7681,0,1,0.4485,,0,86,86,159,1,pseudoword,0,REAL,FALSA
,,,,,,,,,610485a4b72881131d111afd,001,2025-04-30_12h07.34.400,empathy_intonation_perc,2024.1.4,Win32,119.047619,,,,,,,,,,,,,,176,gripar,,,,,,149.7686,151.2015,1,0,0.9182,,0,87,87,175,1,pseudoword,0,REAL,FALSA
,,,,,,,,,610485a4b72881131d111afd,001,2025-04-30_12h07.34.400,empathy_intonation_perc,2024.1.4,Win32,119.047619,,,,,,,,,,,,,,140,chorde,,,,,,151.2018,152.4845,1,0,0.7637,,0,88,88,139,1,pseudoword,0,REAL,FALSA
,,,,,,,,,610485a4b72881131d111afd,001,2025-04-30_12h07.34.400,empathy_intonation_perc,2024.1.4,Win32,119.047619,,,,,,,,,,,,,,25,vigor,,,,,,152.4848,153.5765,1,0,0.5745,,0,89,89,24,1,two_way_cognate,1,REAL,FALSA
,,,,,,,,,610485a4b72881131d111afd,001,2025-04-30_12h07.34.400,empathy_intonation_perc,2024.1.4,Win32,119.047619,,,,,,,,,,,,,,61,aduana,,,,,,153.577,154.7424,0,1,0.6471,,0,90,90,60,1,non_cognate,1,REAL,FALSA
,,,,,,,,,610485a4b72881131d111afd,001,2025-04-30_12h07.34.400,empathy_intonation_perc,2024.1.4,Win32,119.047619,,,,,,,,,,,,,,60,siglo,,,,,,154.7427,155.7507,0,1,0.4885,,0,91,91,59,1,non_cognate,1,REAL,FALSA
,,,,,,,,,610485a4b72881131d111afd,001,2025-04-30_12h07.34.400,empathy_intonation_perc,2024.1.4,Win32,119.047619,,,,,,,,,,,,,,38,halo,,,,,,155.7511,157.3506,1,0,1.0805,,0,92,92,37,1,two_way_cognate,1,REAL,FALSA
,,,,,,,,,610485a4b72881131d111afd,001,2025-04-30_12h07.34.400,empathy_intonation_perc,2024.1.4,Win32,119.047619,,,,,,,,,,,,,,51,listo,,,,,,157.351,158.734,1,0,0.863,,0,93,93,50,1,non_cognate,1,REAL,FALSA
,,,,,,,,,610485a4b72881131d111afd,001,2025-04-30_12h07.34.400,empathy_intonation_perc,2024.1.4,Win32,119.047619,,,,,,,,,,,,,,192,próces,,,,,,158.7344,159.7339,0,1,0.4801,,0,94,94,191,1,pseudoword,0,REAL,FALSA
,,,,,,,,,610485a4b72881131d111afd,001,2025-04-30_12h07.34.400,empathy_intonation_perc,2024.1.4,Win32,119.047619,,,,,,,,,,,,,,143,hurcos,,,,,,159.7342,160.8208,0,1,0.567,,0,95,95,142,1,pseudoword,0,REAL,FALSA
,,,,,,,,,610485a4b72881131d111afd,001,2025-04-30_12h07.34.400,empathy_intonation_perc,2024.1.4,Win32,119.047619,,,,,,,,,,,,,,151,prías,,,,,,160.8212,161.8673,0,1,0.5333,,0,96,96,150,1,pseudoword,0,REAL,FALSA
,,,,,,,,,610485a4b72881131d111afd,001,2025-04-30_12h07.34.400,empathy_intonation_perc,2024.1.4,Win32,119.047619,,,,,,,,,,,,,,145,rúo,,,,,,161.8676,162.9508,0,1,0.5647,,0,97,97,144,1,pseudoword,0,REAL,FALSA
,,,,,,,,,610485a4b72881131d111afd,001,2025-04-30_12h07.34.400,empathy_intonation_perc,2024.1.4,Win32,119.047619,,,,,,,,,,,,,,6,horror,,,,,,162.9516,164.3171,1,0,0.8461,,0,98,98,5,1,three_way_cognate,1,REAL,FALSA
,,,,,,,,,610485a4b72881131d111afd,001,2025-04-30_12h07.34.400,empathy_intonation_perc,2024.1.4,Win32,119.047619,,,,,,,,,,,,,,189,medium,,,,,,164.3175,165.3671,1,0,0.5308,,0,99,99,188,1,pseudoword,0,REAL,FALSA
,,,,,,,,,610485a4b72881131d111afd,001,2025-04-30_12h07.34.400,empathy_intonation_perc,2024.1.4,Win32,119.047619,,,,,,,,,,,,,,14,aura,,,,,,165.3675,166.6838,1,0,0.7981,,0,100,100,13,1,three_way_cognate,1,REAL,FALSA
,,,,,,,,,610485a4b72881131d111afd,001,2025-04-30_12h07.34.400,empathy_intonation_perc,2024.1.4,Win32,119.047619,,,,,,,,,,,,,,31,civil,,,,,,166.6841,167.7841,1,0,0.5853,,0,101,101,30,1,two_way_cognate,1,REAL,FALSA
,,,,,,,,,610485a4b72881131d111afd,001,2025-04-30_12h07.34.400,empathy_intonation_perc,2024.1.4,Win32,119.047619,,,,,,,,,,,,,,47,color,,,,,,167.7846,168.7671,1,0,0.4647,,0,102,102,46,1,two_way_cognate,1,REAL,FALSA
,,,,,,,,,610485a4b72881131d111afd,001,2025-04-30_12h07.34.400,empathy_intonation_perc,2024.1.4,Win32,119.047619,,,,,,,,,,,,,,8,kilo,,,,,,168.7674,170.0504,1,0,0.7642,,0,103,103,7,1,three_way_cognate,1,REAL,FALSA
,,,,,,,,,610485a4b72881131d111afd,001,2025-04-30_12h07.34.400,empathy_intonation_perc,2024.1.4,Win32,119.047619,,,,,,,,,,,,,,76,chocar,,,,,,170.0508,171.2338,0,1,0.668,,0,104,104,75,1,non_cognate,1,REAL,FALSA
,,,,,,,,,610485a4b72881131d111afd,001,2025-04-30_12h07.34.400,empathy_intonation_perc,2024.1.4,Win32,119.047619,,,,,,,,,,,,,,191,frasis,,,,,,171.2342,172.4336,0,1,0.6835,,0,105,105,190,1,pseudoword,0,REAL,FALSA
,,,,,,,,,610485a4b72881131d111afd,001,2025-04-30_12h07.34.400,empathy_intonation_perc,2024.1.4,Win32,119.047619,,,,,,,,,,,,,,131,fuar,,,,,,172.434,173.5002,0,1,0.5472,,0,106,106,130,1,pseudoword,0,REAL,FALSA
,,,,,,,,,610485a4b72881131d111afd,001,2025-04-30_12h07.34.400,empathy_intonation_perc,2024.1.4,Win32,119.047619,,,,,,,,,,,,,,178,inichó,,,,,,173.5007,174.6173,0,1,0.5982,,0,107,107,177,1,pseudoword,0,REAL,FALSA
,,,,,,,,,610485a4b72881131d111afd,001,2025-04-30_12h07.34.400,empathy_intonation_perc,2024.1.4,Win32,119.047619,,,,,,,,,,,,,,49,teñir,,,,,,174.6177,175.7591,1,0,0.6256,,0,108,108,48,1,non_cognate,1,REAL,FALSA
,,,,,,,,,610485a4b72881131d111afd,001,2025-04-30_12h07.34.400,empathy_intonation_perc,2024.1.4,Win32,119.047619,,,,,,,,,,,,,,28,ardor,,,,,,175.7595,178.1698,1,0,1.7077,9.99999E-05,0,109,109,27,1,two_way_cognate,1,REAL,FALSA
,,,,,,,,,610485a4b72881131d111afd,001,2025-04-30_12h07.34.400,empathy_intonation_perc,2024.1.4,Win32,119.047619,,,,,,,,,,,,,,158,babrá,,,,,,178.1705,179.2595,0,1,0.5663,,0,110,110,157,1,pseudoword,0,REAL,FALSA
,,,,,,,,,610485a4b72881131d111afd,001,2025-04-30_12h07.34.400,empathy_intonation_perc,2024.1.4,Win32,119.047619,,,,,,,,,,,,,,150,cricó,,,,,,179.2603,180.2335,0,1,0.4577,,0,111,111,149,1,pseudoword,0,REAL,FALSA
,,,,,,,,,610485a4b72881131d111afd,001,2025-04-30_12h07.34.400,empathy_intonation_perc,2024.1.4,Win32,119.047619,,,,,,,,,,,,,,3,disco,,,,,,180.2341,181.3002,1,0,0.5474,,0,112,112,2,1,three_way_cognate,1,REAL,FALSA
,,,,,,,,,610485a4b72881131d111afd,001,2025-04-30_12h07.34.400,empathy_intonation_perc,2024.1.4,Win32,119.047619,,,,,,,,,,,,,,111,monue,,,,,,181.3005,182.3169,0,1,0.4966,,0,113,113,110,1,pseudoword,0,REAL,FALSA
,,,,,,,,,610485a4b72881131d111afd,001,2025-04-30_12h07.34.400,empathy_intonation_perc,2024.1.4,Win32,119.047619,,,,,,,,,,,,,,101,losco,,,,,,182.3173,183.4168,0,1,0.5822,,0,114,114,100,1,pseudoword,0,REAL,FALSA
,,,,,,,,,610485a4b72881131d111afd,001,2025-04-30_12h07.34.400,empathy_intonation_perc,2024.1.4,Win32,119.047619,,,,,,,,,,,,,,91,equipo,,,,,,183.4173,184.4753,0,1,0.5389,,0,115,115,90,1,non_cognate,1,REAL,FALSA
,,,,,,,,,610485a4b72881131d111afd,001,2025-04-30_12h07.34.400,empathy_intonation_perc,2024.1.4,Win32,119.047619,,,,,,,,,,,,,,142,parre,,,,,,184.4756,185.6668,0,1,0.6707,,0,116,116,141,1,pseudoword,0,REAL,FALSA
,,,,,,,,,610485a4b72881131d111afd,001,2025-04-30_12h07.34.400,empathy_intonation_perc,2024.1.4,Win32,119.047619,,,,,,,,,,,,,,26,enigma,,,,,,185.6672,187.3252,0,1,1.1367,,0,117,117,25,1,two_way_cognate,1,REAL,FALSA
,,,,,,,,,610485a4b72881131d111afd,001,2025-04-30_12h07.34.400,empathy_intonation_perc,2024.1.4,Win32,119.047619,,,,,,,,,,,,,,139,sasos,,,,,,187.3255,188.4917,0,1,0.6471,,0,118,118,138,1,pseudoword,0,REAL,FALSA
,,,,,,,,,610485a4b72881131d111afd,001,2025-04-30_12h07.34.400,empathy_intonation_perc,2024.1.4,Win32,119.047619,,,,,,,,,,,,,,4,flora,,,,,,188.492,189.5252,1,0,0.516,,0,119,119,3,1,three_way_cognate,1,REAL,FALSA
,,,,,,,,,610485a4b72881131d111afd,001,2025-04-30_12h07.34.400,empathy_intonation_perc,2024.1.4,Win32,119.047619,,,,,,,,,,,,,,37,torso,,,,,,189.5256,190.5999,1,0,0.5563,,0,120,120,36,1,two_way_cognate,1,REAL,FALSA
,,,,,,,,,610485a4b72881131d111afd,001,2025-04-30_12h07.34.400,empathy_intonation_perc,2024.1.4,Win32,119.047619,,,,,,,,,,,,,,40,pelvis,,,,,,190.6004,191.5751,1,0,0.4559,,0,121,121,39,1,two_way_cognate,1,REAL,FALSA
,,,,,,,,,610485a4b72881131d111afd,001,2025-04-30_12h07.34.400,empathy_intonation_perc,2024.1.4,Win32,119.047619,,,,,,,,,,,,,,118,bará,,,,,,191.5755,192.7083,0,1,0.6146,,0,122,122,117,1,pseudoword,0,REAL,FALSA
,,,,,,,,,610485a4b72881131d111afd,001,2025-04-30_12h07.34.400,empathy_intonation_perc,2024.1.4,Win32,119.047619,,,,,,,,,,,,,,83,hálito,,,,,,192.7086,193.7584,1,0,0.5313,,0,123,123,82,1,non_cognate,1,REAL,FALSA
,,,,,,,,,610485a4b72881131d111afd,001,2025-04-30_12h07.34.400,empathy_intonation_perc,2024.1.4,Win32,119.047619,,,,,,,,,,,,,,170,diabo,,,,,,193.7589,194.8668,0,1,0.5897,,0,124,124,169,1,pseudoword,0,REAL,FALSA
,,,,,,,,,610485a4b72881131d111afd,001,2025-04-30_12h07.34.400,empathy_intonation_perc,2024.1.4,Win32,119.047619,,,,,,,,,,,,,,10,drama,,,,,,194.8672,196,1,0,0.6144,,0,125,125,9,1,three_way_cognate,1,REAL,FALSA
,,,,,,,,,610485a4b72881131d111afd,001,2025-04-30_12h07.34.400,empathy_intonation_perc,2024.1.4,Win32,119.047619,,,,,,,,,,,,,,62,pegar,,,,,,196.0003,197.1838,1,0,0.6667,,0,126,126,61,1,non_cognate,1,REAL,FALSA
,,,,,,,,,610485a4b72881131d111afd,001,2025-04-30_12h07.34.400,empathy_intonation_perc,2024.1.4,Win32,119.047619,,,,,,,,,,,,,,156,ozoso,,,,,,197.1844,198.1999,0,1,0.5008,,0,127,127,155,1,pseudoword,0,REAL,FALSA
,,,,,,,,,610485a4b72881131d111afd,001,2025-04-30_12h07.34.400,empathy_intonation_perc,2024.1.4,Win32,119.047619,,,,,,,,,,,,,,58,colcha,,,,,,198.2003,199.2917,0,1,0.5715,,0,128,128,57,1,non_cognate,1,REAL,FALSA
,,,,,,,,,610485a4b72881131d111afd,001,2025-04-30_12h07.34.400,empathy_intonation_perc,2024.1.4,Win32,119.047619,,,,,,,,,,,,,,184,huenos,,,,,,199.2921,200.3917,0,1,0.5842,,0,129,129,183,1,pseudoword,0,REAL,FALSA
,,,,,,,,,610485a4b72881131d111afd,001,2025-04-30_12h07.34.400,empathy_intonation_perc,2024.1.4,Win32,119.047619,,,,,,,,,,,,,,29,clamor,,,,,,200.392,201.8253,0,1,0.9167,,0,130,130,28,1,two_way_cognate,1,REAL,FALSA
,,,,,,,,,610485a4b72881131d111afd,001,2025-04-30_12h07.34.400,empathy_intonation_perc,2024.1.4,Win32,119.047619,,,,,,,,,,,,,,105,peniz,,,,,,201.8257,202.9499,0,1,0.6092,,0,131,131,104,1,pseudoword,0,REAL,FALSA
,,,,,,,,,610485a4b72881131d111afd,001,2025-04-30_12h07.34.400,empathy_intonation_perc,2024.1.4,Win32,119.047619,,,,,,,,,,,,,,46,mortal,,,,,,202.9503,204.0248,1,0,0.5588,,0,132,132,45,1,two_way_cognate,1,REAL,FALSA
,,,,,,,,,610485a4b72881131d111afd,001,2025-04-30_12h07.34.400,empathy_intonation_perc,2024.1.4,Win32,119.047619,,,,,,,,,,,,,,13,plan,,,,,,204.0252,204.9832,1,0,0.4422,,0,133,133,12,1,three_way_cognate,1,REAL,FALSA
,,,,,,,,,610485a4b72881131d111afd,001,2025-04-30_12h07.34.400,empathy_intonation_perc,2024.1.4,Win32,119.047619,,,,,,,,,,,,,,182,desaro,,,,,,204.9836,206.1701,0,1,0.6117,,0,134,134,181,1,pseudoword,0,REAL,FALSA
,,,,,,,,,610485a4b72881131d111afd,001,2025-04-30_12h07.34.400,empathy_intonation_perc,2024.1.4,Win32,119.047619,,,,,,,,,,,,,,20,trauma,,,,,,206.1704,207.267,1,0,0.5815,,0,135,135,19,1,three_way_cognate,1,REAL,FALSA
,,,,,,,,,610485a4b72881131d111afd,001,2025-04-30_12h07.34.400,empathy_intonation_perc,2024.1.4,Win32,119.047619,,,,,,,,,,,,,,50,sierra,,,,,,207.2674,208.4996,1,0,0.7159,,0,136,136,49,1,non_cognate,1,REAL,FALSA
,,,,,,,,,610485a4b72881131d111afd,001,2025-04-30_12h07.34.400,empathy_intonation_perc,2024.1.4,Win32,119.047619,,,,,,,,,,,,,,135,panté,,,,,,208.5001,209.7496,0,1,0.7315,,0,137,137,134,1,pseudoword,0,REAL,FALSA
,,,,,,,,,610485a4b72881131d111afd,001,2025-04-30_12h07.34.400,empathy_intonation_perc,2024.1.4,Win32,119.047619,,,,,,,,,,,,,,9,portal,,,,,,209.7503,210.8412,1,0,0.5725,,0,138,138,8,1,three_way_cognate,1,REAL,FALSA
,,,,,,,,,610485a4b72881131d111afd,001,2025-04-30_12h07.34.400,empathy_intonation_perc,2024.1.4,Win32,119.047619,,,,,,,,,,,,,,36,viable,,,,,,210.8417,211.9247,1,0,0.5641,,0,139,139,35,1,two_way_cognate,1,REAL,FALSA
,,,,,,,,,610485a4b72881131d111afd,001,2025-04-30_12h07.34.400,empathy_intonation_perc,2024.1.4,Win32,119.047619,,,,,,,,,,,,,,115,lidena,,,,,,211.925,213.0914,0,1,0.6467,,0,140,140,114,1,pseudoword,0,REAL,FALSA
,,,,,,,,,610485a4b72881131d111afd,001,2025-04-30_12h07.34.400,empathy_intonation_perc,2024.1.4,Win32,119.047619,,,,,,,,,,,,,,147,alla,,,,,,213.092,214.5328,1,0,0.9238,,0,141,141,146,1,pseudoword,0,REAL,FALSA
,,,,,,,,,610485a4b72881131d111afd,001,2025-04-30_12h07.34.400,empathy_intonation_perc,2024.1.4,Win32,119.047619,,,,,,,,,,,,,,112,samón,,,,,,214.5332,215.5997,0,1,0.5463,,0,142,142,111,1,pseudoword,0,REAL,FALSA
,,,,,,,,,610485a4b72881131d111afd,001,2025-04-30_12h07.34.400,empathy_intonation_perc,2024.1.4,Win32,119.047619,,,,,,,,,,,,,,97,nocita,,,,,,215.6001,216.6327,0,1,0.5134,,0,143,143,96,1,pseudoword,0,REAL,FALSA
,,,,,,,,,610485a4b72881131d111afd,001,2025-04-30_12h07.34.400,empathy_intonation_perc,2024.1.4,Win32,119.047619,,,,,,,,,,,,,,177,entodo,,,,,,216.6333,217.6744,0,1,0.5227,,0,144,144,176,1,pseudoword,0,REAL,FALSA
,,,,,,,,,610485a4b72881131d111afd,001,2025-04-30_12h07.34.400,empathy_intonation_perc,2024.1.4,Win32,119.047619,,,,,,,,,,,,,,146,gió,,,,,,217.6748,218.7662,0,1,0.5727,,0,145,145,145,1,pseudoword,0,REAL,FALSA
,,,,,,,,,610485a4b72881131d111afd,001,2025-04-30_12h07.34.400,empathy_intonation_perc,2024.1.4,Win32,119.047619,,,,,,,,,,,,,,17,clan,,,,,,218.7665,219.9244,0,1,0.642,,0,146,146,16,1,three_way_cognate,1,REAL,FALSA
,,,,,,,,,610485a4b72881131d111afd,001,2025-04-30_12h07.34.400,empathy_intonation_perc,2024.1.4,Win32,119.047619,,,,,,,,,,,,,,179,suelet,,,,,,219.9249,221.0494,0,1,0.6056,,0,147,147,178,1,pseudoword,0,REAL,FALSA
,,,,,,,,,610485a4b72881131d111afd,001,2025-04-30_12h07.34.400,empathy_intonation_perc,2024.1.4,Win32,119.047619,,,,,,,,,,,,,,159,trcia,,,,,,221.0498,222.0077,0,1,0.4392,,0,148,148,158,1,pseudoword,0,REAL,FALSA
,,,,,,,,,610485a4b72881131d111afd,001,2025-04-30_12h07.34.400,empathy_intonation_perc,2024.1.4,Win32,119.047619,,,,,,,,,,,,,,16,chat,,,,,,222.0081,223.0492,1,0,0.5243,,0,149,149,15,1,three_way_cognate,1,REAL,FALSA
,,,,,,,,,610485a4b72881131d111afd,001,2025-04-30_12h07.34.400,empathy_intonation_perc,2024.1.4,Win32,119.047619,,,,,,,,,,,,,,64,rizado,,,,,,223.0501,224.2661,1,0,0.6981,,0,150,150,63,1,non_cognate,1,REAL,FALSA
,,,,,,,,,610485a4b72881131d111afd,001,2025-04-30_12h07.34.400,empathy_intonation_perc,2024.1.4,Win32,119.047619,,,,,,,,,,,,,,44,editor,,,,,,224.2665,225.2744,1,0,0.4897,,0,151,151,43,1,two_way_cognate,1,REAL,FALSA
,,,,,,,,,610485a4b72881131d111afd,001,2025-04-30_12h07.34.400,empathy_intonation_perc,2024.1.4,Win32,119.047619,,,,,,,,,,,,,,65,guerra,,,,,,225.2747,226.6576,1,0,0.867,,0,152,152,64,1,non_cognate,1,REAL,FALSA
,,,,,,,,,610485a4b72881131d111afd,001,2025-04-30_12h07.34.400,empathy_intonation_perc,2024.1.4,Win32,119.047619,,,,,,,,,,,,,,154,harvé,,,,,,226.6581,227.8576,0,1,0.6851,,0,153,153,153,1,pseudoword,0,REAL,FALSA
,,,,,,,,,610485a4b72881131d111afd,001,2025-04-30_12h07.34.400,empathy_intonation_perc,2024.1.4,Win32,119.047619,,,,,,,,,,,,,,30,fiscal,,,,,,227.8581,228.892,0,1,0.5172,,0,154,154,29,1,two_way_cognate,1,REAL,FALSA
,,,,,,,,,610485a4b72881131d111afd,001,2025-04-30_12h07.34.400,empathy_intonation_perc,2024.1.4,Win32,119.047619,,,,,,,,,,,,,,23,plural,,,,,,228.8925,229.8492,1,0,0.4427,,0,155,155,22,1,three_way_cognate,1,REAL,FALSA
,,,,,,,,,610485a4b72881131d111afd,001,2025-04-30_12h07.34.400,empathy_intonation_perc,2024.1.4,Win32,119.047619,,,,,,,,,,,,,,59,feo,,,,,,229.8496,231.0497,1,0,0.6858,,0,156,156,58,1,non_cognate,1,REAL,FALSA
,,,,,,,,,610485a4b72881131d111afd,001,2025-04-30_12h07.34.400,empathy_intonation_perc,2024.1.4,Win32,119.047619,,,,,,,,,,,,,,167,dobbo,,,,,,231.0501,232.2657,0,1,0.6956,,0,157,157,166,1,pseudoword,0,REAL,FALSA
,,,,,,,,,610485a4b72881131d111afd,001,2025-04-30_12h07.34.400,empathy_intonation_perc,2024.1.4,Win32,119.047619,,,,,,,,,,,,,,104,estulo,,,,,,232.2662,233.4074,0,1,0.6219,,0,158,158,103,1,pseudoword,0,REAL,FALSA
,,,,,,,,,610485a4b72881131d111afd,001,2025-04-30_12h07.34.400,empathy_intonation_perc,2024.1.4,Win32,119.047619,,,,,,,,,,,,,,89,muñeca,,,,,,233.4079,234.4157,0,1,0.4927,,0,159,159,88,1,non_cognate,1,REAL,FALSA
,,,,,,,,,610485a4b72881131d111afd,001,2025-04-30_12h07.34.400,empathy_intonation_perc,2024.1.4,Win32,119.047619,,,,,,,,,,,,,,109,laras,,,,,,234.4162,235.8907,0,1,0.9489,,0,160,160,108,1,pseudoword,0,REAL,FALSA
,,,,,,,,,610485a4b72881131d111afd,001,2025-04-30_12h07.34.400,empathy_intonation_perc,2024.1.4,Win32,119.047619,,,,,,,,,,,,,,114,dibrea,,,,,,235.8912,237.0324,0,1,0.6218,,0,161,161,113,1,pseudoword,0,REAL,FALSA
,,,,,,,,,610485a4b72881131d111afd,001,2025-04-30_12h07.34.400,empathy_intonation_perc,2024.1.4,Win32,119.047619,,,,,,,,,,,,,,71,torta,,,,,,237.0327,238.1658,1,0,0.6184,,0,162,162,70,1,non_cognate,1,REAL,FALSA
,,,,,,,,,610485a4b72881131d111afd,001,2025-04-30_12h07.34.400,empathy_intonation_perc,2024.1.4,Win32,119.047619,,,,,,,,,,,,,,180,pupica,,,,,,238.1662,239.4074,0,1,0.7218,,0,163,163,179,1,pseudoword,0,REAL,FALSA
,,,,,,,,,610485a4b72881131d111afd,001,2025-04-30_12h07.34.400,empathy_intonation_perc,2024.1.4,Win32,119.047619,,,,,,,,,,,,,,53,punta,,,,,,239.4078,240.5074,1,0,0.5828,,0,164,164,52,1,non_cognate,1,REAL,FALSA
,,,,,,,,,610485a4b72881131d111afd,001,2025-04-30_12h07.34.400,empathy_intonation_perc,2024.1.4,Win32,119.047619,,,,,,,,,,,,,,18,altar,,,,,,240.5078,241.5322,1,0,0.5067,,0,165,165,17,1,three_way_cognate,1,REAL,FALSA
,,,,,,,,,610485a4b72881131d111afd,001,2025-04-30_12h07.34.400,empathy_intonation_perc,2024.1.4,Win32,119.047619,,,,,,,,,,,,,,103,vueras,,,,,,241.5326,242.5739,0,1,0.5237,,0,166,166,102,1,pseudoword,0,REAL,FALSA
,,,,,,,,,610485a4b72881131d111afd,001,2025-04-30_12h07.34.400,empathy_intonation_perc,2024.1.4,Win32,119.047619,,,,,,,,,,,,,,93,tapa,,,,,,242.5744,244.0655,1,0,0.9726,,0,167,167,92,1,non_cognate,1,REAL,FALSA
,,,,,,,,,610485a4b72881131d111afd,001,2025-04-30_12h07.34.400,empathy_intonation_perc,2024.1.4,Win32,119.047619,,,,,,,,,,,,,,19,mafia,,,,,,244.066,245.1604,1,0,0.571,,0,168,168,18,1,three_way_cognate,1,REAL,FALSA
,,,,,,,,,610485a4b72881131d111afd,001,2025-04-30_12h07.34.400,empathy_intonation_perc,2024.1.4,Win32,119.047619,,,,,,,,,,,,,,2,tumor,,,,,,245.1607,246.0908,1,0,0.4169,,0,169,169,1,1,three_way_cognate,1,REAL,FALSA
,,,,,,,,,610485a4b72881131d111afd,001,2025-04-30_12h07.34.400,empathy_intonation_perc,2024.1.4,Win32,119.047619,,,,,,,,,,,,,,129,vinzó,,,,,,246.0919,247.2488,0,1,0.6406,,0,170,170,128,1,pseudoword,0,REAL,FALSA
,,,,,,,,,610485a4b72881131d111afd,001,2025-04-30_12h07.34.400,empathy_intonation_perc,2024.1.4,Win32,119.047619,,,,,,,,,,,,,,113,nasce,,,,,,247.2492,248.2489,0,1,0.4831,,0,171,171,112,1,pseudoword,0,REAL,FALSA
,,,,,,,,,610485a4b72881131d111afd,001,2025-04-30_12h07.34.400,empathy_intonation_perc,2024.1.4,Win32,119.047619,,,,,,,,,,,,,,183,edioso,,,,,,248.2495,249.4072,0,1,0.6381,,0,172,172,182,1,pseudoword,0,REAL,FALSA
,,,,,,,,,610485a4b72881131d111afd,001,2025-04-30_12h07.34.400,empathy_intonation_perc,2024.1.4,Win32,119.047619,,,,,,,,,,,,,,63,hilo,,,,,,249.4074,250.4821,1,0,0.5552,,0,173,173,62,1,non_cognate,1,REAL,FALSA
,,,,,,,,,610485a4b72881131d111afd,001,2025-04-30_12h07.34.400,empathy_intonation_perc,2024.1.4,Win32,119.047619,,,,,,,,,,,,,,99,bugor,,,,,,250.4826,251.7239,0,1,0.7251,,0,174,174,98,1,pseudoword,0,REAL,FALSA
,,,,,,,,,610485a4b72881131d111afd,001,2025-04-30_12h07.34.400,empathy_intonation_perc,2024.1.4,Win32,119.047619,,,,,,,,,,,,,,161,civas,,,,,,251.7243,252.7572,0,1,0.5152,,0,175,175,160,1,pseudoword,0,REAL,FALSA
,,,,,,,,,610485a4b72881131d111afd,001,2025-04-30_12h07.34.400,empathy_intonation_perc,2024.1.4,Win32,119.047619,,,,,,,,,,,,,,98,martir,,,,,,252.7578,253.9486,0,1,0.6753,,0,176,176,97,1,pseudoword,0,REAL,FALSA
,,,,,,,,,610485a4b72881131d111afd,001,2025-04-30_12h07.34.400,empathy_intonation_perc,2024.1.4,Win32,119.047619,,,,,,,,,,,,,,95,listo,,,,,,253.949,255.0155,1,0,0.5499,,0,177,177,94,1,non_cognate,1,REAL,FALSA
,,,,,,,,,610485a4b72881131d111afd,001,2025-04-30_12h07.34.400,empathy_intonation_perc,2024.1.4,Win32,119.047619,,,,,,,,,,,,,,5,extra,,,,,,255.016,256.0237,1,0,0.4884,,0,178,178,4,1,three_way_cognate,1,REAL,FALSA
,,,,,,,,,610485a4b72881131d111afd,001,2025-04-30_12h07.34.400,empathy_intonation_perc,2024.1.4,Win32,119.047619,,,,,,,,,,,,,,164,tecia,,,,,,256.0241,257.1403,0,1,0.5976,,0,179,179,163,1,pseudoword,0,REAL,FALSA
,,,,,,,,,610485a4b72881131d111afd,001,2025-04-30_12h07.34.400,empathy_intonation_perc,2024.1.4,Win32,119.047619,,,,,,,,,,,,,,92,flecha,,,,,,257.1407,258.4487,0,1,0.7905,,0,180,180,91,1,non_cognate,1,REAL,FALSA
,,,,,,,,,610485a4b72881131d111afd,001,2025-04-30_12h07.34.400,empathy_intonation_perc,2024.1.4,Win32,119.047619,,,,,,,,,,,,,,56,pico,,,,,,258.4492,259.4402,0,1,0.4721,,0,181,181,55,1,non_cognate,1,REAL,FALSA
,,,,,,,,,610485a4b72881131d111afd,001,2025-04-30_12h07.34.400,empathy_intonation_perc,2024.1.4,Win32,119.047619,,,,,,,,,,,,,,188,amplir,,,,,,259.4406,260.9986,1,0,1.0394,,0,182,182,187,1,pseudoword,0,REAL,FALSA
,,,,,,,,,610485a4b72881131d111afd,001,2025-04-30_12h07.34.400,empathy_intonation_perc,2024.1.4,Win32,119.047619,,,,,,,,,,,,,,137,trugo,,,,,,260.9991,262.1652,0,1,0.6462,,0,183,183,136,1,pseudoword,0,REAL,FALSA
,,,,,,,,,610485a4b72881131d111afd,001,2025-04-30_12h07.34.400,empathy_intonation_perc,2024.1.4,Win32,119.047619,,,,,,,,,,,,,,172,dogue,,,,,,262.1656,263.2484,0,1,0.5642,,0,184,184,171,1,pseudoword,0,REAL,FALSA
,,,,,,,,,610485a4b72881131d111afd,001,2025-04-30_12h07.34.400,empathy_intonation_perc,2024.1.4,Win32,119.047619,,,,,,,,,,,,,,74,ala,,,,,,263.2488,264.3818,0,1,0.614,,0,185,185,73,1,non_cognate,1,REAL,FALSA
,,,,,,,,,610485a4b72881131d111afd,001,2025-04-30_12h07.34.400,empathy_intonation_perc,2024.1.4,Win32,119.047619,,,,,,,,,,,,,,39,casual,,,,,,264.3823,265.4735,1,0,0.5715,,0,186,186,38,1,two_way_cognate,1,REAL,FALSA
,,,,,,,,,610485a4b72881131d111afd,001,2025-04-30_12h07.34.400,empathy_intonation_perc,2024.1.4,Win32,119.047619,,,,,,,,,,,,,,157,seled,,,,,,265.4739,266.5652,0,1,0.5716,,0,187,187,156,1,pseudoword,0,REAL,FALSA
,,,,,,,,,610485a4b72881131d111afd,001,2025-04-30_12h07.34.400,empathy_intonation_perc,2024.1.4,Win32,119.047619,,,,,,,,,,,,,,55,maldad,,,,,,266.5656,267.8236,0,1,0.7373,,0,188,188,54,1,non_cognate,1,REAL,FALSA
,,,,,,,,,610485a4b72881131d111afd,001,2025-04-30_12h07.34.400,empathy_intonation_perc,2024.1.4,Win32,119.047619,,,,,,,,,,,,,,171,gotro,,,,,,267.8239,268.9236,0,1,0.5837,,0,189,189,170,1,pseudoword,0,REAL,FALSA
,,,,,,,,,610485a4b72881131d111afd,001,2025-04-30_12h07.34.400,empathy_intonation_perc,2024.1.4,Win32,119.047619,,,,,,,,,,,,,,45,total,,,,,,268.9242,270.0567,1,0,0.6139,,0,190,190,44,1,two_way_cognate,1,REAL,FALSA
,,,,,,,,,610485a4b72881131d111afd,001,2025-04-30_12h07.34.400,empathy_intonation_perc,2024.1.4,Win32,119.047619,,,,,,,,,,,,,,116,grigir,,,,,,270.0572,271.5071,0,1,0.935,,0,191,191,115,1,pseudoword,0,REAL,FALSA
