lextale_instructions.started,lextale_instructions.stopped,lextale_instructions_loop.thisRepN,lextale_instructions_loop.thisTrialN,lextale_instructions_loop.thisN,lextale_instructions_loop.thisIndex,lextale_instructions_loop.ran,instructions_text,continue_text,participant,session,date,expName,psychopyVersion,OS,frameRate,lextale_practice.started,lextale_practice.stopped,key_resp_lextale_practice.keys,key_resp_lextale_practice.corr,key_resp_lextale_practice.rt,key_resp_lextale_practice.duration,lextale_practice_feedback.started,lextale_practice_feedback.stopped,lextale_practice_trials.thisRepN,lextale_practice_trials.thisTrialN,lextale_practice_trials.thisN,lextale_practice_trials.thisIndex,lextale_practice_trials.ran,stim,word,correct_response,prac_button_real,prac_button_false,lextale_check.started,lextale_check.stopped,lextale_trial.started,lextale_trial.stopped,key_resp_lextale_trial.keys,key_resp_lextale_trial.corr,key_resp_lextale_trial.rt,key_resp_lextale_trial.duration,lextail_trials.thisRepN,lextail_trials.thisTrialN,lextail_trials.thisN,lextail_trials.thisIndex,lextail_trials.ran,type,correct_reponse,button_real,button_false
0.002,13.837,0,0,0,0,1,"Este es un test de vocabulario en español. 
  
  A continuación vas a ver 90 secuencias de letras que parecen 'españolas'.
  
  Solo algunas de ellas son palabras de verdad.",(presiona la barra espaciadora para continuar),613914cbb1f633800a5b53d1,001,2025-04-30_23h36.01.783,empathy_intonation_perc,2024.1.4,MacIntel,166.6666667,,,,,,,,,,,,,,,,,,,,,,,,,,,,,,,,,,,
13.838,26.221,0,1,1,1,1,"Por favor, señala las palabras que tú conoces (aquellas que estás convencido que son palabras españolas, incluso aunque no seas capaz de dar el significado preciso).",(presiona la barra espaciadora para continuar),613914cbb1f633800a5b53d1,001,2025-04-30_23h36.01.783,empathy_intonation_perc,2024.1.4,MacIntel,166.6666667,,,,,,,,,,,,,,,,,,,,,,,,,,,,,,,,,,,
26.222,47.871,0,2,2,2,1,Pero cuidado: los errores se penalizan. Por eso no tiene sentido tratar de incrementar tu puntuación marcando como reales palabras que nunca has visto.,(presiona la barra espaciadora para continuar),613914cbb1f633800a5b53d1,001,2025-04-30_23h36.01.783,empathy_intonation_perc,2024.1.4,MacIntel,166.6666667,,,,,,,,,,,,,,,,,,,,,,,,,,,,,,,,,,,
47.873,55.454,0,3,3,3,1,"Presiona la tecla 1 si piensas que es una palabra real y la tecla 
  0 si piensas que es una palabra falsa. 
  
  Vamos a practicar un poco...",(presiona la barra espaciadora para continuar),613914cbb1f633800a5b53d1,001,2025-04-30_23h36.01.783,empathy_intonation_perc,2024.1.4,MacIntel,166.6666667,,,,,,,,,,,,,,,,,,,,,,,,,,,,,,,,,,,
,,,,,,,,,613914cbb1f633800a5b53d1,001,2025-04-30_23h36.01.783,empathy_intonation_perc,2024.1.4,MacIntel,166.6666667,55.462,59.389,1,0,3.403,,59.389,60.389,0,0,0,0,1,0,depiste,0,REAL,FALSA,,,,,,,,,,,,,,,,,
,,,,,,,,,613914cbb1f633800a5b53d1,001,2025-04-30_23h36.01.783,empathy_intonation_perc,2024.1.4,MacIntel,166.6666667,60.39,63.438,0,0,2.512,,63.438,64.438,0,1,1,1,1,0,sí,1,REAL,FALSA,,,,,,,,,,,,,,,,,
,,,,,,,,,613914cbb1f633800a5b53d1,001,2025-04-30_23h36.01.783,empathy_intonation_perc,2024.1.4,MacIntel,166.6666667,64.439,67.039,0,1,2.059,,67.039,68.038,0,2,2,2,1,0,coné,0,REAL,FALSA,,,,,,,,,,,,,,,,,
,,,,,,,,,613914cbb1f633800a5b53d1,001,2025-04-30_23h36.01.783,empathy_intonation_perc,2024.1.4,MacIntel,166.6666667,68.04,69.655,1,0,1.078,,69.655,70.655,0,3,3,3,1,0,calpar,0,REAL,FALSA,,,,,,,,,,,,,,,,,
,,,,,,,,,613914cbb1f633800a5b53d1,001,2025-04-30_23h36.01.783,empathy_intonation_perc,2024.1.4,MacIntel,166.6666667,70.656,72.987,0,1,1.794,,72.988,73.988,0,4,4,4,1,0,joten,0,REAL,FALSA,,,,,,,,,,,,,,,,,
,,,,,,,,,613914cbb1f633800a5b53d1,001,2025-04-30_23h36.01.783,empathy_intonation_perc,2024.1.4,MacIntel,166.6666667,73.989,75.755,0,0,1.232,,75.755,76.755,0,5,5,5,1,0,sacapuntas,1,REAL,FALSA,,,,,,,,,,,,,,,,,
,,,,,,,,,613914cbb1f633800a5b53d1,001,2025-04-30_23h36.01.783,empathy_intonation_perc,2024.1.4,MacIntel,166.6666667,76.756,78.488,0,1,1.195,,78.488,79.488,0,6,6,6,1,0,priba,0,REAL,FALSA,,,,,,,,,,,,,,,,,
,,,,,,,,,613914cbb1f633800a5b53d1,001,2025-04-30_23h36.01.783,empathy_intonation_perc,2024.1.4,MacIntel,166.6666667,79.489,81.122,1,0,1.093,,81.122,82.122,0,7,7,7,1,0,pelasula,0,REAL,FALSA,,,,,,,,,,,,,,,,,
,,,,,,,,,613914cbb1f633800a5b53d1,001,2025-04-30_23h36.01.783,empathy_intonation_perc,2024.1.4,MacIntel,166.6666667,82.123,83.639,1,1,0.977,,83.639,84.639,0,8,8,8,1,0,bien,1,REAL,FALSA,,,,,,,,,,,,,,,,,
,,,,,,,,,613914cbb1f633800a5b53d1,001,2025-04-30_23h36.01.783,empathy_intonation_perc,2024.1.4,MacIntel,166.6666667,84.64,86.255,1,1,1.085,,86.255,87.255,0,9,9,9,1,0,casa,1,REAL,FALSA,,,,,,,,,,,,,,,,,
,,,,,,,,,613914cbb1f633800a5b53d1,001,2025-04-30_23h36.01.783,empathy_intonation_perc,2024.1.4,MacIntel,166.6666667,87.256,88.622,1,0,0.83,,88.622,89.622,0,10,10,10,1,0,lejo,0,REAL,FALSA,,,,,,,,,,,,,,,,,
,,,,,,,,,613914cbb1f633800a5b53d1,001,2025-04-30_23h36.01.783,empathy_intonation_perc,2024.1.4,MacIntel,166.6666667,89.623,91.839,1,0,1.683,,91.839,92.839,0,11,11,11,1,0,pretantas,0,REAL,FALSA,,,,,,,,,,,,,,,,,
,,,,,,,,,613914cbb1f633800a5b53d1,001,2025-04-30_23h36.01.783,empathy_intonation_perc,2024.1.4,MacIntel,166.6666667,,,,,,,,,,,,,,,,,,,92.84,97.223,,,,,,,,,,,,,,,
,,,,,,,,,613914cbb1f633800a5b53d1,001,2025-04-30_23h36.01.783,empathy_intonation_perc,2024.1.4,MacIntel,166.6666667,,,,,,,,,,,,,,44,editor,,,,,,97.234,99.406,1,0,1.642,,0,0,0,43,1,two_way_cognate,1,REAL,FALSA
,,,,,,,,,613914cbb1f633800a5b53d1,001,2025-04-30_23h36.01.783,empathy_intonation_perc,2024.1.4,MacIntel,166.6666667,,,,,,,,,,,,,,23,plural,,,,,,99.407,101.273,1,0,1.33,,0,1,1,22,1,three_way_cognate,1,REAL,FALSA
,,,,,,,,,613914cbb1f633800a5b53d1,001,2025-04-30_23h36.01.783,empathy_intonation_perc,2024.1.4,MacIntel,166.6666667,,,,,,,,,,,,,,16,chat,,,,,,101.273,104.039,1,0,2.233,,0,2,2,15,1,three_way_cognate,1,REAL,FALSA
,,,,,,,,,613914cbb1f633800a5b53d1,001,2025-04-30_23h36.01.783,empathy_intonation_perc,2024.1.4,MacIntel,166.6666667,,,,,,,,,,,,,,126,tobre,,,,,,104.04,106.523,0,1,1.946,,0,3,3,125,1,pseudoword,0,REAL,FALSA
,,,,,,,,,613914cbb1f633800a5b53d1,001,2025-04-30_23h36.01.783,empathy_intonation_perc,2024.1.4,MacIntel,166.6666667,,,,,,,,,,,,,,94,forro,,,,,,106.524,108.373,0,1,1.312,,0,4,4,93,1,non_cognate,1,REAL,FALSA
,,,,,,,,,613914cbb1f633800a5b53d1,001,2025-04-30_23h36.01.783,empathy_intonation_perc,2024.1.4,MacIntel,166.6666667,,,,,,,,,,,,,,121,barbs,,,,,,108.374,109.94,0,1,1.027,,0,5,5,120,1,pseudoword,0,REAL,FALSA
,,,,,,,,,613914cbb1f633800a5b53d1,001,2025-04-30_23h36.01.783,empathy_intonation_perc,2024.1.4,MacIntel,166.6666667,,,,,,,,,,,,,,70,ánimo,,,,,,109.941,111.356,1,0,0.877,,0,6,6,69,1,non_cognate,1,REAL,FALSA
,,,,,,,,,613914cbb1f633800a5b53d1,001,2025-04-30_23h36.01.783,empathy_intonation_perc,2024.1.4,MacIntel,166.6666667,,,,,,,,,,,,,,109,laras,,,,,,111.357,113.322,1,0,1.428,,0,7,7,108,1,pseudoword,0,REAL,FALSA
,,,,,,,,,613914cbb1f633800a5b53d1,001,2025-04-30_23h36.01.783,empathy_intonation_perc,2024.1.4,MacIntel,166.6666667,,,,,,,,,,,,,,120,mauja,,,,,,113.323,115.556,1,0,1.693,,0,8,8,119,1,pseudoword,0,REAL,FALSA
,,,,,,,,,613914cbb1f633800a5b53d1,001,2025-04-30_23h36.01.783,empathy_intonation_perc,2024.1.4,MacIntel,166.6666667,,,,,,,,,,,,,,100,épinas,,,,,,115.557,117.639,1,0,1.544,,0,9,9,99,1,pseudoword,0,REAL,FALSA
,,,,,,,,,613914cbb1f633800a5b53d1,001,2025-04-30_23h36.01.783,empathy_intonation_perc,2024.1.4,MacIntel,166.6666667,,,,,,,,,,,,,,182,desaro,,,,,,117.64,119.356,1,0,1.178,,0,10,10,181,1,pseudoword,0,REAL,FALSA
,,,,,,,,,613914cbb1f633800a5b53d1,001,2025-04-30_23h36.01.783,empathy_intonation_perc,2024.1.4,MacIntel,166.6666667,,,,,,,,,,,,,,113,nasce,,,,,,119.357,121.023,1,0,1.128,,0,11,11,112,1,pseudoword,0,REAL,FALSA
,,,,,,,,,613914cbb1f633800a5b53d1,001,2025-04-30_23h36.01.783,empathy_intonation_perc,2024.1.4,MacIntel,166.6666667,,,,,,,,,,,,,,48,pelvis,,,,,,121.024,122.84,1,0,1.295,,0,12,12,47,1,two_way_cognate,1,REAL,FALSA
,,,,,,,,,613914cbb1f633800a5b53d1,001,2025-04-30_23h36.01.783,empathy_intonation_perc,2024.1.4,MacIntel,166.6666667,,,,,,,,,,,,,,189,medium,,,,,,122.84,124.806,0,1,1.429,,0,13,13,188,1,pseudoword,0,REAL,FALSA
,,,,,,,,,613914cbb1f633800a5b53d1,001,2025-04-30_23h36.01.783,empathy_intonation_perc,2024.1.4,MacIntel,166.6666667,,,,,,,,,,,,,,57,regalo,,,,,,124.807,126.29,1,0,0.944,,0,14,14,56,1,non_cognate,1,REAL,FALSA
,,,,,,,,,613914cbb1f633800a5b53d1,001,2025-04-30_23h36.01.783,empathy_intonation_perc,2024.1.4,MacIntel,166.6666667,,,,,,,,,,,,,,188,amplir,,,,,,126.29,127.656,1,0,0.85,,0,15,15,187,1,pseudoword,0,REAL,FALSA
,,,,,,,,,613914cbb1f633800a5b53d1,001,2025-04-30_23h36.01.783,empathy_intonation_perc,2024.1.4,MacIntel,166.6666667,,,,,,,,,,,,,,135,panté,,,,,,127.657,129.172,0,1,0.977,,0,16,16,134,1,pseudoword,0,REAL,FALSA
,,,,,,,,,613914cbb1f633800a5b53d1,001,2025-04-30_23h36.01.783,empathy_intonation_perc,2024.1.4,MacIntel,166.6666667,,,,,,,,,,,,,,151,prías,,,,,,129.173,130.607,1,0,0.912,,0,17,17,150,1,pseudoword,0,REAL,FALSA
,,,,,,,,,613914cbb1f633800a5b53d1,001,2025-04-30_23h36.01.783,empathy_intonation_perc,2024.1.4,MacIntel,166.6666667,,,,,,,,,,,,,,132,nocó,,,,,,130.607,132.723,0,1,1.577,,0,18,18,131,1,pseudoword,0,REAL,FALSA
,,,,,,,,,613914cbb1f633800a5b53d1,001,2025-04-30_23h36.01.783,empathy_intonation_perc,2024.1.4,MacIntel,166.6666667,,,,,,,,,,,,,,33,collar,,,,,,132.724,134.323,1,0,1.062,,0,19,19,32,1,two_way_cognate,1,REAL,FALSA
,,,,,,,,,613914cbb1f633800a5b53d1,001,2025-04-30_23h36.01.783,empathy_intonation_perc,2024.1.4,MacIntel,166.6666667,,,,,,,,,,,,,,156,ozoso,,,,,,134.324,136.073,0,1,1.212,,0,20,20,155,1,pseudoword,0,REAL,FALSA
,,,,,,,,,613914cbb1f633800a5b53d1,001,2025-04-30_23h36.01.783,empathy_intonation_perc,2024.1.4,MacIntel,166.6666667,,,,,,,,,,,,,,42,rumor,,,,,,136.074,137.44,1,0,0.835,,0,21,21,41,1,two_way_cognate,1,REAL,FALSA
,,,,,,,,,613914cbb1f633800a5b53d1,001,2025-04-30_23h36.01.783,empathy_intonation_perc,2024.1.4,MacIntel,166.6666667,,,,,,,,,,,,,,170,diabo,,,,,,137.441,139.157,0,1,1.179,,0,22,22,169,1,pseudoword,0,REAL,FALSA
,,,,,,,,,613914cbb1f633800a5b53d1,001,2025-04-30_23h36.01.783,empathy_intonation_perc,2024.1.4,MacIntel,166.6666667,,,,,,,,,,,,,,103,vueras,,,,,,139.157,141.773,1,0,2.082,,0,23,23,102,1,pseudoword,0,REAL,FALSA
,,,,,,,,,613914cbb1f633800a5b53d1,001,2025-04-30_23h36.01.783,empathy_intonation_perc,2024.1.4,MacIntel,166.6666667,,,,,,,,,,,,,,185,aljizo,,,,,,141.774,144.507,1,0,2.2,,0,24,24,184,1,pseudoword,0,REAL,FALSA
,,,,,,,,,613914cbb1f633800a5b53d1,001,2025-04-30_23h36.01.783,empathy_intonation_perc,2024.1.4,MacIntel,166.6666667,,,,,,,,,,,,,,104,estulo,,,,,,144.508,146.207,0,1,1.16,,0,25,25,103,1,pseudoword,0,REAL,FALSA
,,,,,,,,,613914cbb1f633800a5b53d1,001,2025-04-30_23h36.01.783,empathy_intonation_perc,2024.1.4,MacIntel,166.6666667,,,,,,,,,,,,,,3,disco,,,,,,146.207,147.74,1,0,1.017,,0,26,26,2,1,three_way_cognate,1,REAL,FALSA
,,,,,,,,,613914cbb1f633800a5b53d1,001,2025-04-30_23h36.01.783,empathy_intonation_perc,2024.1.4,MacIntel,166.6666667,,,,,,,,,,,,,,75,patada,,,,,,147.741,149.624,1,0,1.345,,0,27,27,74,1,non_cognate,1,REAL,FALSA
,,,,,,,,,613914cbb1f633800a5b53d1,001,2025-04-30_23h36.01.783,empathy_intonation_perc,2024.1.4,MacIntel,166.6666667,,,,,,,,,,,,,,90,venado,,,,,,149.625,151.29,1,0,1.136,,0,28,28,89,1,non_cognate,1,REAL,FALSA
,,,,,,,,,613914cbb1f633800a5b53d1,001,2025-04-30_23h36.01.783,empathy_intonation_perc,2024.1.4,MacIntel,166.6666667,,,,,,,,,,,,,,40,pelvis,,,,,,151.291,153.041,1,0,1.213,,0,29,29,39,1,two_way_cognate,1,REAL,FALSA
,,,,,,,,,613914cbb1f633800a5b53d1,001,2025-04-30_23h36.01.783,empathy_intonation_perc,2024.1.4,MacIntel,166.6666667,,,,,,,,,,,,,,110,densó,,,,,,153.041,155.207,1,0,1.629,,0,30,30,109,1,pseudoword,0,REAL,FALSA
,,,,,,,,,613914cbb1f633800a5b53d1,001,2025-04-30_23h36.01.783,empathy_intonation_perc,2024.1.4,MacIntel,166.6666667,,,,,,,,,,,,,,179,suelet,,,,,,155.208,156.54,0,1,0.803,,0,31,31,178,1,pseudoword,0,REAL,FALSA
,,,,,,,,,613914cbb1f633800a5b53d1,001,2025-04-30_23h36.01.783,empathy_intonation_perc,2024.1.4,MacIntel,166.6666667,,,,,,,,,,,,,,108,jauda,,,,,,156.541,158.141,0,1,1.061,,0,32,32,107,1,pseudoword,0,REAL,FALSA
,,,,,,,,,613914cbb1f633800a5b53d1,001,2025-04-30_23h36.01.783,empathy_intonation_perc,2024.1.4,MacIntel,166.6666667,,,,,,,,,,,,,,106,diebro,,,,,,158.141,159.824,0,1,1.145,,0,33,33,105,1,pseudoword,0,REAL,FALSA
,,,,,,,,,613914cbb1f633800a5b53d1,001,2025-04-30_23h36.01.783,empathy_intonation_perc,2024.1.4,MacIntel,166.6666667,,,,,,,,,,,,,,139,sasos,,,,,,159.825,161.507,0,1,1.144,,0,34,34,138,1,pseudoword,0,REAL,FALSA
,,,,,,,,,613914cbb1f633800a5b53d1,001,2025-04-30_23h36.01.783,empathy_intonation_perc,2024.1.4,MacIntel,166.6666667,,,,,,,,,,,,,,158,babrá,,,,,,161.508,164.508,0,1,2.462,,0,35,35,157,1,pseudoword,0,REAL,FALSA
,,,,,,,,,613914cbb1f633800a5b53d1,001,2025-04-30_23h36.01.783,empathy_intonation_perc,2024.1.4,MacIntel,166.6666667,,,,,,,,,,,,,,51,listo,,,,,,164.508,165.974,1,0,0.937,,0,36,36,50,1,non_cognate,1,REAL,FALSA
,,,,,,,,,613914cbb1f633800a5b53d1,001,2025-04-30_23h36.01.783,empathy_intonation_perc,2024.1.4,MacIntel,166.6666667,,,,,,,,,,,,,,175,tradía,,,,,,165.975,167.858,1,0,1.346,,0,37,37,174,1,pseudoword,0,REAL,FALSA
,,,,,,,,,613914cbb1f633800a5b53d1,001,2025-04-30_23h36.01.783,empathy_intonation_perc,2024.1.4,MacIntel,166.6666667,,,,,,,,,,,,,,66,aleta,,,,,,167.859,169.541,1,0,1.145,,0,38,38,65,1,non_cognate,1,REAL,FALSA
,,,,,,,,,613914cbb1f633800a5b53d1,001,2025-04-30_23h36.01.783,empathy_intonation_perc,2024.1.4,MacIntel,166.6666667,,,,,,,,,,,,,,105,peniz,,,,,,169.542,171.258,1,0,1.177,,0,39,39,104,1,pseudoword,0,REAL,FALSA
,,,,,,,,,613914cbb1f633800a5b53d1,001,2025-04-30_23h36.01.783,empathy_intonation_perc,2024.1.4,MacIntel,166.6666667,,,,,,,,,,,,,,41,pasta,,,,,,171.259,173.158,1,0,1.366,,0,40,40,40,1,two_way_cognate,1,REAL,FALSA
,,,,,,,,,613914cbb1f633800a5b53d1,001,2025-04-30_23h36.01.783,empathy_intonation_perc,2024.1.4,MacIntel,166.6666667,,,,,,,,,,,,,,83,hálito,,,,,,173.158,174.874,1,0,1.179,,0,41,41,82,1,non_cognate,1,REAL,FALSA
,,,,,,,,,613914cbb1f633800a5b53d1,001,2025-04-30_23h36.01.783,empathy_intonation_perc,2024.1.4,MacIntel,166.6666667,,,,,,,,,,,,,,119,esís,,,,,,174.875,176.491,0,1,1.077,,0,42,42,118,1,pseudoword,0,REAL,FALSA
,,,,,,,,,613914cbb1f633800a5b53d1,001,2025-04-30_23h36.01.783,empathy_intonation_perc,2024.1.4,MacIntel,166.6666667,,,,,,,,,,,,,,92,flecha,,,,,,176.492,178.391,1,0,1.362,,0,43,43,91,1,non_cognate,1,REAL,FALSA
,,,,,,,,,613914cbb1f633800a5b53d1,001,2025-04-30_23h36.01.783,empathy_intonation_perc,2024.1.4,MacIntel,166.6666667,,,,,,,,,,,,,,68,puñal,,,,,,178.392,180.64,1,0,1.712,,0,44,44,67,1,non_cognate,1,REAL,FALSA
,,,,,,,,,613914cbb1f633800a5b53d1,001,2025-04-30_23h36.01.783,empathy_intonation_perc,2024.1.4,MacIntel,166.6666667,,,,,,,,,,,,,,129,vinzó,,,,,,180.641,183.008,1,0,1.844,,0,45,45,128,1,pseudoword,0,REAL,FALSA
,,,,,,,,,613914cbb1f633800a5b53d1,001,2025-04-30_23h36.01.783,empathy_intonation_perc,2024.1.4,MacIntel,166.6666667,,,,,,,,,,,,,,58,colcha,,,,,,183.01,184.608,1,0,1.062,,0,46,46,57,1,non_cognate,1,REAL,FALSA
,,,,,,,,,613914cbb1f633800a5b53d1,001,2025-04-30_23h36.01.783,empathy_intonation_perc,2024.1.4,MacIntel,166.6666667,,,,,,,,,,,,,,14,aura,,,,,,184.609,186.258,1,0,1.111,,0,47,47,13,1,three_way_cognate,1,REAL,FALSA
,,,,,,,,,613914cbb1f633800a5b53d1,001,2025-04-30_23h36.01.783,empathy_intonation_perc,2024.1.4,MacIntel,166.6666667,,,,,,,,,,,,,,174,pabea,,,,,,186.259,187.925,0,1,1.132,,0,48,48,173,1,pseudoword,0,REAL,FALSA
,,,,,,,,,613914cbb1f633800a5b53d1,001,2025-04-30_23h36.01.783,empathy_intonation_perc,2024.1.4,MacIntel,166.6666667,,,,,,,,,,,,,,71,torta,,,,,,187.925,190.407,1,0,1.961,,0,49,49,70,1,non_cognate,1,REAL,FALSA
,,,,,,,,,613914cbb1f633800a5b53d1,001,2025-04-30_23h36.01.783,empathy_intonation_perc,2024.1.4,MacIntel,166.6666667,,,,,,,,,,,,,,22,mango,,,,,,190.408,193.458,0,1,2.53,,0,50,50,21,1,three_way_cognate,1,REAL,FALSA
,,,,,,,,,613914cbb1f633800a5b53d1,001,2025-04-30_23h36.01.783,empathy_intonation_perc,2024.1.4,MacIntel,166.6666667,,,,,,,,,,,,,,164,tecia,,,,,,193.459,195.108,0,1,1.113,,0,51,51,163,1,pseudoword,0,REAL,FALSA
,,,,,,,,,613914cbb1f633800a5b53d1,001,2025-04-30_23h36.01.783,empathy_intonation_perc,2024.1.4,MacIntel,166.6666667,,,,,,,,,,,,,,6,horror,,,,,,195.108,196.791,1,0,1.163,,0,52,52,5,1,three_way_cognate,1,REAL,FALSA
,,,,,,,,,613914cbb1f633800a5b53d1,001,2025-04-30_23h36.01.783,empathy_intonation_perc,2024.1.4,MacIntel,166.6666667,,,,,,,,,,,,,,149,emén,,,,,,196.792,198.275,0,1,0.945,,0,53,53,148,1,pseudoword,0,REAL,FALSA
,,,,,,,,,613914cbb1f633800a5b53d1,001,2025-04-30_23h36.01.783,empathy_intonation_perc,2024.1.4,MacIntel,166.6666667,,,,,,,,,,,,,,2,tumor,,,,,,198.276,200.125,1,0,1.31,,0,54,54,1,1,three_way_cognate,1,REAL,FALSA
,,,,,,,,,613914cbb1f633800a5b53d1,001,2025-04-30_23h36.01.783,empathy_intonation_perc,2024.1.4,MacIntel,166.6666667,,,,,,,,,,,,,,152,prave,,,,,,200.126,202.309,0,1,1.645,,0,55,55,151,1,pseudoword,0,REAL,FALSA
,,,,,,,,,613914cbb1f633800a5b53d1,001,2025-04-30_23h36.01.783,empathy_intonation_perc,2024.1.4,MacIntel,166.6666667,,,,,,,,,,,,,,60,siglo,,,,,,202.309,203.758,0,1,0.919,,0,56,56,59,1,non_cognate,1,REAL,FALSA
,,,,,,,,,613914cbb1f633800a5b53d1,001,2025-04-30_23h36.01.783,empathy_intonation_perc,2024.1.4,MacIntel,166.6666667,,,,,,,,,,,,,,97,nocita,,,,,,203.759,205.375,1,0,1.082,,0,57,57,96,1,pseudoword,0,REAL,FALSA
,,,,,,,,,613914cbb1f633800a5b53d1,001,2025-04-30_23h36.01.783,empathy_intonation_perc,2024.1.4,MacIntel,166.6666667,,,,,,,,,,,,,,130,dubo,,,,,,205.376,206.825,0,1,0.913,,0,58,58,129,1,pseudoword,0,REAL,FALSA
,,,,,,,,,613914cbb1f633800a5b53d1,001,2025-04-30_23h36.01.783,empathy_intonation_perc,2024.1.4,MacIntel,166.6666667,,,,,,,,,,,,,,169,pitis,,,,,,206.826,208.425,0,1,1.063,,0,59,59,168,1,pseudoword,0,REAL,FALSA
,,,,,,,,,613914cbb1f633800a5b53d1,001,2025-04-30_23h36.01.783,empathy_intonation_perc,2024.1.4,MacIntel,166.6666667,,,,,,,,,,,,,,115,lidena,,,,,,208.426,210.709,1,0,1.744,,0,60,60,114,1,pseudoword,0,REAL,FALSA
,,,,,,,,,613914cbb1f633800a5b53d1,001,2025-04-30_23h36.01.783,empathy_intonation_perc,2024.1.4,MacIntel,166.6666667,,,,,,,,,,,,,,12,dogma,,,,,,210.709,212.492,1,0,1.246,,0,61,61,11,1,three_way_cognate,1,REAL,FALSA
,,,,,,,,,613914cbb1f633800a5b53d1,001,2025-04-30_23h36.01.783,empathy_intonation_perc,2024.1.4,MacIntel,166.6666667,,,,,,,,,,,,,,137,trugo,,,,,,212.493,214.076,0,1,1.045,,0,62,62,136,1,pseudoword,0,REAL,FALSA
,,,,,,,,,613914cbb1f633800a5b53d1,001,2025-04-30_23h36.01.783,empathy_intonation_perc,2024.1.4,MacIntel,166.6666667,,,,,,,,,,,,,,4,flora,,,,,,214.076,215.509,1,0,0.902,,0,63,63,3,1,three_way_cognate,1,REAL,FALSA
,,,,,,,,,613914cbb1f633800a5b53d1,001,2025-04-30_23h36.01.783,empathy_intonation_perc,2024.1.4,MacIntel,166.6666667,,,,,,,,,,,,,,155,kugis,,,,,,215.509,216.809,0,1,0.781,,0,64,64,154,1,pseudoword,0,REAL,FALSA
,,,,,,,,,613914cbb1f633800a5b53d1,001,2025-04-30_23h36.01.783,empathy_intonation_perc,2024.1.4,MacIntel,166.6666667,,,,,,,,,,,,,,111,monue,,,,,,216.81,218.326,0,1,0.982,,0,65,65,110,1,pseudoword,0,REAL,FALSA
,,,,,,,,,613914cbb1f633800a5b53d1,001,2025-04-30_23h36.01.783,empathy_intonation_perc,2024.1.4,MacIntel,166.6666667,,,,,,,,,,,,,,153,golla,,,,,,218.326,219.843,0,1,0.978,,0,66,66,152,1,pseudoword,0,REAL,FALSA
,,,,,,,,,613914cbb1f633800a5b53d1,001,2025-04-30_23h36.01.783,empathy_intonation_perc,2024.1.4,MacIntel,166.6666667,,,,,,,,,,,,,,73,llevar,,,,,,219.843,221.309,1,0,0.929,,0,67,67,72,1,non_cognate,1,REAL,FALSA
,,,,,,,,,613914cbb1f633800a5b53d1,001,2025-04-30_23h36.01.783,empathy_intonation_perc,2024.1.4,MacIntel,166.6666667,,,,,,,,,,,,,,107,plago,,,,,,221.31,223.793,1,0,1.946,,0,68,68,106,1,pseudoword,0,REAL,FALSA
,,,,,,,,,613914cbb1f633800a5b53d1,001,2025-04-30_23h36.01.783,empathy_intonation_perc,2024.1.4,MacIntel,166.6666667,,,,,,,,,,,,,,56,pico,,,,,,223.793,225.276,1,0,0.945,,0,69,69,55,1,non_cognate,1,REAL,FALSA
,,,,,,,,,613914cbb1f633800a5b53d1,001,2025-04-30_23h36.01.783,empathy_intonation_perc,2024.1.4,MacIntel,166.6666667,,,,,,,,,,,,,,192,próces,,,,,,225.277,226.859,1,0,1.052,,0,70,70,191,1,pseudoword,0,REAL,FALSA
,,,,,,,,,613914cbb1f633800a5b53d1,001,2025-04-30_23h36.01.783,empathy_intonation_perc,2024.1.4,MacIntel,166.6666667,,,,,,,,,,,,,,163,llzan,,,,,,226.86,228.426,0,1,1.026,,0,71,71,162,1,pseudoword,0,REAL,FALSA
,,,,,,,,,613914cbb1f633800a5b53d1,001,2025-04-30_23h36.01.783,empathy_intonation_perc,2024.1.4,MacIntel,166.6666667,,,,,,,,,,,,,,62,pegar,,,,,,228.428,230.426,1,0,1.469,,0,72,72,61,1,non_cognate,1,REAL,FALSA
,,,,,,,,,613914cbb1f633800a5b53d1,001,2025-04-30_23h36.01.783,empathy_intonation_perc,2024.1.4,MacIntel,166.6666667,,,,,,,,,,,,,,128,pelí,,,,,,230.427,233.11,1,0,2.147,,0,73,73,127,1,pseudoword,0,REAL,FALSA
,,,,,,,,,613914cbb1f633800a5b53d1,001,2025-04-30_23h36.01.783,empathy_intonation_perc,2024.1.4,MacIntel,166.6666667,,,,,,,,,,,,,,17,clan,,,,,,233.11,234.443,0,1,0.802,,0,74,74,16,1,three_way_cognate,1,REAL,FALSA
,,,,,,,,,613914cbb1f633800a5b53d1,001,2025-04-30_23h36.01.783,empathy_intonation_perc,2024.1.4,MacIntel,166.6666667,,,,,,,,,,,,,,21,hotel,,,,,,234.443,236.576,1,0,1.598,,0,75,75,20,1,three_way_cognate,1,REAL,FALSA
,,,,,,,,,613914cbb1f633800a5b53d1,001,2025-04-30_23h36.01.783,empathy_intonation_perc,2024.1.4,MacIntel,166.6666667,,,,,,,,,,,,,,161,civas,,,,,,236.577,238.326,0,1,1.212,,0,76,76,160,1,pseudoword,0,REAL,FALSA
,,,,,,,,,613914cbb1f633800a5b53d1,001,2025-04-30_23h36.01.783,empathy_intonation_perc,2024.1.4,MacIntel,166.6666667,,,,,,,,,,,,,,89,muñeca,,,,,,238.327,240.393,0,1,1.529,,0,77,77,88,1,non_cognate,1,REAL,FALSA
,,,,,,,,,613914cbb1f633800a5b53d1,001,2025-04-30_23h36.01.783,empathy_intonation_perc,2024.1.4,MacIntel,166.6666667,,,,,,,,,,,,,,65,guerra,,,,,,240.394,241.659,1,0,0.727,,0,78,78,64,1,non_cognate,1,REAL,FALSA
,,,,,,,,,613914cbb1f633800a5b53d1,001,2025-04-30_23h36.01.783,empathy_intonation_perc,2024.1.4,MacIntel,166.6666667,,,,,,,,,,,,,,36,viable,,,,,,241.66,243.026,1,0,0.83,,0,79,79,35,1,two_way_cognate,1,REAL,FALSA
,,,,,,,,,613914cbb1f633800a5b53d1,001,2025-04-30_23h36.01.783,empathy_intonation_perc,2024.1.4,MacIntel,166.6666667,,,,,,,,,,,,,,147,alla,,,,,,243.027,244.593,1,0,1.031,,0,80,80,146,1,pseudoword,0,REAL,FALSA
,,,,,,,,,613914cbb1f633800a5b53d1,001,2025-04-30_23h36.01.783,empathy_intonation_perc,2024.1.4,MacIntel,166.6666667,,,,,,,,,,,,,,88,percha,,,,,,244.595,246.243,1,0,1.112,,0,81,81,87,1,non_cognate,1,REAL,FALSA
,,,,,,,,,613914cbb1f633800a5b53d1,001,2025-04-30_23h36.01.783,empathy_intonation_perc,2024.1.4,MacIntel,166.6666667,,,,,,,,,,,,,,81,sacar,,,,,,246.244,247.659,1,0,0.877,,0,82,82,80,1,non_cognate,1,REAL,FALSA
,,,,,,,,,613914cbb1f633800a5b53d1,001,2025-04-30_23h36.01.783,empathy_intonation_perc,2024.1.4,MacIntel,166.6666667,,,,,,,,,,,,,,86,cuenco,,,,,,247.66,249.143,1,0,0.962,,0,83,83,85,1,non_cognate,1,REAL,FALSA
,,,,,,,,,613914cbb1f633800a5b53d1,001,2025-04-30_23h36.01.783,empathy_intonation_perc,2024.1.4,MacIntel,166.6666667,,,,,,,,,,,,,,26,enigma,,,,,,249.144,251.493,1,0,1.81,,0,84,84,25,1,two_way_cognate,1,REAL,FALSA
,,,,,,,,,613914cbb1f633800a5b53d1,001,2025-04-30_23h36.01.783,empathy_intonation_perc,2024.1.4,MacIntel,166.6666667,,,,,,,,,,,,,,112,samón,,,,,,251.494,253.077,1,0,1.053,,0,85,85,111,1,pseudoword,0,REAL,FALSA
,,,,,,,,,613914cbb1f633800a5b53d1,001,2025-04-30_23h36.01.783,empathy_intonation_perc,2024.1.4,MacIntel,166.6666667,,,,,,,,,,,,,,35,aurora,,,,,,253.077,254.76,1,0,1.15,,0,86,86,34,1,two_way_cognate,1,REAL,FALSA
,,,,,,,,,613914cbb1f633800a5b53d1,001,2025-04-30_23h36.01.783,empathy_intonation_perc,2024.1.4,MacIntel,166.6666667,,,,,,,,,,,,,,183,edioso,,,,,,254.761,256.877,1,0,1.58,,0,87,87,182,1,pseudoword,0,REAL,FALSA
,,,,,,,,,613914cbb1f633800a5b53d1,001,2025-04-30_23h36.01.783,empathy_intonation_perc,2024.1.4,MacIntel,166.6666667,,,,,,,,,,,,,,166,anfia,,,,,,256.877,258.36,0,1,0.947,,0,88,88,165,1,pseudoword,0,REAL,FALSA
,,,,,,,,,613914cbb1f633800a5b53d1,001,2025-04-30_23h36.01.783,empathy_intonation_perc,2024.1.4,MacIntel,166.6666667,,,,,,,,,,,,,,140,chorde,,,,,,258.361,260.227,0,1,1.329,,0,89,89,139,1,pseudoword,0,REAL,FALSA
,,,,,,,,,613914cbb1f633800a5b53d1,001,2025-04-30_23h36.01.783,empathy_intonation_perc,2024.1.4,MacIntel,166.6666667,,,,,,,,,,,,,,9,portal,,,,,,260.228,261.594,1,0,0.828,,0,90,90,8,1,three_way_cognate,1,REAL,FALSA
,,,,,,,,,613914cbb1f633800a5b53d1,001,2025-04-30_23h36.01.783,empathy_intonation_perc,2024.1.4,MacIntel,166.6666667,,,,,,,,,,,,,,34,actor,,,,,,261.594,263.077,1,0,0.946,,0,91,91,33,1,two_way_cognate,1,REAL,FALSA
,,,,,,,,,613914cbb1f633800a5b53d1,001,2025-04-30_23h36.01.783,empathy_intonation_perc,2024.1.4,MacIntel,166.6666667,,,,,,,,,,,,,,31,civil,,,,,,263.077,264.494,1,0,0.894,,0,92,92,30,1,two_way_cognate,1,REAL,FALSA
,,,,,,,,,613914cbb1f633800a5b53d1,001,2025-04-30_23h36.01.783,empathy_intonation_perc,2024.1.4,MacIntel,166.6666667,,,,,,,,,,,,,,91,equipo,,,,,,264.494,265.894,1,0,0.864,,0,93,93,90,1,non_cognate,1,REAL,FALSA
,,,,,,,,,613914cbb1f633800a5b53d1,001,2025-04-30_23h36.01.783,empathy_intonation_perc,2024.1.4,MacIntel,166.6666667,,,,,,,,,,,,,,191,frasis,,,,,,265.894,267.21,0,1,0.781,,0,94,94,190,1,pseudoword,0,REAL,FALSA
,,,,,,,,,613914cbb1f633800a5b53d1,001,2025-04-30_23h36.01.783,empathy_intonation_perc,2024.1.4,MacIntel,166.6666667,,,,,,,,,,,,,,28,ardor,,,,,,267.211,268.744,0,1,1.001,,0,95,95,27,1,two_way_cognate,1,REAL,FALSA
,,,,,,,,,613914cbb1f633800a5b53d1,001,2025-04-30_23h36.01.783,empathy_intonation_perc,2024.1.4,MacIntel,166.6666667,,,,,,,,,,,,,,50,sierra,,,,,,268.744,269.976,1,0,0.713,,0,96,96,49,1,non_cognate,1,REAL,FALSA
,,,,,,,,,613914cbb1f633800a5b53d1,001,2025-04-30_23h36.01.783,empathy_intonation_perc,2024.1.4,MacIntel,166.6666667,,,,,,,,,,,,,,49,teñir,,,,,,269.977,272.461,1,0,1.961,,0,97,97,48,1,non_cognate,1,REAL,FALSA
,,,,,,,,,613914cbb1f633800a5b53d1,001,2025-04-30_23h36.01.783,empathy_intonation_perc,2024.1.4,MacIntel,166.6666667,,,,,,,,,,,,,,37,torso,,,,,,272.461,273.811,1,0,0.815,,0,98,98,36,1,two_way_cognate,1,REAL,FALSA
,,,,,,,,,613914cbb1f633800a5b53d1,001,2025-04-30_23h36.01.783,empathy_intonation_perc,2024.1.4,MacIntel,166.6666667,,,,,,,,,,,,,,150,cricó,,,,,,273.811,275.326,0,1,0.984,,0,99,99,149,1,pseudoword,0,REAL,FALSA
,,,,,,,,,613914cbb1f633800a5b53d1,001,2025-04-30_23h36.01.783,empathy_intonation_perc,2024.1.4,MacIntel,166.6666667,,,,,,,,,,,,,,84,aviso,,,,,,275.327,276.611,1,0,0.762,,0,100,100,83,1,non_cognate,1,REAL,FALSA
,,,,,,,,,613914cbb1f633800a5b53d1,001,2025-04-30_23h36.01.783,empathy_intonation_perc,2024.1.4,MacIntel,166.6666667,,,,,,,,,,,,,,144,diroco,,,,,,276.611,278.027,0,1,0.885,,0,101,101,143,1,pseudoword,0,REAL,FALSA
,,,,,,,,,613914cbb1f633800a5b53d1,001,2025-04-30_23h36.01.783,empathy_intonation_perc,2024.1.4,MacIntel,166.6666667,,,,,,,,,,,,,,79,suelo,,,,,,278.028,279.544,1,0,0.978,,0,102,102,78,1,non_cognate,1,REAL,FALSA
,,,,,,,,,613914cbb1f633800a5b53d1,001,2025-04-30_23h36.01.783,empathy_intonation_perc,2024.1.4,MacIntel,166.6666667,,,,,,,,,,,,,,39,casual,,,,,,279.545,280.877,1,0,0.798,,0,103,103,38,1,two_way_cognate,1,REAL,FALSA
,,,,,,,,,613914cbb1f633800a5b53d1,001,2025-04-30_23h36.01.783,empathy_intonation_perc,2024.1.4,MacIntel,166.6666667,,,,,,,,,,,,,,24,retina,,,,,,280.878,282.227,1,0,0.818,,0,104,104,23,1,three_way_cognate,1,REAL,FALSA
,,,,,,,,,613914cbb1f633800a5b53d1,001,2025-04-30_23h36.01.783,empathy_intonation_perc,2024.1.4,MacIntel,166.6666667,,,,,,,,,,,,,,77,suave,,,,,,282.228,283.694,1,0,0.93,,0,105,105,76,1,non_cognate,1,REAL,FALSA
,,,,,,,,,613914cbb1f633800a5b53d1,001,2025-04-30_23h36.01.783,empathy_intonation_perc,2024.1.4,MacIntel,166.6666667,,,,,,,,,,,,,,80,cuenco,,,,,,283.695,285.295,1,0,1.068,,0,106,106,79,1,non_cognate,1,REAL,FALSA
,,,,,,,,,613914cbb1f633800a5b53d1,001,2025-04-30_23h36.01.783,empathy_intonation_perc,2024.1.4,MacIntel,166.6666667,,,,,,,,,,,,,,11,golf,,,,,,285.296,286.911,1,0,1.079,,0,107,107,10,1,three_way_cognate,1,REAL,FALSA
,,,,,,,,,613914cbb1f633800a5b53d1,001,2025-04-30_23h36.01.783,empathy_intonation_perc,2024.1.4,MacIntel,166.6666667,,,,,,,,,,,,,,171,gotro,,,,,,286.913,288.178,0,1,0.729,,0,108,108,170,1,pseudoword,0,REAL,FALSA
,,,,,,,,,613914cbb1f633800a5b53d1,001,2025-04-30_23h36.01.783,empathy_intonation_perc,2024.1.4,MacIntel,166.6666667,,,,,,,,,,,,,,114,dibrea,,,,,,288.179,289.461,0,1,0.744,,0,109,109,113,1,pseudoword,0,REAL,FALSA
,,,,,,,,,613914cbb1f633800a5b53d1,001,2025-04-30_23h36.01.783,empathy_intonation_perc,2024.1.4,MacIntel,166.6666667,,,,,,,,,,,,,,186,rizate,,,,,,289.462,291.161,0,1,1.16,,0,110,110,185,1,pseudoword,0,REAL,FALSA
,,,,,,,,,613914cbb1f633800a5b53d1,001,2025-04-30_23h36.01.783,empathy_intonation_perc,2024.1.4,MacIntel,166.6666667,,,,,,,,,,,,,,32,animal,,,,,,291.162,292.344,1,0,0.645,,0,111,111,31,1,two_way_cognate,1,REAL,FALSA
,,,,,,,,,613914cbb1f633800a5b53d1,001,2025-04-30_23h36.01.783,empathy_intonation_perc,2024.1.4,MacIntel,166.6666667,,,,,,,,,,,,,,143,hurcos,,,,,,292.345,294.544,0,1,1.661,,0,112,112,142,1,pseudoword,0,REAL,FALSA
,,,,,,,,,613914cbb1f633800a5b53d1,001,2025-04-30_23h36.01.783,empathy_intonation_perc,2024.1.4,MacIntel,166.6666667,,,,,,,,,,,,,,87,muleta,,,,,,294.545,295.894,0,1,0.818,,0,113,113,86,1,non_cognate,1,REAL,FALSA
,,,,,,,,,613914cbb1f633800a5b53d1,001,2025-04-30_23h36.01.783,empathy_intonation_perc,2024.1.4,MacIntel,166.6666667,,,,,,,,,,,,,,178,inichó,,,,,,295.895,297.595,0,1,1.162,,0,114,114,177,1,pseudoword,0,REAL,FALSA
,,,,,,,,,613914cbb1f633800a5b53d1,001,2025-04-30_23h36.01.783,empathy_intonation_perc,2024.1.4,MacIntel,166.6666667,,,,,,,,,,,,,,133,conso,,,,,,297.595,299.095,0,1,0.966,,0,115,115,132,1,pseudoword,0,REAL,FALSA
,,,,,,,,,613914cbb1f633800a5b53d1,001,2025-04-30_23h36.01.783,empathy_intonation_perc,2024.1.4,MacIntel,166.6666667,,,,,,,,,,,,,,15,test,,,,,,299.096,300.811,1,0,1.184,,0,116,116,14,1,three_way_cognate,1,REAL,FALSA
,,,,,,,,,613914cbb1f633800a5b53d1,001,2025-04-30_23h36.01.783,empathy_intonation_perc,2024.1.4,MacIntel,166.6666667,,,,,,,,,,,,,,141,virios,,,,,,300.812,302.411,0,1,1.062,,0,117,117,140,1,pseudoword,0,REAL,FALSA
,,,,,,,,,613914cbb1f633800a5b53d1,001,2025-04-30_23h36.01.783,empathy_intonation_perc,2024.1.4,MacIntel,166.6666667,,,,,,,,,,,,,,176,gripar,,,,,,302.412,303.978,1,0,1.028,,0,118,118,175,1,pseudoword,0,REAL,FALSA
,,,,,,,,,613914cbb1f633800a5b53d1,001,2025-04-30_23h36.01.783,empathy_intonation_perc,2024.1.4,MacIntel,166.6666667,,,,,,,,,,,,,,173,mibro,,,,,,303.979,305.478,0,1,0.963,,0,119,119,172,1,pseudoword,0,REAL,FALSA
,,,,,,,,,613914cbb1f633800a5b53d1,001,2025-04-30_23h36.01.783,empathy_intonation_perc,2024.1.4,MacIntel,166.6666667,,,,,,,,,,,,,,78,rendir,,,,,,305.479,306.712,1,0,0.694,,0,120,120,77,1,non_cognate,1,REAL,FALSA
,,,,,,,,,613914cbb1f633800a5b53d1,001,2025-04-30_23h36.01.783,empathy_intonation_perc,2024.1.4,MacIntel,166.6666667,,,,,,,,,,,,,,102,coyo,,,,,,306.712,308.161,1,0,0.918,,0,121,121,101,1,pseudoword,0,REAL,FALSA
,,,,,,,,,613914cbb1f633800a5b53d1,001,2025-04-30_23h36.01.783,empathy_intonation_perc,2024.1.4,MacIntel,166.6666667,,,,,,,,,,,,,,154,harvé,,,,,,308.161,309.594,0,1,0.91,,0,122,122,153,1,pseudoword,0,REAL,FALSA
,,,,,,,,,613914cbb1f633800a5b53d1,001,2025-04-30_23h36.01.783,empathy_intonation_perc,2024.1.4,MacIntel,166.6666667,,,,,,,,,,,,,,69,tiza,,,,,,309.595,311.144,0,1,1.031,,0,123,123,68,1,non_cognate,1,REAL,FALSA
,,,,,,,,,613914cbb1f633800a5b53d1,001,2025-04-30_23h36.01.783,empathy_intonation_perc,2024.1.4,MacIntel,166.6666667,,,,,,,,,,,,,,145,rúo,,,,,,311.145,312.794,1,0,1.131,,0,124,124,144,1,pseudoword,0,REAL,FALSA
,,,,,,,,,613914cbb1f633800a5b53d1,001,2025-04-30_23h36.01.783,empathy_intonation_perc,2024.1.4,MacIntel,166.6666667,,,,,,,,,,,,,,101,losco,,,,,,312.795,314.345,0,1,1.029,,0,125,125,100,1,pseudoword,0,REAL,FALSA
,,,,,,,,,613914cbb1f633800a5b53d1,001,2025-04-30_23h36.01.783,empathy_intonation_perc,2024.1.4,MacIntel,166.6666667,,,,,,,,,,,,,,29,clamor,,,,,,314.346,315.895,0,1,1.028,,0,126,126,28,1,two_way_cognate,1,REAL,FALSA
,,,,,,,,,613914cbb1f633800a5b53d1,001,2025-04-30_23h36.01.783,empathy_intonation_perc,2024.1.4,MacIntel,166.6666667,,,,,,,,,,,,,,46,mortal,,,,,,315.896,317.062,1,0,0.629,,0,127,127,45,1,two_way_cognate,1,REAL,FALSA
,,,,,,,,,613914cbb1f633800a5b53d1,001,2025-04-30_23h36.01.783,empathy_intonation_perc,2024.1.4,MacIntel,166.6666667,,,,,,,,,,,,,,85,enorme,,,,,,317.062,318.245,1,0,0.645,,0,128,128,84,1,non_cognate,1,REAL,FALSA
,,,,,,,,,613914cbb1f633800a5b53d1,001,2025-04-30_23h36.01.783,empathy_intonation_perc,2024.1.4,MacIntel,166.6666667,,,,,,,,,,,,,,116,grigir,,,,,,318.246,319.711,0,1,0.934,,0,129,129,115,1,pseudoword,0,REAL,FALSA
,,,,,,,,,613914cbb1f633800a5b53d1,001,2025-04-30_23h36.01.783,empathy_intonation_perc,2024.1.4,MacIntel,166.6666667,,,,,,,,,,,,,,131,fuar,,,,,,319.712,321.912,1,0,1.68,,0,130,130,130,1,pseudoword,0,REAL,FALSA
,,,,,,,,,613914cbb1f633800a5b53d1,001,2025-04-30_23h36.01.783,empathy_intonation_perc,2024.1.4,MacIntel,166.6666667,,,,,,,,,,,,,,18,altar,,,,,,321.913,323.145,1,0,0.696,,0,131,131,17,1,three_way_cognate,1,REAL,FALSA
,,,,,,,,,613914cbb1f633800a5b53d1,001,2025-04-30_23h36.01.783,empathy_intonation_perc,2024.1.4,MacIntel,166.6666667,,,,,,,,,,,,,,98,martir,,,,,,323.146,324.896,1,0,1.212,,0,132,132,97,1,pseudoword,0,REAL,FALSA
,,,,,,,,,613914cbb1f633800a5b53d1,001,2025-04-30_23h36.01.783,empathy_intonation_perc,2024.1.4,MacIntel,166.6666667,,,,,,,,,,,,,,93,tapa,,,,,,324.896,326.195,1,0,0.767,,0,133,133,92,1,non_cognate,1,REAL,FALSA
,,,,,,,,,613914cbb1f633800a5b53d1,001,2025-04-30_23h36.01.783,empathy_intonation_perc,2024.1.4,MacIntel,166.6666667,,,,,,,,,,,,,,125,ceme,,,,,,326.196,327.579,0,1,0.843,,0,134,134,124,1,pseudoword,0,REAL,FALSA
,,,,,,,,,613914cbb1f633800a5b53d1,001,2025-04-30_23h36.01.783,empathy_intonation_perc,2024.1.4,MacIntel,166.6666667,,,,,,,,,,,,,,124,lobe,,,,,,327.579,329.512,0,1,1.397,,0,135,135,123,1,pseudoword,0,REAL,FALSA
,,,,,,,,,613914cbb1f633800a5b53d1,001,2025-04-30_23h36.01.783,empathy_intonation_perc,2024.1.4,MacIntel,166.6666667,,,,,,,,,,,,,,177,entodo,,,,,,329.513,331.079,1,0,1.034,,0,136,136,176,1,pseudoword,0,REAL,FALSA
,,,,,,,,,613914cbb1f633800a5b53d1,001,2025-04-30_23h36.01.783,empathy_intonation_perc,2024.1.4,MacIntel,166.6666667,,,,,,,,,,,,,,99,bugor,,,,,,331.079,332.412,0,1,0.819,,0,137,137,98,1,pseudoword,0,REAL,FALSA
,,,,,,,,,613914cbb1f633800a5b53d1,001,2025-04-30_23h36.01.783,empathy_intonation_perc,2024.1.4,MacIntel,166.6666667,,,,,,,,,,,,,,172,dogue,,,,,,332.413,334.112,0,1,1.167,,0,138,138,171,1,pseudoword,0,REAL,FALSA
,,,,,,,,,613914cbb1f633800a5b53d1,001,2025-04-30_23h36.01.783,empathy_intonation_perc,2024.1.4,MacIntel,166.6666667,,,,,,,,,,,,,,117,morrá,,,,,,334.113,336.245,1,0,1.594,,0,139,139,116,1,pseudoword,0,REAL,FALSA
,,,,,,,,,613914cbb1f633800a5b53d1,001,2025-04-30_23h36.01.783,empathy_intonation_perc,2024.1.4,MacIntel,166.6666667,,,,,,,,,,,,,,134,molor,,,,,,336.246,338.279,0,1,1.512,,0,140,140,133,1,pseudoword,0,REAL,FALSA
,,,,,,,,,613914cbb1f633800a5b53d1,001,2025-04-30_23h36.01.783,empathy_intonation_perc,2024.1.4,MacIntel,166.6666667,,,,,,,,,,,,,,138,tator,,,,,,338.279,339.646,0,1,0.845,,0,141,141,137,1,pseudoword,0,REAL,FALSA
,,,,,,,,,613914cbb1f633800a5b53d1,001,2025-04-30_23h36.01.783,empathy_intonation_perc,2024.1.4,MacIntel,166.6666667,,,,,,,,,,,,,,30,fiscal,,,,,,339.646,340.879,1,0,0.696,,0,142,142,29,1,two_way_cognate,1,REAL,FALSA
,,,,,,,,,613914cbb1f633800a5b53d1,001,2025-04-30_23h36.01.783,empathy_intonation_perc,2024.1.4,MacIntel,166.6666667,,,,,,,,,,,,,,184,huenos,,,,,,340.88,343.162,1,0,1.753,,0,143,143,183,1,pseudoword,0,REAL,FALSA
,,,,,,,,,613914cbb1f633800a5b53d1,001,2025-04-30_23h36.01.783,empathy_intonation_perc,2024.1.4,MacIntel,166.6666667,,,,,,,,,,,,,,181,gravés,,,,,,343.163,345.529,1,0,1.834,,0,144,144,180,1,pseudoword,0,REAL,FALSA
,,,,,,,,,613914cbb1f633800a5b53d1,001,2025-04-30_23h36.01.783,empathy_intonation_perc,2024.1.4,MacIntel,166.6666667,,,,,,,,,,,,,,5,extra,,,,,,345.53,346.829,1,0,0.763,,0,145,145,4,1,three_way_cognate,1,REAL,FALSA
,,,,,,,,,613914cbb1f633800a5b53d1,001,2025-04-30_23h36.01.783,empathy_intonation_perc,2024.1.4,MacIntel,166.6666667,,,,,,,,,,,,,,187,nomata,,,,,,346.83,348.213,0,1,0.853,,0,146,146,186,1,pseudoword,0,REAL,FALSA
,,,,,,,,,613914cbb1f633800a5b53d1,001,2025-04-30_23h36.01.783,empathy_intonation_perc,2024.1.4,MacIntel,166.6666667,,,,,,,,,,,,,,157,seled,,,,,,348.213,349.546,0,1,0.794,,0,147,147,156,1,pseudoword,0,REAL,FALSA
,,,,,,,,,613914cbb1f633800a5b53d1,001,2025-04-30_23h36.01.783,empathy_intonation_perc,2024.1.4,MacIntel,166.6666667,,,,,,,,,,,,,,38,halo,,,,,,349.548,351.113,1,0,1.028,,0,148,148,37,1,two_way_cognate,1,REAL,FALSA
,,,,,,,,,613914cbb1f633800a5b53d1,001,2025-04-30_23h36.01.783,empathy_intonation_perc,2024.1.4,MacIntel,166.6666667,,,,,,,,,,,,,,82,brillo,,,,,,351.114,352.63,1,0,0.98,,0,149,149,81,1,non_cognate,1,REAL,FALSA
,,,,,,,,,613914cbb1f633800a5b53d1,001,2025-04-30_23h36.01.783,empathy_intonation_perc,2024.1.4,MacIntel,166.6666667,,,,,,,,,,,,,,59,feo,,,,,,352.631,354.246,0,1,1.077,,0,150,150,58,1,non_cognate,1,REAL,FALSA
,,,,,,,,,613914cbb1f633800a5b53d1,001,2025-04-30_23h36.01.783,empathy_intonation_perc,2024.1.4,MacIntel,166.6666667,,,,,,,,,,,,,,43,honor,,,,,,354.247,355.563,1,0,0.779,,0,151,151,42,1,two_way_cognate,1,REAL,FALSA
,,,,,,,,,613914cbb1f633800a5b53d1,001,2025-04-30_23h36.01.783,empathy_intonation_perc,2024.1.4,MacIntel,166.6666667,,,,,,,,,,,,,,123,arane,,,,,,355.564,356.896,0,1,0.796,,0,152,152,122,1,pseudoword,0,REAL,FALSA
,,,,,,,,,613914cbb1f633800a5b53d1,001,2025-04-30_23h36.01.783,empathy_intonation_perc,2024.1.4,MacIntel,166.6666667,,,,,,,,,,,,,,167,dobbo,,,,,,356.897,358.313,0,1,0.877,,0,153,153,166,1,pseudoword,0,REAL,FALSA
,,,,,,,,,613914cbb1f633800a5b53d1,001,2025-04-30_23h36.01.783,empathy_intonation_perc,2024.1.4,MacIntel,166.6666667,,,,,,,,,,,,,,55,maldad,,,,,,358.314,359.846,1,0,0.996,,0,154,154,54,1,non_cognate,1,REAL,FALSA
,,,,,,,,,613914cbb1f633800a5b53d1,001,2025-04-30_23h36.01.783,empathy_intonation_perc,2024.1.4,MacIntel,166.6666667,,,,,,,,,,,,,,118,bará,,,,,,359.847,361.48,0,1,1.095,,0,155,155,117,1,pseudoword,0,REAL,FALSA
,,,,,,,,,613914cbb1f633800a5b53d1,001,2025-04-30_23h36.01.783,empathy_intonation_perc,2024.1.4,MacIntel,166.6666667,,,,,,,,,,,,,,159,trcia,,,,,,361.48,363.063,0,1,1.045,,0,156,156,158,1,pseudoword,0,REAL,FALSA
,,,,,,,,,613914cbb1f633800a5b53d1,001,2025-04-30_23h36.01.783,empathy_intonation_perc,2024.1.4,MacIntel,166.6666667,,,,,,,,,,,,,,122,boñaz,,,,,,363.065,364.813,0,1,1.213,,0,157,157,121,1,pseudoword,0,REAL,FALSA
,,,,,,,,,613914cbb1f633800a5b53d1,001,2025-04-30_23h36.01.783,empathy_intonation_perc,2024.1.4,MacIntel,166.6666667,,,,,,,,,,,,,,127,vien,,,,,,364.814,366.18,1,0,0.831,,0,158,158,126,1,pseudoword,0,REAL,FALSA
,,,,,,,,,613914cbb1f633800a5b53d1,001,2025-04-30_23h36.01.783,empathy_intonation_perc,2024.1.4,MacIntel,166.6666667,,,,,,,,,,,,,,7,albino,,,,,,366.18,367.563,1,0,0.861,,0,159,159,6,1,three_way_cognate,1,REAL,FALSA
,,,,,,,,,613914cbb1f633800a5b53d1,001,2025-04-30_23h36.01.783,empathy_intonation_perc,2024.1.4,MacIntel,166.6666667,,,,,,,,,,,,,,52,blando,,,,,,367.564,369.663,0,1,1.57,,0,160,160,51,1,non_cognate,1,REAL,FALSA
,,,,,,,,,613914cbb1f633800a5b53d1,001,2025-04-30_23h36.01.783,empathy_intonation_perc,2024.1.4,MacIntel,166.6666667,,,,,,,,,,,,,,54,tapón,,,,,,369.664,371.763,0,1,1.563,,0,161,161,53,1,non_cognate,1,REAL,FALSA
,,,,,,,,,613914cbb1f633800a5b53d1,001,2025-04-30_23h36.01.783,empathy_intonation_perc,2024.1.4,MacIntel,166.6666667,,,,,,,,,,,,,,72,rostro,,,,,,371.764,373.263,0,1,0.962,,0,162,162,71,1,non_cognate,1,REAL,FALSA
,,,,,,,,,613914cbb1f633800a5b53d1,001,2025-04-30_23h36.01.783,empathy_intonation_perc,2024.1.4,MacIntel,166.6666667,,,,,,,,,,,,,,168,cobén,,,,,,373.264,374.663,0,1,0.862,,0,163,163,167,1,pseudoword,0,REAL,FALSA
,,,,,,,,,613914cbb1f633800a5b53d1,001,2025-04-30_23h36.01.783,empathy_intonation_perc,2024.1.4,MacIntel,166.6666667,,,,,,,,,,,,,,8,kilo,,,,,,374.664,376.047,1,0,0.846,,0,164,164,7,1,three_way_cognate,1,REAL,FALSA
,,,,,,,,,613914cbb1f633800a5b53d1,001,2025-04-30_23h36.01.783,empathy_intonation_perc,2024.1.4,MacIntel,166.6666667,,,,,,,,,,,,,,19,mafia,,,,,,376.047,377.697,1,0,1.112,,0,165,165,18,1,three_way_cognate,1,REAL,FALSA
,,,,,,,,,613914cbb1f633800a5b53d1,001,2025-04-30_23h36.01.783,empathy_intonation_perc,2024.1.4,MacIntel,166.6666667,,,,,,,,,,,,,,13,plan,,,,,,377.697,379.214,1,0,0.979,,0,166,166,12,1,three_way_cognate,1,REAL,FALSA
,,,,,,,,,613914cbb1f633800a5b53d1,001,2025-04-30_23h36.01.783,empathy_intonation_perc,2024.1.4,MacIntel,166.6666667,,,,,,,,,,,,,,136,hueas,,,,,,379.214,380.73,0,1,0.978,,0,167,167,135,1,pseudoword,0,REAL,FALSA
,,,,,,,,,613914cbb1f633800a5b53d1,001,2025-04-30_23h36.01.783,empathy_intonation_perc,2024.1.4,MacIntel,166.6666667,,,,,,,,,,,,,,190,asumie,,,,,,380.731,382.364,0,1,1.094,,0,168,168,189,1,pseudoword,0,REAL,FALSA
,,,,,,,,,613914cbb1f633800a5b53d1,001,2025-04-30_23h36.01.783,empathy_intonation_perc,2024.1.4,MacIntel,166.6666667,,,,,,,,,,,,,,63,hilo,,,,,,382.364,383.747,1,0,0.846,,0,169,169,62,1,non_cognate,1,REAL,FALSA
,,,,,,,,,613914cbb1f633800a5b53d1,001,2025-04-30_23h36.01.783,empathy_intonation_perc,2024.1.4,MacIntel,166.6666667,,,,,,,,,,,,,,76,chocar,,,,,,383.748,385.08,1,0,0.797,,0,170,170,75,1,non_cognate,1,REAL,FALSA
,,,,,,,,,613914cbb1f633800a5b53d1,001,2025-04-30_23h36.01.783,empathy_intonation_perc,2024.1.4,MacIntel,166.6666667,,,,,,,,,,,,,,64,rizado,,,,,,385.081,386.464,1,0,0.845,,0,171,171,63,1,non_cognate,1,REAL,FALSA
,,,,,,,,,613914cbb1f633800a5b53d1,001,2025-04-30_23h36.01.783,empathy_intonation_perc,2024.1.4,MacIntel,166.6666667,,,,,,,,,,,,,,45,total,,,,,,386.464,387.847,1,0,0.867,,0,172,172,44,1,two_way_cognate,1,REAL,FALSA
,,,,,,,,,613914cbb1f633800a5b53d1,001,2025-04-30_23h36.01.783,empathy_intonation_perc,2024.1.4,MacIntel,166.6666667,,,,,,,,,,,,,,25,vigor,,,,,,387.848,389.346,1,0,0.963,,0,173,173,24,1,two_way_cognate,1,REAL,FALSA
,,,,,,,,,613914cbb1f633800a5b53d1,001,2025-04-30_23h36.01.783,empathy_intonation_perc,2024.1.4,MacIntel,166.6666667,,,,,,,,,,,,,,74,ala,,,,,,389.347,390.831,1,0,0.962,,0,174,174,73,1,non_cognate,1,REAL,FALSA
,,,,,,,,,613914cbb1f633800a5b53d1,001,2025-04-30_23h36.01.783,empathy_intonation_perc,2024.1.4,MacIntel,166.6666667,,,,,,,,,,,,,,180,pupica,,,,,,390.831,392.231,0,1,0.868,,0,175,175,179,1,pseudoword,0,REAL,FALSA
,,,,,,,,,613914cbb1f633800a5b53d1,001,2025-04-30_23h36.01.783,empathy_intonation_perc,2024.1.4,MacIntel,166.6666667,,,,,,,,,,,,,,1,moral,,,,,,392.231,393.497,1,0,0.734,,0,176,176,0,1,three_way_cognate,1,REAL,FALSA
,,,,,,,,,613914cbb1f633800a5b53d1,001,2025-04-30_23h36.01.783,empathy_intonation_perc,2024.1.4,MacIntel,166.6666667,,,,,,,,,,,,,,160,fomeó,,,,,,393.498,395.047,0,1,1.013,,0,177,177,159,1,pseudoword,0,REAL,FALSA
,,,,,,,,,613914cbb1f633800a5b53d1,001,2025-04-30_23h36.01.783,empathy_intonation_perc,2024.1.4,MacIntel,166.6666667,,,,,,,,,,,,,,165,chote,,,,,,395.048,396.464,0,1,0.892,,0,178,178,164,1,pseudoword,0,REAL,FALSA
,,,,,,,,,613914cbb1f633800a5b53d1,001,2025-04-30_23h36.01.783,empathy_intonation_perc,2024.1.4,MacIntel,166.6666667,,,,,,,,,,,,,,95,listo,,,,,,396.465,397.847,1,0,0.846,,0,179,179,94,1,non_cognate,1,REAL,FALSA
,,,,,,,,,613914cbb1f633800a5b53d1,001,2025-04-30_23h36.01.783,empathy_intonation_perc,2024.1.4,MacIntel,166.6666667,,,,,,,,,,,,,,27,piano,,,,,,397.848,399.148,1,0,0.762,,0,180,180,26,1,two_way_cognate,1,REAL,FALSA
,,,,,,,,,613914cbb1f633800a5b53d1,001,2025-04-30_23h36.01.783,empathy_intonation_perc,2024.1.4,MacIntel,166.6666667,,,,,,,,,,,,,,53,punta,,,,,,399.149,400.381,1,0,0.702,,0,181,181,52,1,non_cognate,1,REAL,FALSA
,,,,,,,,,613914cbb1f633800a5b53d1,001,2025-04-30_23h36.01.783,empathy_intonation_perc,2024.1.4,MacIntel,166.6666667,,,,,,,,,,,,,,61,aduana,,,,,,400.382,401.848,1,0,0.936,,0,182,182,60,1,non_cognate,1,REAL,FALSA
,,,,,,,,,613914cbb1f633800a5b53d1,001,2025-04-30_23h36.01.783,empathy_intonation_perc,2024.1.4,MacIntel,166.6666667,,,,,,,,,,,,,,67,llamar,,,,,,401.848,403.231,1,0,0.845,,0,183,183,66,1,non_cognate,1,REAL,FALSA
,,,,,,,,,613914cbb1f633800a5b53d1,001,2025-04-30_23h36.01.783,empathy_intonation_perc,2024.1.4,MacIntel,166.6666667,,,,,,,,,,,,,,162,cengo,,,,,,403.232,404.847,1,0,1.079,,0,184,184,161,1,pseudoword,0,REAL,FALSA
,,,,,,,,,613914cbb1f633800a5b53d1,001,2025-04-30_23h36.01.783,empathy_intonation_perc,2024.1.4,MacIntel,166.6666667,,,,,,,,,,,,,,10,drama,,,,,,404.848,406.265,1,0,0.879,,0,185,185,9,1,three_way_cognate,1,REAL,FALSA
,,,,,,,,,613914cbb1f633800a5b53d1,001,2025-04-30_23h36.01.783,empathy_intonation_perc,2024.1.4,MacIntel,166.6666667,,,,,,,,,,,,,,146,gió,,,,,,406.265,407.864,0,1,1.063,,0,186,186,145,1,pseudoword,0,REAL,FALSA
,,,,,,,,,613914cbb1f633800a5b53d1,001,2025-04-30_23h36.01.783,empathy_intonation_perc,2024.1.4,MacIntel,166.6666667,,,,,,,,,,,,,,96,caro,,,,,,407.865,409.131,1,0,0.734,,0,187,187,95,1,non_cognate,1,REAL,FALSA
,,,,,,,,,613914cbb1f633800a5b53d1,001,2025-04-30_23h36.01.783,empathy_intonation_perc,2024.1.4,MacIntel,166.6666667,,,,,,,,,,,,,,148,gino,,,,,,409.131,410.648,0,1,0.996,,0,188,188,147,1,pseudoword,0,REAL,FALSA
,,,,,,,,,613914cbb1f633800a5b53d1,001,2025-04-30_23h36.01.783,empathy_intonation_perc,2024.1.4,MacIntel,166.6666667,,,,,,,,,,,,,,47,color,,,,,,410.648,411.965,1,0,0.788,,0,189,189,46,1,two_way_cognate,1,REAL,FALSA
,,,,,,,,,613914cbb1f633800a5b53d1,001,2025-04-30_23h36.01.783,empathy_intonation_perc,2024.1.4,MacIntel,166.6666667,,,,,,,,,,,,,,142,parre,,,,,,411.966,414.181,1,0,1.676,,0,190,190,141,1,pseudoword,0,REAL,FALSA
,,,,,,,,,613914cbb1f633800a5b53d1,001,2025-04-30_23h36.01.783,empathy_intonation_perc,2024.1.4,MacIntel,166.6666667,,,,,,,,,,,,,,20,trauma,,,,,,414.182,415.598,1,0,0.882,,0,191,191,19,1,three_way_cognate,1,REAL,FALSA
