lextale_instructions.started,lextale_instructions.stopped,lextale_instructions_loop.thisRepN,lextale_instructions_loop.thisTrialN,lextale_instructions_loop.thisN,lextale_instructions_loop.thisIndex,lextale_instructions_loop.ran,instructions_text,continue_text,participant,session,date,expName,psychopyVersion,OS,frameRate,lextale_practice.started,lextale_practice.stopped,key_resp_lextale_practice.keys,key_resp_lextale_practice.corr,key_resp_lextale_practice.rt,key_resp_lextale_practice.duration,lextale_practice_feedback.started,lextale_practice_feedback.stopped,lextale_practice_trials.thisRepN,lextale_practice_trials.thisTrialN,lextale_practice_trials.thisN,lextale_practice_trials.thisIndex,lextale_practice_trials.ran,stim,word,correct_response,prac_button_real,prac_button_false,lextale_check.started,lextale_check.stopped,lextale_trial.started,lextale_trial.stopped,key_resp_lextale_trial.keys,key_resp_lextale_trial.corr,key_resp_lextale_trial.rt,key_resp_lextale_trial.duration,lextail_trials.thisRepN,lextail_trials.thisTrialN,lextail_trials.thisN,lextail_trials.thisIndex,lextail_trials.ran,type,correct_reponse,button_real,button_false
0.0058,13.4183,0,0,0,0,1,"Este es un test de vocabulario en español. 
  
  A continuación vas a ver 90 secuencias de letras que parecen 'españolas'.
  
  Solo algunas de ellas son palabras de verdad.",(presiona la barra espaciadora para continuar),61545686d49a33dab8587297,001,2025-04-30_17h45.57.396,empathy_intonation_perc,2024.1.4,Win32,60.24096386,,,,,,,,,,,,,,,,,,,,,,,,,,,,,,,,,,,
13.4198,23.7654,0,1,1,1,1,"Por favor, señala las palabras que tú conoces (aquellas que estás convencido que son palabras españolas, incluso aunque no seas capaz de dar el significado preciso).",(presiona la barra espaciadora para continuar),61545686d49a33dab8587297,001,2025-04-30_17h45.57.396,empathy_intonation_perc,2024.1.4,Win32,60.24096386,,,,,,,,,,,,,,,,,,,,,,,,,,,,,,,,,,,
23.7673,31.1611,0,2,2,2,1,Pero cuidado: los errores se penalizan. Por eso no tiene sentido tratar de incrementar tu puntuación marcando como reales palabras que nunca has visto.,(presiona la barra espaciadora para continuar),61545686d49a33dab8587297,001,2025-04-30_17h45.57.396,empathy_intonation_perc,2024.1.4,Win32,60.24096386,,,,,,,,,,,,,,,,,,,,,,,,,,,,,,,,,,,
31.1622,36.0126,0,3,3,3,1,"Presiona la tecla 1 si piensas que es una palabra real y la tecla 
  0 si piensas que es una palabra falsa. 
  
  Vamos a practicar un poco...",(presiona la barra espaciadora para continuar),61545686d49a33dab8587297,001,2025-04-30_17h45.57.396,empathy_intonation_perc,2024.1.4,Win32,60.24096386,,,,,,,,,,,,,,,,,,,,,,,,,,,,,,,,,,,
,,,,,,,,,61545686d49a33dab8587297,001,2025-04-30_17h45.57.396,empathy_intonation_perc,2024.1.4,Win32,60.24096386,36.0226,37.7456,0,1,1.1866,,37.7464,38.7457,0,0,0,0,1,0,depiste,0,REAL,FALSA,,,,,,,,,,,,,,,,,
,,,,,,,,,61545686d49a33dab8587297,001,2025-04-30_17h45.57.396,empathy_intonation_perc,2024.1.4,Win32,60.24096386,38.7474,39.9454,1,1,0.6552,,39.9456,40.9439,0,1,1,1,1,0,sí,1,REAL,FALSA,,,,,,,,,,,,,,,,,
,,,,,,,,,61545686d49a33dab8587297,001,2025-04-30_17h45.57.396,empathy_intonation_perc,2024.1.4,Win32,60.24096386,40.9455,42.1436,0,1,0.6522,,42.1441,43.1437,0,2,2,2,1,0,coné,0,REAL,FALSA,,,,,,,,,,,,,,,,,
,,,,,,,,,61545686d49a33dab8587297,001,2025-04-30_17h45.57.396,empathy_intonation_perc,2024.1.4,Win32,60.24096386,43.1451,44.5451,0,1,0.8556,,44.5452,45.5432,0,3,3,3,1,0,calpar,0,REAL,FALSA,,,,,,,,,,,,,,,,,
,,,,,,,,,61545686d49a33dab8587297,001,2025-04-30_17h45.57.396,empathy_intonation_perc,2024.1.4,Win32,60.24096386,45.545,46.7174,0,1,0.6357,,46.7175,47.7108,0,4,4,4,1,0,joten,0,REAL,FALSA,,,,,,,,,,,,,,,,,
,,,,,,,,,61545686d49a33dab8587297,001,2025-04-30_17h45.57.396,empathy_intonation_perc,2024.1.4,Win32,60.24096386,47.7122,49.2934,0,0,1.0372,,49.2936,50.2927,0,5,5,5,1,0,sacapuntas,1,REAL,FALSA,,,,,,,,,,,,,,,,,
,,,,,,,,,61545686d49a33dab8587297,001,2025-04-30_17h45.57.396,empathy_intonation_perc,2024.1.4,Win32,60.24096386,50.2943,51.5166,0,1,0.6845,,51.5167,52.5098,0,6,6,6,1,0,priba,0,REAL,FALSA,,,,,,,,,,,,,,,,,
,,,,,,,,,61545686d49a33dab8587297,001,2025-04-30_17h45.57.396,empathy_intonation_perc,2024.1.4,Win32,60.24096386,52.5112,53.9261,0,1,0.8716,,53.9264,54.9254,0,7,7,7,1,0,pelasula,0,REAL,FALSA,,,,,,,,,,,,,,,,,
,,,,,,,,,61545686d49a33dab8587297,001,2025-04-30_17h45.57.396,empathy_intonation_perc,2024.1.4,Win32,60.24096386,54.927,56.0266,1,1,0.5595,,56.0268,57.0254,0,8,8,8,1,0,bien,1,REAL,FALSA,,,,,,,,,,,,,,,,,
,,,,,,,,,61545686d49a33dab8587297,001,2025-04-30_17h45.57.396,empathy_intonation_perc,2024.1.4,Win32,60.24096386,57.0271,58.0611,1,1,0.4945,,58.0612,59.0584,0,9,9,9,1,0,casa,1,REAL,FALSA,,,,,,,,,,,,,,,,,
,,,,,,,,,61545686d49a33dab8587297,001,2025-04-30_17h45.57.396,empathy_intonation_perc,2024.1.4,Win32,60.24096386,59.0599,60.1588,1,0,0.5549,,60.159,61.1576,0,10,10,10,1,0,lejo,0,REAL,FALSA,,,,,,,,,,,,,,,,,
,,,,,,,,,61545686d49a33dab8587297,001,2025-04-30_17h45.57.396,empathy_intonation_perc,2024.1.4,Win32,60.24096386,61.1595,62.4613,0,1,0.7646,,62.4617,63.4578,0,11,11,11,1,0,pretantas,0,REAL,FALSA,,,,,,,,,,,,,,,,,
,,,,,,,,,61545686d49a33dab8587297,001,2025-04-30_17h45.57.396,empathy_intonation_perc,2024.1.4,Win32,60.24096386,,,,,,,,,,,,,,,,,,,63.4594,66.5237,,,,,,,,,,,,,,,
,,,,,,,,,61545686d49a33dab8587297,001,2025-04-30_17h45.57.396,empathy_intonation_perc,2024.1.4,Win32,60.24096386,,,,,,,,,,,,,,73,llevar,,,,,,66.5575,67.9589,1,0,0.8546,,0,0,0,72,1,non_cognate,1,REAL,FALSA
,,,,,,,,,61545686d49a33dab8587297,001,2025-04-30_17h45.57.396,empathy_intonation_perc,2024.1.4,Win32,60.24096386,,,,,,,,,,,,,,147,alla,,,,,,67.9606,69.5399,1,0,1.0379,,0,1,1,146,1,pseudoword,0,REAL,FALSA
,,,,,,,,,61545686d49a33dab8587297,001,2025-04-30_17h45.57.396,empathy_intonation_perc,2024.1.4,Win32,60.24096386,,,,,,,,,,,,,,154,harvé,,,,,,69.5417,71.0571,0,1,0.9873,,0,2,2,153,1,pseudoword,0,REAL,FALSA
,,,,,,,,,61545686d49a33dab8587297,001,2025-04-30_17h45.57.396,empathy_intonation_perc,2024.1.4,Win32,60.24096386,,,,,,,,,,,,,,50,sierra,,,,,,71.0581,72.312,1,0,0.7153,,0,3,3,49,1,non_cognate,1,REAL,FALSA
,,,,,,,,,61545686d49a33dab8587297,001,2025-04-30_17h45.57.396,empathy_intonation_perc,2024.1.4,Win32,60.24096386,,,,,,,,,,,,,,64,rizado,,,,,,72.3135,73.7734,1,0,0.9223,,0,4,4,63,1,non_cognate,1,REAL,FALSA
,,,,,,,,,61545686d49a33dab8587297,001,2025-04-30_17h45.57.396,empathy_intonation_perc,2024.1.4,Win32,60.24096386,,,,,,,,,,,,,,112,samón,,,,,,73.7747,74.9899,0,1,0.672,,0,5,5,111,1,pseudoword,0,REAL,FALSA
,,,,,,,,,61545686d49a33dab8587297,001,2025-04-30_17h45.57.396,empathy_intonation_perc,2024.1.4,Win32,60.24096386,,,,,,,,,,,,,,42,rumor,,,,,,74.9912,76.2102,1,0,0.6815,,0,6,6,41,1,two_way_cognate,1,REAL,FALSA
,,,,,,,,,61545686d49a33dab8587297,001,2025-04-30_17h45.57.396,empathy_intonation_perc,2024.1.4,Win32,60.24096386,,,,,,,,,,,,,,168,cobén,,,,,,76.2113,77.5299,0,1,0.7856,,0,7,7,167,1,pseudoword,0,REAL,FALSA
,,,,,,,,,61545686d49a33dab8587297,001,2025-04-30_17h45.57.396,empathy_intonation_perc,2024.1.4,Win32,60.24096386,,,,,,,,,,,,,,21,hotel,,,,,,77.5311,78.5632,1,0,0.5022,,0,8,8,20,1,three_way_cognate,1,REAL,FALSA
,,,,,,,,,61545686d49a33dab8587297,001,2025-04-30_17h45.57.396,empathy_intonation_perc,2024.1.4,Win32,60.24096386,,,,,,,,,,,,,,169,pitis,,,,,,78.5647,79.8091,0,1,0.7147,,0,9,9,168,1,pseudoword,0,REAL,FALSA
,,,,,,,,,61545686d49a33dab8587297,001,2025-04-30_17h45.57.396,empathy_intonation_perc,2024.1.4,Win32,60.24096386,,,,,,,,,,,,,,32,animal,,,,,,79.8105,80.8899,1,0,0.5387,,0,10,10,31,1,two_way_cognate,1,REAL,FALSA
,,,,,,,,,61545686d49a33dab8587297,001,2025-04-30_17h45.57.396,empathy_intonation_perc,2024.1.4,Win32,60.24096386,,,,,,,,,,,,,,152,prave,,,,,,80.8916,82.162,0,1,0.735,,0,11,11,151,1,pseudoword,0,REAL,FALSA
,,,,,,,,,61545686d49a33dab8587297,001,2025-04-30_17h45.57.396,empathy_intonation_perc,2024.1.4,Win32,60.24096386,,,,,,,,,,,,,,16,chat,,,,,,82.1634,83.4784,0,1,0.7843,,0,12,12,15,1,three_way_cognate,1,REAL,FALSA
,,,,,,,,,61545686d49a33dab8587297,001,2025-04-30_17h45.57.396,empathy_intonation_perc,2024.1.4,Win32,60.24096386,,,,,,,,,,,,,,123,arane,,,,,,83.4801,84.7075,0,1,0.6969,,0,13,13,122,1,pseudoword,0,REAL,FALSA
,,,,,,,,,61545686d49a33dab8587297,001,2025-04-30_17h45.57.396,empathy_intonation_perc,2024.1.4,Win32,60.24096386,,,,,,,,,,,,,,179,suelet,,,,,,84.709,86.3052,1,0,1.0539,,0,14,14,178,1,pseudoword,0,REAL,FALSA
,,,,,,,,,61545686d49a33dab8587297,001,2025-04-30_17h45.57.396,empathy_intonation_perc,2024.1.4,Win32,60.24096386,,,,,,,,,,,,,,111,monue,,,,,,86.3067,88.0216,0,1,1.1721,,0,15,15,110,1,pseudoword,0,REAL,FALSA
,,,,,,,,,61545686d49a33dab8587297,001,2025-04-30_17h45.57.396,empathy_intonation_perc,2024.1.4,Win32,60.24096386,,,,,,,,,,,,,,103,vueras,,,,,,88.023,89.1216,0,1,0.5554,,0,16,16,102,1,pseudoword,0,REAL,FALSA
,,,,,,,,,61545686d49a33dab8587297,001,2025-04-30_17h45.57.396,empathy_intonation_perc,2024.1.4,Win32,60.24096386,,,,,,,,,,,,,,97,nocita,,,,,,89.1229,90.6883,0,1,1.0214,,0,17,17,96,1,pseudoword,0,REAL,FALSA
,,,,,,,,,61545686d49a33dab8587297,001,2025-04-30_17h45.57.396,empathy_intonation_perc,2024.1.4,Win32,60.24096386,,,,,,,,,,,,,,9,portal,,,,,,90.6896,91.808,1,0,0.5966,,0,18,18,8,1,three_way_cognate,1,REAL,FALSA
,,,,,,,,,61545686d49a33dab8587297,001,2025-04-30_17h45.57.396,empathy_intonation_perc,2024.1.4,Win32,60.24096386,,,,,,,,,,,,,,189,medium,,,,,,91.8091,92.8377,1,0,0.4875,,0,19,19,188,1,pseudoword,0,REAL,FALSA
,,,,,,,,,61545686d49a33dab8587297,001,2025-04-30_17h45.57.396,empathy_intonation_perc,2024.1.4,Win32,60.24096386,,,,,,,,,,,,,,177,entodo,,,,,,92.8394,94.4419,0,1,1.0646,,0,20,20,176,1,pseudoword,0,REAL,FALSA
,,,,,,,,,61545686d49a33dab8587297,001,2025-04-30_17h45.57.396,empathy_intonation_perc,2024.1.4,Win32,60.24096386,,,,,,,,,,,,,,84,aviso,,,,,,94.4433,95.654,1,0,0.6729,,0,21,21,83,1,non_cognate,1,REAL,FALSA
,,,,,,,,,61545686d49a33dab8587297,001,2025-04-30_17h45.57.396,empathy_intonation_perc,2024.1.4,Win32,60.24096386,,,,,,,,,,,,,,19,mafia,,,,,,95.655,96.853,1,0,0.6543,,0,22,22,18,1,three_way_cognate,1,REAL,FALSA
,,,,,,,,,61545686d49a33dab8587297,001,2025-04-30_17h45.57.396,empathy_intonation_perc,2024.1.4,Win32,60.24096386,,,,,,,,,,,,,,128,pelí,,,,,,96.8553,98.2868,1,0,0.889,,0,23,23,127,1,pseudoword,0,REAL,FALSA
,,,,,,,,,61545686d49a33dab8587297,001,2025-04-30_17h45.57.396,empathy_intonation_perc,2024.1.4,Win32,60.24096386,,,,,,,,,,,,,,70,ánimo,,,,,,98.2893,99.3371,1,0,0.5044,,0,24,24,69,1,non_cognate,1,REAL,FALSA
,,,,,,,,,61545686d49a33dab8587297,001,2025-04-30_17h45.57.396,empathy_intonation_perc,2024.1.4,Win32,60.24096386,,,,,,,,,,,,,,23,plural,,,,,,99.3392,100.4194,1,0,0.5397,,0,25,25,22,1,three_way_cognate,1,REAL,FALSA
,,,,,,,,,61545686d49a33dab8587297,001,2025-04-30_17h45.57.396,empathy_intonation_perc,2024.1.4,Win32,60.24096386,,,,,,,,,,,,,,150,cricó,,,,,,100.421,101.6604,0,1,0.7019,,0,26,26,149,1,pseudoword,0,REAL,FALSA
,,,,,,,,,61545686d49a33dab8587297,001,2025-04-30_17h45.57.396,empathy_intonation_perc,2024.1.4,Win32,60.24096386,,,,,,,,,,,,,,60,siglo,,,,,,101.6617,102.7367,1,0,0.5389,,0,27,27,59,1,non_cognate,1,REAL,FALSA
,,,,,,,,,61545686d49a33dab8587297,001,2025-04-30_17h45.57.396,empathy_intonation_perc,2024.1.4,Win32,60.24096386,,,,,,,,,,,,,,31,civil,,,,,,102.7379,103.8356,1,0,0.5549,,0,28,28,30,1,two_way_cognate,1,REAL,FALSA
,,,,,,,,,61545686d49a33dab8587297,001,2025-04-30_17h45.57.396,empathy_intonation_perc,2024.1.4,Win32,60.24096386,,,,,,,,,,,,,,76,chocar,,,,,,103.8375,104.9763,1,0,0.6019,,0,29,29,75,1,non_cognate,1,REAL,FALSA
,,,,,,,,,61545686d49a33dab8587297,001,2025-04-30_17h45.57.396,empathy_intonation_perc,2024.1.4,Win32,60.24096386,,,,,,,,,,,,,,161,civas,,,,,,104.9779,106.0863,1,0,0.5716,,0,30,30,160,1,pseudoword,0,REAL,FALSA
,,,,,,,,,61545686d49a33dab8587297,001,2025-04-30_17h45.57.396,empathy_intonation_perc,2024.1.4,Win32,60.24096386,,,,,,,,,,,,,,61,aduana,,,,,,106.088,107.6533,1,0,1.0381,,0,31,31,60,1,non_cognate,1,REAL,FALSA
,,,,,,,,,61545686d49a33dab8587297,001,2025-04-30_17h45.57.396,empathy_intonation_perc,2024.1.4,Win32,60.24096386,,,,,,,,,,,,,,126,tobre,,,,,,107.6548,108.8684,0,1,0.6715,,0,32,32,125,1,pseudoword,0,REAL,FALSA
,,,,,,,,,61545686d49a33dab8587297,001,2025-04-30_17h45.57.396,empathy_intonation_perc,2024.1.4,Win32,60.24096386,,,,,,,,,,,,,,99,bugor,,,,,,108.8708,110.0024,0,1,0.5882,,0,33,33,98,1,pseudoword,0,REAL,FALSA
,,,,,,,,,61545686d49a33dab8587297,001,2025-04-30_17h45.57.396,empathy_intonation_perc,2024.1.4,Win32,60.24096386,,,,,,,,,,,,,,134,molor,,,,,,110.0039,111.3737,0,1,0.833,,0,34,34,133,1,pseudoword,0,REAL,FALSA
,,,,,,,,,61545686d49a33dab8587297,001,2025-04-30_17h45.57.396,empathy_intonation_perc,2024.1.4,Win32,60.24096386,,,,,,,,,,,,,,127,vien,,,,,,111.3751,112.3684,1,0,0.4571,,0,35,35,126,1,pseudoword,0,REAL,FALSA
,,,,,,,,,61545686d49a33dab8587297,001,2025-04-30_17h45.57.396,empathy_intonation_perc,2024.1.4,Win32,60.24096386,,,,,,,,,,,,,,35,aurora,,,,,,112.3698,113.6686,1,0,0.7564,,0,36,36,34,1,two_way_cognate,1,REAL,FALSA
,,,,,,,,,61545686d49a33dab8587297,001,2025-04-30_17h45.57.396,empathy_intonation_perc,2024.1.4,Win32,60.24096386,,,,,,,,,,,,,,101,losco,,,,,,113.6699,114.8706,0,1,0.6635,,0,37,37,100,1,pseudoword,0,REAL,FALSA
,,,,,,,,,61545686d49a33dab8587297,001,2025-04-30_17h45.57.396,empathy_intonation_perc,2024.1.4,Win32,60.24096386,,,,,,,,,,,,,,91,equipo,,,,,,114.8721,115.9409,1,0,0.535,,0,38,38,90,1,non_cognate,1,REAL,FALSA
,,,,,,,,,61545686d49a33dab8587297,001,2025-04-30_17h45.57.396,empathy_intonation_perc,2024.1.4,Win32,60.24096386,,,,,,,,,,,,,,11,golf,,,,,,115.9424,117.0185,1,0,0.5414,,0,39,39,10,1,three_way_cognate,1,REAL,FALSA
,,,,,,,,,61545686d49a33dab8587297,001,2025-04-30_17h45.57.396,empathy_intonation_perc,2024.1.4,Win32,60.24096386,,,,,,,,,,,,,,87,muleta,,,,,,117.0199,118.5588,1,0,1.0021,,0,40,40,86,1,non_cognate,1,REAL,FALSA
,,,,,,,,,61545686d49a33dab8587297,001,2025-04-30_17h45.57.396,empathy_intonation_perc,2024.1.4,Win32,60.24096386,,,,,,,,,,,,,,180,pupica,,,,,,118.5598,119.9511,0,1,0.8556,,0,41,41,179,1,pseudoword,0,REAL,FALSA
,,,,,,,,,61545686d49a33dab8587297,001,2025-04-30_17h45.57.396,empathy_intonation_perc,2024.1.4,Win32,60.24096386,,,,,,,,,,,,,,6,horror,,,,,,119.9524,121.0507,1,0,0.5546,,0,42,42,5,1,three_way_cognate,1,REAL,FALSA
,,,,,,,,,61545686d49a33dab8587297,001,2025-04-30_17h45.57.396,empathy_intonation_perc,2024.1.4,Win32,60.24096386,,,,,,,,,,,,,,133,conso,,,,,,121.0527,122.2349,0,1,0.643,,0,43,43,132,1,pseudoword,0,REAL,FALSA
,,,,,,,,,61545686d49a33dab8587297,001,2025-04-30_17h45.57.396,empathy_intonation_perc,2024.1.4,Win32,60.24096386,,,,,,,,,,,,,,100,épinas,,,,,,122.2361,123.6178,0,1,0.841,,0,44,44,99,1,pseudoword,0,REAL,FALSA
,,,,,,,,,61545686d49a33dab8587297,001,2025-04-30_17h45.57.396,empathy_intonation_perc,2024.1.4,Win32,60.24096386,,,,,,,,,,,,,,176,gripar,,,,,,123.6194,124.9886,1,0,0.8336,,0,45,45,175,1,pseudoword,0,REAL,FALSA
,,,,,,,,,61545686d49a33dab8587297,001,2025-04-30_17h45.57.396,empathy_intonation_perc,2024.1.4,Win32,60.24096386,,,,,,,,,,,,,,78,rendir,,,,,,124.9901,126.3565,0,1,0.8345,,0,46,46,77,1,non_cognate,1,REAL,FALSA
,,,,,,,,,61545686d49a33dab8587297,001,2025-04-30_17h45.57.396,empathy_intonation_perc,2024.1.4,Win32,60.24096386,,,,,,,,,,,,,,24,retina,,,,,,126.3579,127.5839,1,0,0.6935,,0,47,47,23,1,three_way_cognate,1,REAL,FALSA
,,,,,,,,,61545686d49a33dab8587297,001,2025-04-30_17h45.57.396,empathy_intonation_perc,2024.1.4,Win32,60.24096386,,,,,,,,,,,,,,173,mibro,,,,,,127.5854,128.8734,0,1,0.7516,,0,48,48,172,1,pseudoword,0,REAL,FALSA
,,,,,,,,,61545686d49a33dab8587297,001,2025-04-30_17h45.57.396,empathy_intonation_perc,2024.1.4,Win32,60.24096386,,,,,,,,,,,,,,45,total,,,,,,128.8749,129.866,1,0,0.4585,,0,49,49,44,1,two_way_cognate,1,REAL,FALSA
,,,,,,,,,61545686d49a33dab8587297,001,2025-04-30_17h45.57.396,empathy_intonation_perc,2024.1.4,Win32,60.24096386,,,,,,,,,,,,,,98,martir,,,,,,129.8673,131.1995,0,1,0.7878,,0,50,50,97,1,pseudoword,0,REAL,FALSA
,,,,,,,,,61545686d49a33dab8587297,001,2025-04-30_17h45.57.396,empathy_intonation_perc,2024.1.4,Win32,60.24096386,,,,,,,,,,,,,,18,altar,,,,,,131.2012,132.3188,1,0,0.5814,,0,51,51,17,1,three_way_cognate,1,REAL,FALSA
,,,,,,,,,61545686d49a33dab8587297,001,2025-04-30_17h45.57.396,empathy_intonation_perc,2024.1.4,Win32,60.24096386,,,,,,,,,,,,,,39,casual,,,,,,132.3199,133.5226,1,0,0.6685,,0,52,52,38,1,two_way_cognate,1,REAL,FALSA
,,,,,,,,,61545686d49a33dab8587297,001,2025-04-30_17h45.57.396,empathy_intonation_perc,2024.1.4,Win32,60.24096386,,,,,,,,,,,,,,34,actor,,,,,,133.524,134.9652,1,0,0.9033,,0,53,53,33,1,two_way_cognate,1,REAL,FALSA
,,,,,,,,,61545686d49a33dab8587297,001,2025-04-30_17h45.57.396,empathy_intonation_perc,2024.1.4,Win32,60.24096386,,,,,,,,,,,,,,57,regalo,,,,,,134.9672,135.9987,1,0,0.4909,,0,54,54,56,1,non_cognate,1,REAL,FALSA
,,,,,,,,,61545686d49a33dab8587297,001,2025-04-30_17h45.57.396,empathy_intonation_perc,2024.1.4,Win32,60.24096386,,,,,,,,,,,,,,109,laras,,,,,,136.0004,137.1555,0,1,0.6185,,0,55,55,108,1,pseudoword,0,REAL,FALSA
,,,,,,,,,61545686d49a33dab8587297,001,2025-04-30_17h45.57.396,empathy_intonation_perc,2024.1.4,Win32,60.24096386,,,,,,,,,,,,,,157,seled,,,,,,137.1572,138.2484,0,1,0.5542,,0,56,56,156,1,pseudoword,0,REAL,FALSA
,,,,,,,,,61545686d49a33dab8587297,001,2025-04-30_17h45.57.396,empathy_intonation_perc,2024.1.4,Win32,60.24096386,,,,,,,,,,,,,,46,mortal,,,,,,138.2499,139.7482,1,0,0.9586,,0,57,57,45,1,two_way_cognate,1,REAL,FALSA
,,,,,,,,,61545686d49a33dab8587297,001,2025-04-30_17h45.57.396,empathy_intonation_perc,2024.1.4,Win32,60.24096386,,,,,,,,,,,,,,13,plan,,,,,,139.7498,140.8714,1,0,0.5847,,0,58,58,12,1,three_way_cognate,1,REAL,FALSA
,,,,,,,,,61545686d49a33dab8587297,001,2025-04-30_17h45.57.396,empathy_intonation_perc,2024.1.4,Win32,60.24096386,,,,,,,,,,,,,,88,percha,,,,,,140.8729,142.0147,0,1,0.6045,,0,59,59,87,1,non_cognate,1,REAL,FALSA
,,,,,,,,,61545686d49a33dab8587297,001,2025-04-30_17h45.57.396,empathy_intonation_perc,2024.1.4,Win32,60.24096386,,,,,,,,,,,,,,41,pasta,,,,,,142.016,143.184,1,0,0.6259,,0,60,60,40,1,two_way_cognate,1,REAL,FALSA
,,,,,,,,,61545686d49a33dab8587297,001,2025-04-30_17h45.57.396,empathy_intonation_perc,2024.1.4,Win32,60.24096386,,,,,,,,,,,,,,118,bará,,,,,,143.1853,144.7192,0,1,1.0001,,0,61,61,117,1,pseudoword,0,REAL,FALSA
,,,,,,,,,61545686d49a33dab8587297,001,2025-04-30_17h45.57.396,empathy_intonation_perc,2024.1.4,Win32,60.24096386,,,,,,,,,,,,,,119,esís,,,,,,144.7205,145.948,0,1,0.6942,,0,62,62,118,1,pseudoword,0,REAL,FALSA
,,,,,,,,,61545686d49a33dab8587297,001,2025-04-30_17h45.57.396,empathy_intonation_perc,2024.1.4,Win32,60.24096386,,,,,,,,,,,,,,27,piano,,,,,,145.9503,146.986,1,0,0.5,,0,63,63,26,1,two_way_cognate,1,REAL,FALSA
,,,,,,,,,61545686d49a33dab8587297,001,2025-04-30_17h45.57.396,empathy_intonation_perc,2024.1.4,Win32,60.24096386,,,,,,,,,,,,,,158,babrá,,,,,,146.9872,148.222,0,1,0.7021,,0,64,64,157,1,pseudoword,0,REAL,FALSA
,,,,,,,,,61545686d49a33dab8587297,001,2025-04-30_17h45.57.396,empathy_intonation_perc,2024.1.4,Win32,60.24096386,,,,,,,,,,,,,,185,aljizo,,,,,,148.223,149.4974,0,1,0.7398,,0,65,65,184,1,pseudoword,0,REAL,FALSA
,,,,,,,,,61545686d49a33dab8587297,001,2025-04-30_17h45.57.396,empathy_intonation_perc,2024.1.4,Win32,60.24096386,,,,,,,,,,,,,,175,tradía,,,,,,149.4987,150.7208,0,1,0.6852,,0,66,66,174,1,pseudoword,0,REAL,FALSA
,,,,,,,,,61545686d49a33dab8587297,001,2025-04-30_17h45.57.396,empathy_intonation_perc,2024.1.4,Win32,60.24096386,,,,,,,,,,,,,,102,coyo,,,,,,150.7222,151.8848,0,1,0.6313,,0,67,67,101,1,pseudoword,0,REAL,FALSA
,,,,,,,,,61545686d49a33dab8587297,001,2025-04-30_17h45.57.396,empathy_intonation_perc,2024.1.4,Win32,60.24096386,,,,,,,,,,,,,,5,extra,,,,,,151.8864,152.947,1,0,0.5186,,0,68,68,4,1,three_way_cognate,1,REAL,FALSA
,,,,,,,,,61545686d49a33dab8587297,001,2025-04-30_17h45.57.396,empathy_intonation_perc,2024.1.4,Win32,60.24096386,,,,,,,,,,,,,,51,listo,,,,,,152.948,153.9963,1,0,0.5222,,0,69,69,50,1,non_cognate,1,REAL,FALSA
,,,,,,,,,61545686d49a33dab8587297,001,2025-04-30_17h45.57.396,empathy_intonation_perc,2024.1.4,Win32,60.24096386,,,,,,,,,,,,,,52,blando,,,,,,153.9972,155.1656,0,1,0.6294,,0,70,70,51,1,non_cognate,1,REAL,FALSA
,,,,,,,,,61545686d49a33dab8587297,001,2025-04-30_17h45.57.396,empathy_intonation_perc,2024.1.4,Win32,60.24096386,,,,,,,,,,,,,,17,clan,,,,,,155.1665,156.5293,1,0,0.8222,,0,71,71,16,1,three_way_cognate,1,REAL,FALSA
,,,,,,,,,61545686d49a33dab8587297,001,2025-04-30_17h45.57.396,empathy_intonation_perc,2024.1.4,Win32,60.24096386,,,,,,,,,,,,,,58,colcha,,,,,,156.5306,157.7041,0,1,0.6365,,0,72,72,57,1,non_cognate,1,REAL,FALSA
,,,,,,,,,61545686d49a33dab8587297,001,2025-04-30_17h45.57.396,empathy_intonation_perc,2024.1.4,Win32,60.24096386,,,,,,,,,,,,,,191,frasis,,,,,,157.7055,158.8793,0,1,0.6382,,0,73,73,190,1,pseudoword,0,REAL,FALSA
,,,,,,,,,61545686d49a33dab8587297,001,2025-04-30_17h45.57.396,empathy_intonation_perc,2024.1.4,Win32,60.24096386,,,,,,,,,,,,,,186,rizate,,,,,,158.8807,160.1362,0,1,0.7183,,0,74,74,185,1,pseudoword,0,REAL,FALSA
,,,,,,,,,61545686d49a33dab8587297,001,2025-04-30_17h45.57.396,empathy_intonation_perc,2024.1.4,Win32,60.24096386,,,,,,,,,,,,,,85,enorme,,,,,,160.1376,161.1624,1,0,0.488,,0,75,75,84,1,non_cognate,1,REAL,FALSA
,,,,,,,,,61545686d49a33dab8587297,001,2025-04-30_17h45.57.396,empathy_intonation_perc,2024.1.4,Win32,60.24096386,,,,,,,,,,,,,,96,caro,,,,,,161.1635,162.2012,1,0,0.5007,,0,76,76,95,1,non_cognate,1,REAL,FALSA
,,,,,,,,,61545686d49a33dab8587297,001,2025-04-30_17h45.57.396,empathy_intonation_perc,2024.1.4,Win32,60.24096386,,,,,,,,,,,,,,121,barbs,,,,,,162.203,163.3118,0,1,0.571,,0,77,77,120,1,pseudoword,0,REAL,FALSA
,,,,,,,,,61545686d49a33dab8587297,001,2025-04-30_17h45.57.396,empathy_intonation_perc,2024.1.4,Win32,60.24096386,,,,,,,,,,,,,,90,venado,,,,,,163.3135,164.4284,0,1,0.5735,,0,78,78,89,1,non_cognate,1,REAL,FALSA
,,,,,,,,,61545686d49a33dab8587297,001,2025-04-30_17h45.57.396,empathy_intonation_perc,2024.1.4,Win32,60.24096386,,,,,,,,,,,,,,56,pico,,,,,,164.4301,166.0454,1,0,1.0709,,0,79,79,55,1,non_cognate,1,REAL,FALSA
,,,,,,,,,61545686d49a33dab8587297,001,2025-04-30_17h45.57.396,empathy_intonation_perc,2024.1.4,Win32,60.24096386,,,,,,,,,,,,,,131,fuar,,,,,,166.0466,167.0998,0,1,0.5168,,0,80,80,130,1,pseudoword,0,REAL,FALSA
,,,,,,,,,61545686d49a33dab8587297,001,2025-04-30_17h45.57.396,empathy_intonation_perc,2024.1.4,Win32,60.24096386,,,,,,,,,,,,,,69,tiza,,,,,,167.1013,168.585,1,0,0.9517,,0,81,81,68,1,non_cognate,1,REAL,FALSA
,,,,,,,,,61545686d49a33dab8587297,001,2025-04-30_17h45.57.396,empathy_intonation_perc,2024.1.4,Win32,60.24096386,,,,,,,,,,,,,,149,emén,,,,,,168.5863,169.6347,0,1,0.5189,,0,82,82,148,1,pseudoword,0,REAL,FALSA
,,,,,,,,,61545686d49a33dab8587297,001,2025-04-30_17h45.57.396,empathy_intonation_perc,2024.1.4,Win32,60.24096386,,,,,,,,,,,,,,144,diroco,,,,,,169.6362,170.8309,0,1,0.6634,,0,83,83,143,1,pseudoword,0,REAL,FALSA
,,,,,,,,,61545686d49a33dab8587297,001,2025-04-30_17h45.57.396,empathy_intonation_perc,2024.1.4,Win32,60.24096386,,,,,,,,,,,,,,163,llzan,,,,,,170.833,172.0103,0,1,0.6404,,0,84,84,162,1,pseudoword,0,REAL,FALSA
,,,,,,,,,61545686d49a33dab8587297,001,2025-04-30_17h45.57.396,empathy_intonation_perc,2024.1.4,Win32,60.24096386,,,,,,,,,,,,,,74,ala,,,,,,172.0128,173.0107,0,1,0.4552,,0,85,85,73,1,non_cognate,1,REAL,FALSA
,,,,,,,,,61545686d49a33dab8587297,001,2025-04-30_17h45.57.396,empathy_intonation_perc,2024.1.4,Win32,60.24096386,,,,,,,,,,,,,,63,hilo,,,,,,173.0123,174.1773,0,1,0.6237,,0,86,86,62,1,non_cognate,1,REAL,FALSA
,,,,,,,,,61545686d49a33dab8587297,001,2025-04-30_17h45.57.396,empathy_intonation_perc,2024.1.4,Win32,60.24096386,,,,,,,,,,,,,,138,tator,,,,,,174.1784,175.5438,0,1,0.8212,,0,87,87,137,1,pseudoword,0,REAL,FALSA
,,,,,,,,,61545686d49a33dab8587297,001,2025-04-30_17h45.57.396,empathy_intonation_perc,2024.1.4,Win32,60.24096386,,,,,,,,,,,,,,156,ozoso,,,,,,175.5453,176.8266,0,1,0.7379,,0,88,88,155,1,pseudoword,0,REAL,FALSA
,,,,,,,,,61545686d49a33dab8587297,001,2025-04-30_17h45.57.396,empathy_intonation_perc,2024.1.4,Win32,60.24096386,,,,,,,,,,,,,,187,nomata,,,,,,176.8289,178.0762,0,1,0.7032,,0,89,89,186,1,pseudoword,0,REAL,FALSA
,,,,,,,,,61545686d49a33dab8587297,001,2025-04-30_17h45.57.396,empathy_intonation_perc,2024.1.4,Win32,60.24096386,,,,,,,,,,,,,,105,peniz,,,,,,178.0773,179.3659,0,1,0.7691,,0,90,90,104,1,pseudoword,0,REAL,FALSA
,,,,,,,,,61545686d49a33dab8587297,001,2025-04-30_17h45.57.396,empathy_intonation_perc,2024.1.4,Win32,60.24096386,,,,,,,,,,,,,,54,tapón,,,,,,179.3671,180.8268,1,0,0.9258,,0,91,91,53,1,non_cognate,1,REAL,FALSA
,,,,,,,,,61545686d49a33dab8587297,001,2025-04-30_17h45.57.396,empathy_intonation_perc,2024.1.4,Win32,60.24096386,,,,,,,,,,,,,,65,guerra,,,,,,180.8281,181.9594,1,0,0.5897,,0,92,92,64,1,non_cognate,1,REAL,FALSA
,,,,,,,,,61545686d49a33dab8587297,001,2025-04-30_17h45.57.396,empathy_intonation_perc,2024.1.4,Win32,60.24096386,,,,,,,,,,,,,,81,sacar,,,,,,181.961,183.0096,1,0,0.5054,,0,93,93,80,1,non_cognate,1,REAL,FALSA
,,,,,,,,,61545686d49a33dab8587297,001,2025-04-30_17h45.57.396,empathy_intonation_perc,2024.1.4,Win32,60.24096386,,,,,,,,,,,,,,108,jauda,,,,,,183.011,184.3092,0,1,0.7544,,0,94,94,107,1,pseudoword,0,REAL,FALSA
,,,,,,,,,61545686d49a33dab8587297,001,2025-04-30_17h45.57.396,empathy_intonation_perc,2024.1.4,Win32,60.24096386,,,,,,,,,,,,,,182,desaro,,,,,,184.3109,185.6589,0,1,0.8055,,0,95,95,181,1,pseudoword,0,REAL,FALSA
,,,,,,,,,61545686d49a33dab8587297,001,2025-04-30_17h45.57.396,empathy_intonation_perc,2024.1.4,Win32,60.24096386,,,,,,,,,,,,,,89,muñeca,,,,,,185.6604,186.8591,1,0,0.6551,,0,96,96,88,1,non_cognate,1,REAL,FALSA
,,,,,,,,,61545686d49a33dab8587297,001,2025-04-30_17h45.57.396,empathy_intonation_perc,2024.1.4,Win32,60.24096386,,,,,,,,,,,,,,110,densó,,,,,,186.8603,188.142,1,0,0.7383,,0,97,97,109,1,pseudoword,0,REAL,FALSA
,,,,,,,,,61545686d49a33dab8587297,001,2025-04-30_17h45.57.396,empathy_intonation_perc,2024.1.4,Win32,60.24096386,,,,,,,,,,,,,,59,feo,,,,,,188.143,189.5749,1,0,0.8883,,0,98,98,58,1,non_cognate,1,REAL,FALSA
,,,,,,,,,61545686d49a33dab8587297,001,2025-04-30_17h45.57.396,empathy_intonation_perc,2024.1.4,Win32,60.24096386,,,,,,,,,,,,,,164,tecia,,,,,,189.5764,190.8115,0,1,0.6983,,0,99,99,163,1,pseudoword,0,REAL,FALSA
,,,,,,,,,61545686d49a33dab8587297,001,2025-04-30_17h45.57.396,empathy_intonation_perc,2024.1.4,Win32,60.24096386,,,,,,,,,,,,,,49,teñir,,,,,,190.8132,192.175,0,1,0.8227,,0,100,100,48,1,non_cognate,1,REAL,FALSA
,,,,,,,,,61545686d49a33dab8587297,001,2025-04-30_17h45.57.396,empathy_intonation_perc,2024.1.4,Win32,60.24096386,,,,,,,,,,,,,,79,suelo,,,,,,192.1763,193.2075,1,0,0.4909,,0,101,101,78,1,non_cognate,1,REAL,FALSA
,,,,,,,,,61545686d49a33dab8587297,001,2025-04-30_17h45.57.396,empathy_intonation_perc,2024.1.4,Win32,60.24096386,,,,,,,,,,,,,,12,dogma,,,,,,193.2088,194.5589,0,1,0.8053,,0,102,102,11,1,three_way_cognate,1,REAL,FALSA
,,,,,,,,,61545686d49a33dab8587297,001,2025-04-30_17h45.57.396,empathy_intonation_perc,2024.1.4,Win32,60.24096386,,,,,,,,,,,,,,142,parre,,,,,,194.5604,195.6757,0,1,0.5764,,0,103,103,141,1,pseudoword,0,REAL,FALSA
,,,,,,,,,61545686d49a33dab8587297,001,2025-04-30_17h45.57.396,empathy_intonation_perc,2024.1.4,Win32,60.24096386,,,,,,,,,,,,,,137,trugo,,,,,,195.677,196.8124,0,1,0.5997,,0,104,104,136,1,pseudoword,0,REAL,FALSA
,,,,,,,,,61545686d49a33dab8587297,001,2025-04-30_17h45.57.396,empathy_intonation_perc,2024.1.4,Win32,60.24096386,,,,,,,,,,,,,,43,honor,,,,,,196.8137,197.81,1,0,0.4606,,0,105,105,42,1,two_way_cognate,1,REAL,FALSA
,,,,,,,,,61545686d49a33dab8587297,001,2025-04-30_17h45.57.396,empathy_intonation_perc,2024.1.4,Win32,60.24096386,,,,,,,,,,,,,,140,chorde,,,,,,197.8115,198.9574,0,1,0.6072,,0,106,106,139,1,pseudoword,0,REAL,FALSA
,,,,,,,,,61545686d49a33dab8587297,001,2025-04-30_17h45.57.396,empathy_intonation_perc,2024.1.4,Win32,60.24096386,,,,,,,,,,,,,,151,prías,,,,,,198.9588,200.1071,0,1,0.6084,,0,107,107,150,1,pseudoword,0,REAL,FALSA
,,,,,,,,,61545686d49a33dab8587297,001,2025-04-30_17h45.57.396,empathy_intonation_perc,2024.1.4,Win32,60.24096386,,,,,,,,,,,,,,166,anfia,,,,,,200.1087,201.1396,0,1,0.4886,,0,108,108,165,1,pseudoword,0,REAL,FALSA
,,,,,,,,,61545686d49a33dab8587297,001,2025-04-30_17h45.57.396,empathy_intonation_perc,2024.1.4,Win32,60.24096386,,,,,,,,,,,,,,55,maldad,,,,,,201.1415,202.3562,0,1,0.6721,,0,109,109,54,1,non_cognate,1,REAL,FALSA
,,,,,,,,,61545686d49a33dab8587297,001,2025-04-30_17h45.57.396,empathy_intonation_perc,2024.1.4,Win32,60.24096386,,,,,,,,,,,,,,37,torso,,,,,,202.3576,203.5088,1,0,0.611,,0,110,110,36,1,two_way_cognate,1,REAL,FALSA
,,,,,,,,,61545686d49a33dab8587297,001,2025-04-30_17h45.57.396,empathy_intonation_perc,2024.1.4,Win32,60.24096386,,,,,,,,,,,,,,40,pelvis,,,,,,203.51,204.6402,1,0,0.5879,,0,111,111,39,1,two_way_cognate,1,REAL,FALSA
,,,,,,,,,61545686d49a33dab8587297,001,2025-04-30_17h45.57.396,empathy_intonation_perc,2024.1.4,Win32,60.24096386,,,,,,,,,,,,,,159,trcia,,,,,,204.6418,205.7898,0,1,0.61,,0,112,112,158,1,pseudoword,0,REAL,FALSA
,,,,,,,,,61545686d49a33dab8587297,001,2025-04-30_17h45.57.396,empathy_intonation_perc,2024.1.4,Win32,60.24096386,,,,,,,,,,,,,,106,diebro,,,,,,205.7904,206.98,0,1,0.652,,0,113,113,105,1,pseudoword,0,REAL,FALSA
,,,,,,,,,61545686d49a33dab8587297,001,2025-04-30_17h45.57.396,empathy_intonation_perc,2024.1.4,Win32,60.24096386,,,,,,,,,,,,,,29,clamor,,,,,,206.9815,208.1451,0,1,0.6339,,0,114,114,28,1,two_way_cognate,1,REAL,FALSA
,,,,,,,,,61545686d49a33dab8587297,001,2025-04-30_17h45.57.396,empathy_intonation_perc,2024.1.4,Win32,60.24096386,,,,,,,,,,,,,,10,drama,,,,,,208.1469,209.1898,1,0,0.5062,,0,115,115,9,1,three_way_cognate,1,REAL,FALSA
,,,,,,,,,61545686d49a33dab8587297,001,2025-04-30_17h45.57.396,empathy_intonation_perc,2024.1.4,Win32,60.24096386,,,,,,,,,,,,,,184,huenos,,,,,,209.191,210.3124,0,1,0.5851,,0,116,116,183,1,pseudoword,0,REAL,FALSA
,,,,,,,,,61545686d49a33dab8587297,001,2025-04-30_17h45.57.396,empathy_intonation_perc,2024.1.4,Win32,60.24096386,,,,,,,,,,,,,,135,panté,,,,,,210.3137,211.4228,0,1,0.5742,,0,117,117,134,1,pseudoword,0,REAL,FALSA
,,,,,,,,,61545686d49a33dab8587297,001,2025-04-30_17h45.57.396,empathy_intonation_perc,2024.1.4,Win32,60.24096386,,,,,,,,,,,,,,113,nasce,,,,,,211.4243,212.4785,0,1,0.5177,,0,118,118,112,1,pseudoword,0,REAL,FALSA
,,,,,,,,,61545686d49a33dab8587297,001,2025-04-30_17h45.57.396,empathy_intonation_perc,2024.1.4,Win32,60.24096386,,,,,,,,,,,,,,33,collar,,,,,,212.4802,213.9388,0,1,0.9209,,0,119,119,32,1,two_way_cognate,1,REAL,FALSA
,,,,,,,,,61545686d49a33dab8587297,001,2025-04-30_17h45.57.396,empathy_intonation_perc,2024.1.4,Win32,60.24096386,,,,,,,,,,,,,,14,aura,,,,,,213.9404,215.1567,1,0,0.6776,,0,120,120,13,1,three_way_cognate,1,REAL,FALSA
,,,,,,,,,61545686d49a33dab8587297,001,2025-04-30_17h45.57.396,empathy_intonation_perc,2024.1.4,Win32,60.24096386,,,,,,,,,,,,,,36,viable,,,,,,215.1581,216.4957,0,1,0.8023,,0,121,121,35,1,two_way_cognate,1,REAL,FALSA
,,,,,,,,,61545686d49a33dab8587297,001,2025-04-30_17h45.57.396,empathy_intonation_perc,2024.1.4,Win32,60.24096386,,,,,,,,,,,,,,66,aleta,,,,,,216.4971,217.8884,0,1,0.8553,,0,122,122,65,1,non_cognate,1,REAL,FALSA
,,,,,,,,,61545686d49a33dab8587297,001,2025-04-30_17h45.57.396,empathy_intonation_perc,2024.1.4,Win32,60.24096386,,,,,,,,,,,,,,190,asumie,,,,,,217.8898,219.1089,0,1,0.6829,,0,123,123,189,1,pseudoword,0,REAL,FALSA
,,,,,,,,,61545686d49a33dab8587297,001,2025-04-30_17h45.57.396,empathy_intonation_perc,2024.1.4,Win32,60.24096386,,,,,,,,,,,,,,114,dibrea,,,,,,219.1104,220.3277,0,1,0.6852,,0,124,124,113,1,pseudoword,0,REAL,FALSA
,,,,,,,,,61545686d49a33dab8587297,001,2025-04-30_17h45.57.396,empathy_intonation_perc,2024.1.4,Win32,60.24096386,,,,,,,,,,,,,,174,pabea,,,,,,220.33,221.4383,0,1,0.5735,,0,125,125,173,1,pseudoword,0,REAL,FALSA
,,,,,,,,,61545686d49a33dab8587297,001,2025-04-30_17h45.57.396,empathy_intonation_perc,2024.1.4,Win32,60.24096386,,,,,,,,,,,,,,160,fomeó,,,,,,221.4396,222.5211,0,1,0.5397,,0,126,126,159,1,pseudoword,0,REAL,FALSA
,,,,,,,,,61545686d49a33dab8587297,001,2025-04-30_17h45.57.396,empathy_intonation_perc,2024.1.4,Win32,60.24096386,,,,,,,,,,,,,,75,patada,,,,,,222.5223,223.6876,1,0,0.6396,,0,127,127,74,1,non_cognate,1,REAL,FALSA
,,,,,,,,,61545686d49a33dab8587297,001,2025-04-30_17h45.57.396,empathy_intonation_perc,2024.1.4,Win32,60.24096386,,,,,,,,,,,,,,104,estulo,,,,,,223.6889,224.9545,0,1,0.7233,,0,128,128,103,1,pseudoword,0,REAL,FALSA
,,,,,,,,,61545686d49a33dab8587297,001,2025-04-30_17h45.57.396,empathy_intonation_perc,2024.1.4,Win32,60.24096386,,,,,,,,,,,,,,172,dogue,,,,,,224.956,226.0537,0,1,0.5543,,0,129,129,171,1,pseudoword,0,REAL,FALSA
,,,,,,,,,61545686d49a33dab8587297,001,2025-04-30_17h45.57.396,empathy_intonation_perc,2024.1.4,Win32,60.24096386,,,,,,,,,,,,,,4,flora,,,,,,226.0557,227.1697,1,0,0.5727,,0,130,130,3,1,three_way_cognate,1,REAL,FALSA
,,,,,,,,,61545686d49a33dab8587297,001,2025-04-30_17h45.57.396,empathy_intonation_perc,2024.1.4,Win32,60.24096386,,,,,,,,,,,,,,26,enigma,,,,,,227.1717,228.6536,0,1,0.9374,,0,131,131,25,1,two_way_cognate,1,REAL,FALSA
,,,,,,,,,61545686d49a33dab8587297,001,2025-04-30_17h45.57.396,empathy_intonation_perc,2024.1.4,Win32,60.24096386,,,,,,,,,,,,,,125,ceme,,,,,,228.6545,229.9864,0,1,0.7881,,0,132,132,124,1,pseudoword,0,REAL,FALSA
,,,,,,,,,61545686d49a33dab8587297,001,2025-04-30_17h45.57.396,empathy_intonation_perc,2024.1.4,Win32,60.24096386,,,,,,,,,,,,,,162,cengo,,,,,,229.9876,231.0872,0,1,0.5591,,0,133,133,161,1,pseudoword,0,REAL,FALSA
,,,,,,,,,61545686d49a33dab8587297,001,2025-04-30_17h45.57.396,empathy_intonation_perc,2024.1.4,Win32,60.24096386,,,,,,,,,,,,,,92,flecha,,,,,,231.0887,232.5035,0,1,0.8709,,0,134,134,91,1,non_cognate,1,REAL,FALSA
,,,,,,,,,61545686d49a33dab8587297,001,2025-04-30_17h45.57.396,empathy_intonation_perc,2024.1.4,Win32,60.24096386,,,,,,,,,,,,,,148,gino,,,,,,232.5047,233.6033,0,1,0.5558,,0,135,135,147,1,pseudoword,0,REAL,FALSA
,,,,,,,,,61545686d49a33dab8587297,001,2025-04-30_17h45.57.396,empathy_intonation_perc,2024.1.4,Win32,60.24096386,,,,,,,,,,,,,,80,cuenco,,,,,,233.6043,234.8031,0,1,0.6563,,0,136,136,79,1,non_cognate,1,REAL,FALSA
,,,,,,,,,61545686d49a33dab8587297,001,2025-04-30_17h45.57.396,empathy_intonation_perc,2024.1.4,Win32,60.24096386,,,,,,,,,,,,,,20,trauma,,,,,,234.8041,236.008,1,0,0.6674,,0,137,137,19,1,three_way_cognate,1,REAL,FALSA
,,,,,,,,,61545686d49a33dab8587297,001,2025-04-30_17h45.57.396,empathy_intonation_perc,2024.1.4,Win32,60.24096386,,,,,,,,,,,,,,155,kugis,,,,,,236.0096,237.1022,0,1,0.5547,,0,138,138,154,1,pseudoword,0,REAL,FALSA
,,,,,,,,,61545686d49a33dab8587297,001,2025-04-30_17h45.57.396,empathy_intonation_perc,2024.1.4,Win32,60.24096386,,,,,,,,,,,,,,71,torta,,,,,,237.1044,238.5604,0,1,0.9184,,0,139,139,70,1,non_cognate,1,REAL,FALSA
,,,,,,,,,61545686d49a33dab8587297,001,2025-04-30_17h45.57.396,empathy_intonation_perc,2024.1.4,Win32,60.24096386,,,,,,,,,,,,,,192,próces,,,,,,238.5614,239.736,1,0,0.6417,,0,140,140,191,1,pseudoword,0,REAL,FALSA
,,,,,,,,,61545686d49a33dab8587297,001,2025-04-30_17h45.57.396,empathy_intonation_perc,2024.1.4,Win32,60.24096386,,,,,,,,,,,,,,117,morrá,,,,,,239.7374,242.1033,1,0,1.8269,,0,141,141,116,1,pseudoword,0,REAL,FALSA
,,,,,,,,,61545686d49a33dab8587297,001,2025-04-30_17h45.57.396,empathy_intonation_perc,2024.1.4,Win32,60.24096386,,,,,,,,,,,,,,48,pelvis,,,,,,242.1044,243.1854,1,0,0.5552,,0,142,142,47,1,two_way_cognate,1,REAL,FALSA
,,,,,,,,,61545686d49a33dab8587297,001,2025-04-30_17h45.57.396,empathy_intonation_perc,2024.1.4,Win32,60.24096386,,,,,,,,,,,,,,120,mauja,,,,,,243.1866,244.3524,0,1,0.6213,,0,143,143,119,1,pseudoword,0,REAL,FALSA
,,,,,,,,,61545686d49a33dab8587297,001,2025-04-30_17h45.57.396,empathy_intonation_perc,2024.1.4,Win32,60.24096386,,,,,,,,,,,,,,181,gravés,,,,,,244.3541,245.9179,0,1,1.0247,,0,144,144,180,1,pseudoword,0,REAL,FALSA
,,,,,,,,,61545686d49a33dab8587297,001,2025-04-30_17h45.57.396,empathy_intonation_perc,2024.1.4,Win32,60.24096386,,,,,,,,,,,,,,53,punta,,,,,,245.9194,247.0856,1,0,0.6211,,0,145,145,52,1,non_cognate,1,REAL,FALSA
,,,,,,,,,61545686d49a33dab8587297,001,2025-04-30_17h45.57.396,empathy_intonation_perc,2024.1.4,Win32,60.24096386,,,,,,,,,,,,,,30,fiscal,,,,,,247.0872,248.3509,1,0,0.7217,,0,146,146,29,1,two_way_cognate,1,REAL,FALSA
,,,,,,,,,61545686d49a33dab8587297,001,2025-04-30_17h45.57.396,empathy_intonation_perc,2024.1.4,Win32,60.24096386,,,,,,,,,,,,,,129,vinzó,,,,,,248.3524,249.9674,0,1,1.0712,,0,147,147,128,1,pseudoword,0,REAL,FALSA
,,,,,,,,,61545686d49a33dab8587297,001,2025-04-30_17h45.57.396,empathy_intonation_perc,2024.1.4,Win32,60.24096386,,,,,,,,,,,,,,124,lobe,,,,,,249.969,251.1675,0,1,0.6534,,0,148,148,123,1,pseudoword,0,REAL,FALSA
,,,,,,,,,61545686d49a33dab8587297,001,2025-04-30_17h45.57.396,empathy_intonation_perc,2024.1.4,Win32,60.24096386,,,,,,,,,,,,,,143,hurcos,,,,,,251.1692,252.3246,0,1,0.6184,,0,149,149,142,1,pseudoword,0,REAL,FALSA
,,,,,,,,,61545686d49a33dab8587297,001,2025-04-30_17h45.57.396,empathy_intonation_perc,2024.1.4,Win32,60.24096386,,,,,,,,,,,,,,107,plago,,,,,,252.3259,253.5736,0,1,0.7179,,0,150,150,106,1,pseudoword,0,REAL,FALSA
,,,,,,,,,61545686d49a33dab8587297,001,2025-04-30_17h45.57.396,empathy_intonation_perc,2024.1.4,Win32,60.24096386,,,,,,,,,,,,,,95,listo,,,,,,253.5749,254.7003,1,0,0.5895,,0,151,151,94,1,non_cognate,1,REAL,FALSA
,,,,,,,,,61545686d49a33dab8587297,001,2025-04-30_17h45.57.396,empathy_intonation_perc,2024.1.4,Win32,60.24096386,,,,,,,,,,,,,,2,tumor,,,,,,254.702,255.902,1,0,0.6621,,0,152,152,1,1,three_way_cognate,1,REAL,FALSA
,,,,,,,,,61545686d49a33dab8587297,001,2025-04-30_17h45.57.396,empathy_intonation_perc,2024.1.4,Win32,60.24096386,,,,,,,,,,,,,,165,chote,,,,,,255.9037,257.1164,0,1,0.6749,,0,153,153,164,1,pseudoword,0,REAL,FALSA
,,,,,,,,,61545686d49a33dab8587297,001,2025-04-30_17h45.57.396,empathy_intonation_perc,2024.1.4,Win32,60.24096386,,,,,,,,,,,,,,62,pegar,,,,,,257.1177,258.2166,1,0,0.5547,,0,154,154,61,1,non_cognate,1,REAL,FALSA
,,,,,,,,,61545686d49a33dab8587297,001,2025-04-30_17h45.57.396,empathy_intonation_perc,2024.1.4,Win32,60.24096386,,,,,,,,,,,,,,170,diabo,,,,,,258.2181,259.6,0,1,0.8378,,0,155,155,169,1,pseudoword,0,REAL,FALSA
,,,,,,,,,61545686d49a33dab8587297,001,2025-04-30_17h45.57.396,empathy_intonation_perc,2024.1.4,Win32,60.24096386,,,,,,,,,,,,,,7,albino,,,,,,259.6012,260.8998,1,0,0.7553,,0,156,156,6,1,three_way_cognate,1,REAL,FALSA
,,,,,,,,,61545686d49a33dab8587297,001,2025-04-30_17h45.57.396,empathy_intonation_perc,2024.1.4,Win32,60.24096386,,,,,,,,,,,,,,178,inichó,,,,,,260.9015,262.0827,0,1,0.6397,,0,157,157,177,1,pseudoword,0,REAL,FALSA
,,,,,,,,,61545686d49a33dab8587297,001,2025-04-30_17h45.57.396,empathy_intonation_perc,2024.1.4,Win32,60.24096386,,,,,,,,,,,,,,67,llamar,,,,,,262.0838,263.1394,1,0,0.5189,,0,158,158,66,1,non_cognate,1,REAL,FALSA
,,,,,,,,,61545686d49a33dab8587297,001,2025-04-30_17h45.57.396,empathy_intonation_perc,2024.1.4,Win32,60.24096386,,,,,,,,,,,,,,1,moral,,,,,,263.1407,264.1991,1,0,0.5253,,0,159,159,0,1,three_way_cognate,1,REAL,FALSA
,,,,,,,,,61545686d49a33dab8587297,001,2025-04-30_17h45.57.396,empathy_intonation_perc,2024.1.4,Win32,60.24096386,,,,,,,,,,,,,,8,kilo,,,,,,264.2004,265.2824,1,0,0.5397,,0,160,160,7,1,three_way_cognate,1,REAL,FALSA
,,,,,,,,,61545686d49a33dab8587297,001,2025-04-30_17h45.57.396,empathy_intonation_perc,2024.1.4,Win32,60.24096386,,,,,,,,,,,,,,86,cuenco,,,,,,265.2839,266.5319,0,1,0.7087,,0,161,161,85,1,non_cognate,1,REAL,FALSA
,,,,,,,,,61545686d49a33dab8587297,001,2025-04-30_17h45.57.396,empathy_intonation_perc,2024.1.4,Win32,60.24096386,,,,,,,,,,,,,,68,puñal,,,,,,266.5333,268.1384,0,1,1.0683,,0,162,162,67,1,non_cognate,1,REAL,FALSA
,,,,,,,,,61545686d49a33dab8587297,001,2025-04-30_17h45.57.396,empathy_intonation_perc,2024.1.4,Win32,60.24096386,,,,,,,,,,,,,,122,boñaz,,,,,,268.1398,269.3817,0,1,0.7068,,0,163,163,121,1,pseudoword,0,REAL,FALSA
,,,,,,,,,61545686d49a33dab8587297,001,2025-04-30_17h45.57.396,empathy_intonation_perc,2024.1.4,Win32,60.24096386,,,,,,,,,,,,,,15,test,,,,,,269.3836,270.3815,1,0,0.4548,,0,164,164,14,1,three_way_cognate,1,REAL,FALSA
,,,,,,,,,61545686d49a33dab8587297,001,2025-04-30_17h45.57.396,empathy_intonation_perc,2024.1.4,Win32,60.24096386,,,,,,,,,,,,,,38,halo,,,,,,270.383,272.083,0,1,1.16,,0,165,165,37,1,two_way_cognate,1,REAL,FALSA
,,,,,,,,,61545686d49a33dab8587297,001,2025-04-30_17h45.57.396,empathy_intonation_perc,2024.1.4,Win32,60.24096386,,,,,,,,,,,,,,28,ardor,,,,,,272.0844,273.3317,0,1,0.7099,,0,166,166,27,1,two_way_cognate,1,REAL,FALSA
,,,,,,,,,61545686d49a33dab8587297,001,2025-04-30_17h45.57.396,empathy_intonation_perc,2024.1.4,Win32,60.24096386,,,,,,,,,,,,,,83,hálito,,,,,,273.3332,274.5044,0,1,0.6356,,0,167,167,82,1,non_cognate,1,REAL,FALSA
,,,,,,,,,61545686d49a33dab8587297,001,2025-04-30_17h45.57.396,empathy_intonation_perc,2024.1.4,Win32,60.24096386,,,,,,,,,,,,,,77,suave,,,,,,274.506,275.581,1,0,0.5382,,0,168,168,76,1,non_cognate,1,REAL,FALSA
,,,,,,,,,61545686d49a33dab8587297,001,2025-04-30_17h45.57.396,empathy_intonation_perc,2024.1.4,Win32,60.24096386,,,,,,,,,,,,,,116,grigir,,,,,,275.5828,276.6476,0,1,0.5228,,0,169,169,115,1,pseudoword,0,REAL,FALSA
,,,,,,,,,61545686d49a33dab8587297,001,2025-04-30_17h45.57.396,empathy_intonation_perc,2024.1.4,Win32,60.24096386,,,,,,,,,,,,,,72,rostro,,,,,,276.6489,277.914,1,0,0.7209,,0,170,170,71,1,non_cognate,1,REAL,FALSA
,,,,,,,,,61545686d49a33dab8587297,001,2025-04-30_17h45.57.396,empathy_intonation_perc,2024.1.4,Win32,60.24096386,,,,,,,,,,,,,,130,dubo,,,,,,277.9153,279.0878,0,1,0.635,,0,171,171,129,1,pseudoword,0,REAL,FALSA
,,,,,,,,,61545686d49a33dab8587297,001,2025-04-30_17h45.57.396,empathy_intonation_perc,2024.1.4,Win32,60.24096386,,,,,,,,,,,,,,136,hueas,,,,,,279.089,280.2137,0,1,0.5895,,0,172,172,135,1,pseudoword,0,REAL,FALSA
,,,,,,,,,61545686d49a33dab8587297,001,2025-04-30_17h45.57.396,empathy_intonation_perc,2024.1.4,Win32,60.24096386,,,,,,,,,,,,,,82,brillo,,,,,,280.2151,281.6975,1,0,0.9388,,0,173,173,81,1,non_cognate,1,REAL,FALSA
,,,,,,,,,61545686d49a33dab8587297,001,2025-04-30_17h45.57.396,empathy_intonation_perc,2024.1.4,Win32,60.24096386,,,,,,,,,,,,,,141,virios,,,,,,281.699,282.8463,0,1,0.6073,,0,174,174,140,1,pseudoword,0,REAL,FALSA
,,,,,,,,,61545686d49a33dab8587297,001,2025-04-30_17h45.57.396,empathy_intonation_perc,2024.1.4,Win32,60.24096386,,,,,,,,,,,,,,183,edioso,,,,,,282.8479,283.9294,0,1,0.5382,,0,175,175,182,1,pseudoword,0,REAL,FALSA
,,,,,,,,,61545686d49a33dab8587297,001,2025-04-30_17h45.57.396,empathy_intonation_perc,2024.1.4,Win32,60.24096386,,,,,,,,,,,,,,132,nocó,,,,,,283.9312,284.9957,0,1,0.5247,,0,176,176,131,1,pseudoword,0,REAL,FALSA
,,,,,,,,,61545686d49a33dab8587297,001,2025-04-30_17h45.57.396,empathy_intonation_perc,2024.1.4,Win32,60.24096386,,,,,,,,,,,,,,22,mango,,,,,,284.9976,286.2125,1,0,0.6713,,0,177,177,21,1,three_way_cognate,1,REAL,FALSA
,,,,,,,,,61545686d49a33dab8587297,001,2025-04-30_17h45.57.396,empathy_intonation_perc,2024.1.4,Win32,60.24096386,,,,,,,,,,,,,,25,vigor,,,,,,286.2141,287.8299,0,1,1.0733,,0,178,178,24,1,two_way_cognate,1,REAL,FALSA
,,,,,,,,,61545686d49a33dab8587297,001,2025-04-30_17h45.57.396,empathy_intonation_perc,2024.1.4,Win32,60.24096386,,,,,,,,,,,,,,93,tapa,,,,,,287.8313,288.8787,1,0,0.5079,,0,179,179,92,1,non_cognate,1,REAL,FALSA
,,,,,,,,,61545686d49a33dab8587297,001,2025-04-30_17h45.57.396,empathy_intonation_perc,2024.1.4,Win32,60.24096386,,,,,,,,,,,,,,171,gotro,,,,,,288.8802,289.9634,0,1,0.5433,,0,180,180,170,1,pseudoword,0,REAL,FALSA
,,,,,,,,,61545686d49a33dab8587297,001,2025-04-30_17h45.57.396,empathy_intonation_perc,2024.1.4,Win32,60.24096386,,,,,,,,,,,,,,139,sasos,,,,,,289.9649,291.4284,0,1,0.9271,,0,181,181,138,1,pseudoword,0,REAL,FALSA
,,,,,,,,,61545686d49a33dab8587297,001,2025-04-30_17h45.57.396,empathy_intonation_perc,2024.1.4,Win32,60.24096386,,,,,,,,,,,,,,3,disco,,,,,,291.4312,292.5522,1,0,0.5852,,0,182,182,2,1,three_way_cognate,1,REAL,FALSA
,,,,,,,,,61545686d49a33dab8587297,001,2025-04-30_17h45.57.396,empathy_intonation_perc,2024.1.4,Win32,60.24096386,,,,,,,,,,,,,,44,editor,,,,,,292.5535,293.6291,1,0,0.5382,,0,183,183,43,1,two_way_cognate,1,REAL,FALSA
,,,,,,,,,61545686d49a33dab8587297,001,2025-04-30_17h45.57.396,empathy_intonation_perc,2024.1.4,Win32,60.24096386,,,,,,,,,,,,,,47,color,,,,,,293.6309,294.7123,1,0,0.5384,,0,184,184,46,1,two_way_cognate,1,REAL,FALSA
,,,,,,,,,61545686d49a33dab8587297,001,2025-04-30_17h45.57.396,empathy_intonation_perc,2024.1.4,Win32,60.24096386,,,,,,,,,,,,,,94,forro,,,,,,294.7139,295.8472,0,1,0.5968,,0,185,185,93,1,non_cognate,1,REAL,FALSA
,,,,,,,,,61545686d49a33dab8587297,001,2025-04-30_17h45.57.396,empathy_intonation_perc,2024.1.4,Win32,60.24096386,,,,,,,,,,,,,,146,gió,,,,,,295.8487,296.9279,0,1,0.5407,,0,186,186,145,1,pseudoword,0,REAL,FALSA
,,,,,,,,,61545686d49a33dab8587297,001,2025-04-30_17h45.57.396,empathy_intonation_perc,2024.1.4,Win32,60.24096386,,,,,,,,,,,,,,188,amplir,,,,,,296.9302,298.1941,1,0,0.7233,,0,187,187,187,1,pseudoword,0,REAL,FALSA
,,,,,,,,,61545686d49a33dab8587297,001,2025-04-30_17h45.57.396,empathy_intonation_perc,2024.1.4,Win32,60.24096386,,,,,,,,,,,,,,115,lidena,,,,,,298.1955,299.3506,0,1,0.6181,,0,188,188,114,1,pseudoword,0,REAL,FALSA
,,,,,,,,,61545686d49a33dab8587297,001,2025-04-30_17h45.57.396,empathy_intonation_perc,2024.1.4,Win32,60.24096386,,,,,,,,,,,,,,167,dobbo,,,,,,299.3519,300.4352,0,1,0.5523,,0,189,189,166,1,pseudoword,0,REAL,FALSA
,,,,,,,,,61545686d49a33dab8587297,001,2025-04-30_17h45.57.396,empathy_intonation_perc,2024.1.4,Win32,60.24096386,,,,,,,,,,,,,,145,rúo,,,,,,300.437,301.6119,0,1,0.6395,,0,190,190,144,1,pseudoword,0,REAL,FALSA
,,,,,,,,,61545686d49a33dab8587297,001,2025-04-30_17h45.57.396,empathy_intonation_perc,2024.1.4,Win32,60.24096386,,,,,,,,,,,,,,153,golla,,,,,,301.6135,302.7275,0,1,0.5735,,0,191,191,152,1,pseudoword,0,REAL,FALSA
