lextale_instructions.started,lextale_instructions.stopped,lextale_instructions_loop.thisRepN,lextale_instructions_loop.thisTrialN,lextale_instructions_loop.thisN,lextale_instructions_loop.thisIndex,lextale_instructions_loop.ran,instructions_text,continue_text,participant,session,date,expName,psychopyVersion,OS,frameRate,lextale_practice.started,lextale_practice.stopped,key_resp_lextale_practice.keys,key_resp_lextale_practice.corr,key_resp_lextale_practice.rt,key_resp_lextale_practice.duration,lextale_practice_feedback.started,lextale_practice_feedback.stopped,lextale_practice_trials.thisRepN,lextale_practice_trials.thisTrialN,lextale_practice_trials.thisN,lextale_practice_trials.thisIndex,lextale_practice_trials.ran,stim,word,correct_response,prac_button_real,prac_button_false,lextale_check.started,lextale_check.stopped,lextale_trial.started,lextale_trial.stopped,key_resp_lextale_trial.keys,key_resp_lextale_trial.corr,key_resp_lextale_trial.rt,key_resp_lextale_trial.duration,lextail_trials.thisRepN,lextail_trials.thisTrialN,lextail_trials.thisN,lextail_trials.thisIndex,lextail_trials.ran,type,correct_reponse,button_real,button_false
0.004,12.756,0,0,0,0,1,"Este es un test de vocabulario en español. 
  
  A continuación vas a ver 90 secuencias de letras que parecen 'españolas'.
  
  Solo algunas de ellas son palabras de verdad.",(presiona la barra espaciadora para continuar),62e95cb1f31ba3691a3ce87c,001,2025-05-03_09h49.17.734,empathy_intonation_perc,2024.1.4,Win32,58.82352941,,,,,,,,,,,,,,,,,,,,,,,,,,,,,,,,,,,
12.7567,18.8854,0,1,1,1,1,"Por favor, señala las palabras que tú conoces (aquellas que estás convencido que son palabras españolas, incluso aunque no seas capaz de dar el significado preciso).",(presiona la barra espaciadora para continuar),62e95cb1f31ba3691a3ce87c,001,2025-05-03_09h49.17.734,empathy_intonation_perc,2024.1.4,Win32,58.82352941,,,,,,,,,,,,,,,,,,,,,,,,,,,,,,,,,,,
18.8859,24.7666,0,2,2,2,1,Pero cuidado: los errores se penalizan. Por eso no tiene sentido tratar de incrementar tu puntuación marcando como reales palabras que nunca has visto.,(presiona la barra espaciadora para continuar),62e95cb1f31ba3691a3ce87c,001,2025-05-03_09h49.17.734,empathy_intonation_perc,2024.1.4,Win32,58.82352941,,,,,,,,,,,,,,,,,,,,,,,,,,,,,,,,,,,
24.7675,36.145,0,3,3,3,1,"Presiona la tecla 1 si piensas que es una palabra real y la tecla 
  0 si piensas que es una palabra falsa. 
  
  Vamos a practicar un poco...",(presiona la barra espaciadora para continuar),62e95cb1f31ba3691a3ce87c,001,2025-05-03_09h49.17.734,empathy_intonation_perc,2024.1.4,Win32,58.82352941,,,,,,,,,,,,,,,,,,,,,,,,,,,,,,,,,,,
,,,,,,,,,62e95cb1f31ba3691a3ce87c,001,2025-05-03_09h49.17.734,empathy_intonation_perc,2024.1.4,Win32,58.82352941,36.1532,39.129,1,0,2.4518,,39.1295,40.1271,0,0,0,0,1,0,depiste,0,REAL,FALSA,,,,,,,,,,,,,,,,,
,,,,,,,,,62e95cb1f31ba3691a3ce87c,001,2025-05-03_09h49.17.734,empathy_intonation_perc,2024.1.4,Win32,58.82352941,40.1284,41.8427,1,1,1.1762,,41.8428,42.8419,0,1,1,1,1,0,sí,1,REAL,FALSA,,,,,,,,,,,,,,,,,
,,,,,,,,,62e95cb1f31ba3691a3ce87c,001,2025-05-03_09h49.17.734,empathy_intonation_perc,2024.1.4,Win32,58.82352941,42.8426,44.225,0,1,0.8526,,44.2251,45.2245,0,2,2,2,1,0,coné,0,REAL,FALSA,,,,,,,,,,,,,,,,,
,,,,,,,,,62e95cb1f31ba3691a3ce87c,001,2025-05-03_09h49.17.734,empathy_intonation_perc,2024.1.4,Win32,58.82352941,45.2251,46.6574,0,1,0.8919,,46.6575,47.657,0,3,3,3,1,0,calpar,0,REAL,FALSA,,,,,,,,,,,,,,,,,
,,,,,,,,,62e95cb1f31ba3691a3ce87c,001,2025-05-03_09h49.17.734,empathy_intonation_perc,2024.1.4,Win32,58.82352941,47.6577,49.1062,0,1,0.9108,,49.1063,50.1059,0,4,4,4,1,0,joten,0,REAL,FALSA,,,,,,,,,,,,,,,,,
,,,,,,,,,62e95cb1f31ba3691a3ce87c,001,2025-05-03_09h49.17.734,empathy_intonation_perc,2024.1.4,Win32,58.82352941,50.1067,51.9385,1,1,1.2899,,51.9388,52.9378,0,5,5,5,1,0,sacapuntas,1,REAL,FALSA,,,,,,,,,,,,,,,,,
,,,,,,,,,62e95cb1f31ba3691a3ce87c,001,2025-05-03_09h49.17.734,empathy_intonation_perc,2024.1.4,Win32,58.82352941,52.9385,54.2375,0,1,0.7574,,54.2376,55.237,0,6,6,6,1,0,priba,0,REAL,FALSA,,,,,,,,,,,,,,,,,
,,,,,,,,,62e95cb1f31ba3691a3ce87c,001,2025-05-03_09h49.17.734,empathy_intonation_perc,2024.1.4,Win32,58.82352941,55.2376,57.6688,1,0,1.891,,57.6689,58.6686,0,7,7,7,1,0,pelasula,0,REAL,FALSA,,,,,,,,,,,,,,,,,
,,,,,,,,,62e95cb1f31ba3691a3ce87c,001,2025-05-03_09h49.17.734,empathy_intonation_perc,2024.1.4,Win32,58.82352941,58.6693,59.868,1,1,0.6667,,59.8681,60.8677,0,8,8,8,1,0,bien,1,REAL,FALSA,,,,,,,,,,,,,,,,,
,,,,,,,,,62e95cb1f31ba3691a3ce87c,001,2025-05-03_09h49.17.734,empathy_intonation_perc,2024.1.4,Win32,58.82352941,60.8684,62.1002,1,1,0.7002,,62.1003,63.1002,0,9,9,9,1,0,casa,1,REAL,FALSA,,,,,,,,,,,,,,,,,
,,,,,,,,,62e95cb1f31ba3691a3ce87c,001,2025-05-03_09h49.17.734,empathy_intonation_perc,2024.1.4,Win32,58.82352941,63.1009,64.4823,1,0,0.8522,,64.4824,65.4822,0,10,10,10,1,0,lejo,0,REAL,FALSA,,,,,,,,,,,,,,,,,
,,,,,,,,,62e95cb1f31ba3691a3ce87c,001,2025-05-03_09h49.17.734,empathy_intonation_perc,2024.1.4,Win32,58.82352941,65.4828,69.1808,1,0,3.1574,,69.1809,70.1799,0,11,11,11,1,0,pretantas,0,REAL,FALSA,,,,,,,,,,,,,,,,,
,,,,,,,,,62e95cb1f31ba3691a3ce87c,001,2025-05-03_09h49.17.734,empathy_intonation_perc,2024.1.4,Win32,58.82352941,,,,,,,,,,,,,,,,,,,70.1806,72.9623,,,,,,,,,,,,,,,
,,,,,,,,,62e95cb1f31ba3691a3ce87c,001,2025-05-03_09h49.17.734,empathy_intonation_perc,2024.1.4,Win32,58.82352941,,,,,,,,,,,,,,171,gotro,,,,,,72.9882,74.7451,0,1,1.2267,,0,0,0,170,1,pseudoword,0,REAL,FALSA
,,,,,,,,,62e95cb1f31ba3691a3ce87c,001,2025-05-03_09h49.17.734,empathy_intonation_perc,2024.1.4,Win32,58.82352941,,,,,,,,,,,,,,48,pelvis,,,,,,74.7466,76.1607,0,1,0.8795,,0,1,1,47,1,two_way_cognate,1,REAL,FALSA
,,,,,,,,,62e95cb1f31ba3691a3ce87c,001,2025-05-03_09h49.17.734,empathy_intonation_perc,2024.1.4,Win32,58.82352941,,,,,,,,,,,,,,62,pegar,,,,,,76.1616,77.4425,1,0,0.7501,,0,2,2,61,1,non_cognate,1,REAL,FALSA
,,,,,,,,,62e95cb1f31ba3691a3ce87c,001,2025-05-03_09h49.17.734,empathy_intonation_perc,2024.1.4,Win32,58.82352941,,,,,,,,,,,,,,141,virios,,,,,,77.4428,78.9419,0,1,0.9728,,0,3,3,140,1,pseudoword,0,REAL,FALSA
,,,,,,,,,62e95cb1f31ba3691a3ce87c,001,2025-05-03_09h49.17.734,empathy_intonation_perc,2024.1.4,Win32,58.82352941,,,,,,,,,,,,,,120,mauja,,,,,,78.9422,80.2921,0,1,0.8248,,0,4,4,119,1,pseudoword,0,REAL,FALSA
,,,,,,,,,62e95cb1f31ba3691a3ce87c,001,2025-05-03_09h49.17.734,empathy_intonation_perc,2024.1.4,Win32,58.82352941,,,,,,,,,,,,,,34,actor,,,,,,80.2928,81.4753,1,0,0.6444,,0,5,5,33,1,two_way_cognate,1,REAL,FALSA
,,,,,,,,,62e95cb1f31ba3691a3ce87c,001,2025-05-03_09h49.17.734,empathy_intonation_perc,2024.1.4,Win32,58.82352941,,,,,,,,,,,,,,166,anfia,,,,,,81.4763,83.1411,0,1,1.1301,,0,6,6,165,1,pseudoword,0,REAL,FALSA
,,,,,,,,,62e95cb1f31ba3691a3ce87c,001,2025-05-03_09h49.17.734,empathy_intonation_perc,2024.1.4,Win32,58.82352941,,,,,,,,,,,,,,67,llamar,,,,,,83.1419,84.2907,1,0,0.6085,,0,7,7,66,1,non_cognate,1,REAL,FALSA
,,,,,,,,,62e95cb1f31ba3691a3ce87c,001,2025-05-03_09h49.17.734,empathy_intonation_perc,2024.1.4,Win32,58.82352941,,,,,,,,,,,,,,163,llzan,,,,,,84.2914,85.7732,0,1,0.9453,,0,8,8,162,1,pseudoword,0,REAL,FALSA
,,,,,,,,,62e95cb1f31ba3691a3ce87c,001,2025-05-03_09h49.17.734,empathy_intonation_perc,2024.1.4,Win32,58.82352941,,,,,,,,,,,,,,79,suelo,,,,,,85.774,87.1894,1,0,0.8763,,0,9,9,78,1,non_cognate,1,REAL,FALSA
,,,,,,,,,62e95cb1f31ba3691a3ce87c,001,2025-05-03_09h49.17.734,empathy_intonation_perc,2024.1.4,Win32,58.82352941,,,,,,,,,,,,,,127,vien,,,,,,87.1901,88.2889,1,0,0.5601,,0,10,10,126,1,pseudoword,0,REAL,FALSA
,,,,,,,,,62e95cb1f31ba3691a3ce87c,001,2025-05-03_09h49.17.734,empathy_intonation_perc,2024.1.4,Win32,58.82352941,,,,,,,,,,,,,,18,altar,,,,,,88.2895,89.4551,1,0,0.6289,,0,11,11,17,1,three_way_cognate,1,REAL,FALSA
,,,,,,,,,62e95cb1f31ba3691a3ce87c,001,2025-05-03_09h49.17.734,empathy_intonation_perc,2024.1.4,Win32,58.82352941,,,,,,,,,,,,,,102,coyo,,,,,,89.4557,91.7203,1,0,1.7322,,0,12,12,101,1,pseudoword,0,REAL,FALSA
,,,,,,,,,62e95cb1f31ba3691a3ce87c,001,2025-05-03_09h49.17.734,empathy_intonation_perc,2024.1.4,Win32,58.82352941,,,,,,,,,,,,,,77,suave,,,,,,91.721,92.9023,1,0,0.6503,,0,13,13,76,1,non_cognate,1,REAL,FALSA
,,,,,,,,,62e95cb1f31ba3691a3ce87c,001,2025-05-03_09h49.17.734,empathy_intonation_perc,2024.1.4,Win32,58.82352941,,,,,,,,,,,,,,61,aduana,,,,,,92.9026,95.4013,1,0,1.969,,0,14,14,60,1,non_cognate,1,REAL,FALSA
,,,,,,,,,62e95cb1f31ba3691a3ce87c,001,2025-05-03_09h49.17.734,empathy_intonation_perc,2024.1.4,Win32,58.82352941,,,,,,,,,,,,,,152,prave,,,,,,95.4016,96.9341,1,0,0.996,,0,15,15,151,1,pseudoword,0,REAL,FALSA
,,,,,,,,,62e95cb1f31ba3691a3ce87c,001,2025-05-03_09h49.17.734,empathy_intonation_perc,2024.1.4,Win32,58.82352941,,,,,,,,,,,,,,81,sacar,,,,,,96.9344,98.2169,1,0,0.7512,,0,16,16,80,1,non_cognate,1,REAL,FALSA
,,,,,,,,,62e95cb1f31ba3691a3ce87c,001,2025-05-03_09h49.17.734,empathy_intonation_perc,2024.1.4,Win32,58.82352941,,,,,,,,,,,,,,180,pupica,,,,,,98.2173,99.4339,0,1,0.6855,,0,17,17,179,1,pseudoword,0,REAL,FALSA
,,,,,,,,,62e95cb1f31ba3691a3ce87c,001,2025-05-03_09h49.17.734,empathy_intonation_perc,2024.1.4,Win32,58.82352941,,,,,,,,,,,,,,181,gravés,,,,,,99.4345,101.7658,1,0,1.8046,,0,18,18,180,1,pseudoword,0,REAL,FALSA
,,,,,,,,,62e95cb1f31ba3691a3ce87c,001,2025-05-03_09h49.17.734,empathy_intonation_perc,2024.1.4,Win32,58.82352941,,,,,,,,,,,,,,158,babrá,,,,,,101.7665,103.1155,0,1,0.8148,,0,19,19,157,1,pseudoword,0,REAL,FALSA
,,,,,,,,,62e95cb1f31ba3691a3ce87c,001,2025-05-03_09h49.17.734,empathy_intonation_perc,2024.1.4,Win32,58.82352941,,,,,,,,,,,,,,31,civil,,,,,,103.1161,104.364,1,0,0.7123,,0,20,20,30,1,two_way_cognate,1,REAL,FALSA
,,,,,,,,,62e95cb1f31ba3691a3ce87c,001,2025-05-03_09h49.17.734,empathy_intonation_perc,2024.1.4,Win32,58.82352941,,,,,,,,,,,,,,160,fomeó,,,,,,104.3642,106.2304,1,0,1.3365,,0,21,21,159,1,pseudoword,0,REAL,FALSA
,,,,,,,,,62e95cb1f31ba3691a3ce87c,001,2025-05-03_09h49.17.734,empathy_intonation_perc,2024.1.4,Win32,58.82352941,,,,,,,,,,,,,,37,torso,,,,,,106.2311,107.5299,0,1,0.7574,,0,22,22,36,1,two_way_cognate,1,REAL,FALSA
,,,,,,,,,62e95cb1f31ba3691a3ce87c,001,2025-05-03_09h49.17.734,empathy_intonation_perc,2024.1.4,Win32,58.82352941,,,,,,,,,,,,,,60,siglo,,,,,,107.5304,109.645,1,0,1.5751,,0,23,23,59,1,non_cognate,1,REAL,FALSA
,,,,,,,,,62e95cb1f31ba3691a3ce87c,001,2025-05-03_09h49.17.734,empathy_intonation_perc,2024.1.4,Win32,58.82352941,,,,,,,,,,,,,,89,muñeca,,,,,,109.6453,110.9285,0,1,0.7652,,0,24,24,88,1,non_cognate,1,REAL,FALSA
,,,,,,,,,62e95cb1f31ba3691a3ce87c,001,2025-05-03_09h49.17.734,empathy_intonation_perc,2024.1.4,Win32,58.82352941,,,,,,,,,,,,,,36,viable,,,,,,110.9293,112.8943,1,0,1.4337,,0,25,25,35,1,two_way_cognate,1,REAL,FALSA
,,,,,,,,,62e95cb1f31ba3691a3ce87c,001,2025-05-03_09h49.17.734,empathy_intonation_perc,2024.1.4,Win32,58.82352941,,,,,,,,,,,,,,179,suelet,,,,,,112.895,114.2603,0,1,0.8245,,0,26,26,178,1,pseudoword,0,REAL,FALSA
,,,,,,,,,62e95cb1f31ba3691a3ce87c,001,2025-05-03_09h49.17.734,empathy_intonation_perc,2024.1.4,Win32,58.82352941,,,,,,,,,,,,,,161,civas,,,,,,114.261,115.5265,0,1,0.7268,,0,27,27,160,1,pseudoword,0,REAL,FALSA
,,,,,,,,,62e95cb1f31ba3691a3ce87c,001,2025-05-03_09h49.17.734,empathy_intonation_perc,2024.1.4,Win32,58.82352941,,,,,,,,,,,,,,33,collar,,,,,,115.5272,117.4591,0,1,1.3934,,0,28,28,32,1,two_way_cognate,1,REAL,FALSA
,,,,,,,,,62e95cb1f31ba3691a3ce87c,001,2025-05-03_09h49.17.734,empathy_intonation_perc,2024.1.4,Win32,58.82352941,,,,,,,,,,,,,,164,tecia,,,,,,117.4599,118.9582,0,1,0.9584,,0,29,29,163,1,pseudoword,0,REAL,FALSA
,,,,,,,,,62e95cb1f31ba3691a3ce87c,001,2025-05-03_09h49.17.734,empathy_intonation_perc,2024.1.4,Win32,58.82352941,,,,,,,,,,,,,,159,trcia,,,,,,118.9591,120.1569,0,1,0.6687,,0,30,30,158,1,pseudoword,0,REAL,FALSA
,,,,,,,,,62e95cb1f31ba3691a3ce87c,001,2025-05-03_09h49.17.734,empathy_intonation_perc,2024.1.4,Win32,58.82352941,,,,,,,,,,,,,,75,patada,,,,,,120.1571,122.8399,0,1,2.1599,,0,31,31,74,1,non_cognate,1,REAL,FALSA
,,,,,,,,,62e95cb1f31ba3691a3ce87c,001,2025-05-03_09h49.17.734,empathy_intonation_perc,2024.1.4,Win32,58.82352941,,,,,,,,,,,,,,119,esís,,,,,,122.8408,124.0385,0,1,0.6613,,0,32,32,118,1,pseudoword,0,REAL,FALSA
,,,,,,,,,62e95cb1f31ba3691a3ce87c,001,2025-05-03_09h49.17.734,empathy_intonation_perc,2024.1.4,Win32,58.82352941,,,,,,,,,,,,,,25,vigor,,,,,,124.0388,125.3879,0,1,0.8164,,0,33,33,24,1,two_way_cognate,1,REAL,FALSA
,,,,,,,,,62e95cb1f31ba3691a3ce87c,001,2025-05-03_09h49.17.734,empathy_intonation_perc,2024.1.4,Win32,58.82352941,,,,,,,,,,,,,,187,nomata,,,,,,125.3882,126.7873,0,1,0.8665,,0,34,34,186,1,pseudoword,0,REAL,FALSA
,,,,,,,,,62e95cb1f31ba3691a3ce87c,001,2025-05-03_09h49.17.734,empathy_intonation_perc,2024.1.4,Win32,58.82352941,,,,,,,,,,,,,,98,martir,,,,,,126.7875,128.0369,1,0,0.7126,,0,35,35,97,1,pseudoword,0,REAL,FALSA
,,,,,,,,,62e95cb1f31ba3691a3ce87c,001,2025-05-03_09h49.17.734,empathy_intonation_perc,2024.1.4,Win32,58.82352941,,,,,,,,,,,,,,149,emén,,,,,,128.0371,129.1863,0,1,0.6158,,0,36,36,148,1,pseudoword,0,REAL,FALSA
,,,,,,,,,62e95cb1f31ba3691a3ce87c,001,2025-05-03_09h49.17.734,empathy_intonation_perc,2024.1.4,Win32,58.82352941,,,,,,,,,,,,,,174,pabea,,,,,,129.1866,130.6022,0,1,0.882,,0,37,37,173,1,pseudoword,0,REAL,FALSA
,,,,,,,,,62e95cb1f31ba3691a3ce87c,001,2025-05-03_09h49.17.734,empathy_intonation_perc,2024.1.4,Win32,58.82352941,,,,,,,,,,,,,,176,gripar,,,,,,130.6026,131.7185,0,1,0.5905,,0,38,38,175,1,pseudoword,0,REAL,FALSA
,,,,,,,,,62e95cb1f31ba3691a3ce87c,001,2025-05-03_09h49.17.734,empathy_intonation_perc,2024.1.4,Win32,58.82352941,,,,,,,,,,,,,,114,dibrea,,,,,,131.7187,132.9512,0,1,0.6963,,0,39,39,113,1,pseudoword,0,REAL,FALSA
,,,,,,,,,62e95cb1f31ba3691a3ce87c,001,2025-05-03_09h49.17.734,empathy_intonation_perc,2024.1.4,Win32,58.82352941,,,,,,,,,,,,,,131,fuar,,,,,,132.9515,134.6672,1,0,1.1796,,0,40,40,130,1,pseudoword,0,REAL,FALSA
,,,,,,,,,62e95cb1f31ba3691a3ce87c,001,2025-05-03_09h49.17.734,empathy_intonation_perc,2024.1.4,Win32,58.82352941,,,,,,,,,,,,,,123,arane,,,,,,134.6681,135.9666,0,1,0.7702,,0,41,41,122,1,pseudoword,0,REAL,FALSA
,,,,,,,,,62e95cb1f31ba3691a3ce87c,001,2025-05-03_09h49.17.734,empathy_intonation_perc,2024.1.4,Win32,58.82352941,,,,,,,,,,,,,,183,edioso,,,,,,135.9669,137.7168,1,0,1.2183,,0,42,42,182,1,pseudoword,0,REAL,FALSA
,,,,,,,,,62e95cb1f31ba3691a3ce87c,001,2025-05-03_09h49.17.734,empathy_intonation_perc,2024.1.4,Win32,58.82352941,,,,,,,,,,,,,,2,tumor,,,,,,137.718,139.032,1,0,0.7801,,0,43,43,1,1,three_way_cognate,1,REAL,FALSA
,,,,,,,,,62e95cb1f31ba3691a3ce87c,001,2025-05-03_09h49.17.734,empathy_intonation_perc,2024.1.4,Win32,58.82352941,,,,,,,,,,,,,,12,dogma,,,,,,139.0323,140.3818,1,0,0.8342,,0,44,44,11,1,three_way_cognate,1,REAL,FALSA
,,,,,,,,,62e95cb1f31ba3691a3ce87c,001,2025-05-03_09h49.17.734,empathy_intonation_perc,2024.1.4,Win32,58.82352941,,,,,,,,,,,,,,82,brillo,,,,,,140.3823,141.815,1,0,0.8973,,0,45,45,81,1,non_cognate,1,REAL,FALSA
,,,,,,,,,62e95cb1f31ba3691a3ce87c,001,2025-05-03_09h49.17.734,empathy_intonation_perc,2024.1.4,Win32,58.82352941,,,,,,,,,,,,,,133,conso,,,,,,141.8165,143.1808,0,1,0.8278,,0,46,46,132,1,pseudoword,0,REAL,FALSA
,,,,,,,,,62e95cb1f31ba3691a3ce87c,001,2025-05-03_09h49.17.734,empathy_intonation_perc,2024.1.4,Win32,58.82352941,,,,,,,,,,,,,,126,tobre,,,,,,143.1814,144.5804,0,1,0.8587,,0,47,47,125,1,pseudoword,0,REAL,FALSA
,,,,,,,,,62e95cb1f31ba3691a3ce87c,001,2025-05-03_09h49.17.734,empathy_intonation_perc,2024.1.4,Win32,58.82352941,,,,,,,,,,,,,,189,medium,,,,,,144.581,145.6465,1,0,0.5326,,0,48,48,188,1,pseudoword,0,REAL,FALSA
,,,,,,,,,62e95cb1f31ba3691a3ce87c,001,2025-05-03_09h49.17.734,empathy_intonation_perc,2024.1.4,Win32,58.82352941,,,,,,,,,,,,,,170,diabo,,,,,,145.6473,147.4459,0,1,1.2649,,0,49,49,169,1,pseudoword,0,REAL,FALSA
,,,,,,,,,62e95cb1f31ba3691a3ce87c,001,2025-05-03_09h49.17.734,empathy_intonation_perc,2024.1.4,Win32,58.82352941,,,,,,,,,,,,,,109,laras,,,,,,147.4464,148.7617,0,1,0.7752,,0,50,50,108,1,pseudoword,0,REAL,FALSA
,,,,,,,,,62e95cb1f31ba3691a3ce87c,001,2025-05-03_09h49.17.734,empathy_intonation_perc,2024.1.4,Win32,58.82352941,,,,,,,,,,,,,,94,forro,,,,,,148.7625,150.1944,0,1,0.9003,,0,51,51,93,1,non_cognate,1,REAL,FALSA
,,,,,,,,,62e95cb1f31ba3691a3ce87c,001,2025-05-03_09h49.17.734,empathy_intonation_perc,2024.1.4,Win32,58.82352941,,,,,,,,,,,,,,173,mibro,,,,,,150.1955,151.3772,0,1,0.6476,,0,52,52,172,1,pseudoword,0,REAL,FALSA
,,,,,,,,,62e95cb1f31ba3691a3ce87c,001,2025-05-03_09h49.17.734,empathy_intonation_perc,2024.1.4,Win32,58.82352941,,,,,,,,,,,,,,27,piano,,,,,,151.3782,152.476,1,0,0.5669,,0,53,53,26,1,two_way_cognate,1,REAL,FALSA
,,,,,,,,,62e95cb1f31ba3691a3ce87c,001,2025-05-03_09h49.17.734,empathy_intonation_perc,2024.1.4,Win32,58.82352941,,,,,,,,,,,,,,52,blando,,,,,,152.4763,154.1262,0,1,1.1106,,0,54,54,51,1,non_cognate,1,REAL,FALSA
,,,,,,,,,62e95cb1f31ba3691a3ce87c,001,2025-05-03_09h49.17.734,empathy_intonation_perc,2024.1.4,Win32,58.82352941,,,,,,,,,,,,,,118,bará,,,,,,154.1269,155.4249,1,0,0.7596,,0,55,55,117,1,pseudoword,0,REAL,FALSA
,,,,,,,,,62e95cb1f31ba3691a3ce87c,001,2025-05-03_09h49.17.734,empathy_intonation_perc,2024.1.4,Win32,58.82352941,,,,,,,,,,,,,,58,colcha,,,,,,155.4253,156.925,0,1,0.98,,0,56,56,57,1,non_cognate,1,REAL,FALSA
,,,,,,,,,62e95cb1f31ba3691a3ce87c,001,2025-05-03_09h49.17.734,empathy_intonation_perc,2024.1.4,Win32,58.82352941,,,,,,,,,,,,,,57,regalo,,,,,,156.9256,158.1911,1,0,0.7254,,0,57,57,56,1,non_cognate,1,REAL,FALSA
,,,,,,,,,62e95cb1f31ba3691a3ce87c,001,2025-05-03_09h49.17.734,empathy_intonation_perc,2024.1.4,Win32,58.82352941,,,,,,,,,,,,,,55,maldad,,,,,,158.1918,160.1068,1,0,1.3859,,0,58,58,54,1,non_cognate,1,REAL,FALSA
,,,,,,,,,62e95cb1f31ba3691a3ce87c,001,2025-05-03_09h49.17.734,empathy_intonation_perc,2024.1.4,Win32,58.82352941,,,,,,,,,,,,,,117,morrá,,,,,,160.1074,161.3229,0,1,0.6871,,0,59,59,116,1,pseudoword,0,REAL,FALSA
,,,,,,,,,62e95cb1f31ba3691a3ce87c,001,2025-05-03_09h49.17.734,empathy_intonation_perc,2024.1.4,Win32,58.82352941,,,,,,,,,,,,,,132,nocó,,,,,,161.3236,162.6055,0,1,0.7523,,0,60,60,131,1,pseudoword,0,REAL,FALSA
,,,,,,,,,62e95cb1f31ba3691a3ce87c,001,2025-05-03_09h49.17.734,empathy_intonation_perc,2024.1.4,Win32,58.82352941,,,,,,,,,,,,,,91,equipo,,,,,,162.6063,163.7389,1,0,0.5918,,0,61,61,90,1,non_cognate,1,REAL,FALSA
,,,,,,,,,62e95cb1f31ba3691a3ce87c,001,2025-05-03_09h49.17.734,empathy_intonation_perc,2024.1.4,Win32,58.82352941,,,,,,,,,,,,,,54,tapón,,,,,,163.7395,165.1209,1,0,0.851,,0,62,62,53,1,non_cognate,1,REAL,FALSA
,,,,,,,,,62e95cb1f31ba3691a3ce87c,001,2025-05-03_09h49.17.734,empathy_intonation_perc,2024.1.4,Win32,58.82352941,,,,,,,,,,,,,,72,rostro,,,,,,165.1217,166.9699,0,1,1.3058,,0,63,63,71,1,non_cognate,1,REAL,FALSA
,,,,,,,,,62e95cb1f31ba3691a3ce87c,001,2025-05-03_09h49.17.734,empathy_intonation_perc,2024.1.4,Win32,58.82352941,,,,,,,,,,,,,,5,extra,,,,,,166.9704,168.0701,1,0,0.559,,0,64,64,4,1,three_way_cognate,1,REAL,FALSA
,,,,,,,,,62e95cb1f31ba3691a3ce87c,001,2025-05-03_09h49.17.734,empathy_intonation_perc,2024.1.4,Win32,58.82352941,,,,,,,,,,,,,,11,golf,,,,,,168.071,169.1359,1,0,0.5345,,0,65,65,10,1,three_way_cognate,1,REAL,FALSA
,,,,,,,,,62e95cb1f31ba3691a3ce87c,001,2025-05-03_09h49.17.734,empathy_intonation_perc,2024.1.4,Win32,58.82352941,,,,,,,,,,,,,,10,drama,,,,,,169.1369,170.4187,1,0,0.7466,,0,66,66,9,1,three_way_cognate,1,REAL,FALSA
,,,,,,,,,62e95cb1f31ba3691a3ce87c,001,2025-05-03_09h49.17.734,empathy_intonation_perc,2024.1.4,Win32,58.82352941,,,,,,,,,,,,,,4,flora,,,,,,170.4191,171.5513,1,0,0.5957,,0,67,67,3,1,three_way_cognate,1,REAL,FALSA
,,,,,,,,,62e95cb1f31ba3691a3ce87c,001,2025-05-03_09h49.17.734,empathy_intonation_perc,2024.1.4,Win32,58.82352941,,,,,,,,,,,,,,188,amplir,,,,,,171.552,172.7346,1,0,0.6434,,0,68,68,187,1,pseudoword,0,REAL,FALSA
,,,,,,,,,62e95cb1f31ba3691a3ce87c,001,2025-05-03_09h49.17.734,empathy_intonation_perc,2024.1.4,Win32,58.82352941,,,,,,,,,,,,,,6,horror,,,,,,172.7353,173.7842,1,0,0.5118,,0,69,69,5,1,three_way_cognate,1,REAL,FALSA
,,,,,,,,,62e95cb1f31ba3691a3ce87c,001,2025-05-03_09h49.17.734,empathy_intonation_perc,2024.1.4,Win32,58.82352941,,,,,,,,,,,,,,92,flecha,,,,,,173.7848,175.3998,0,1,1.0762,,0,70,70,91,1,non_cognate,1,REAL,FALSA
,,,,,,,,,62e95cb1f31ba3691a3ce87c,001,2025-05-03_09h49.17.734,empathy_intonation_perc,2024.1.4,Win32,58.82352941,,,,,,,,,,,,,,73,llevar,,,,,,175.4004,176.5331,1,0,0.5941,,0,71,71,72,1,non_cognate,1,REAL,FALSA
,,,,,,,,,62e95cb1f31ba3691a3ce87c,001,2025-05-03_09h49.17.734,empathy_intonation_perc,2024.1.4,Win32,58.82352941,,,,,,,,,,,,,,44,editor,,,,,,176.5336,177.6157,1,0,0.5425,,0,72,72,43,1,two_way_cognate,1,REAL,FALSA
,,,,,,,,,62e95cb1f31ba3691a3ce87c,001,2025-05-03_09h49.17.734,empathy_intonation_perc,2024.1.4,Win32,58.82352941,,,,,,,,,,,,,,130,dubo,,,,,,177.6165,178.7816,0,1,0.6354,,0,73,73,129,1,pseudoword,0,REAL,FALSA
,,,,,,,,,62e95cb1f31ba3691a3ce87c,001,2025-05-03_09h49.17.734,empathy_intonation_perc,2024.1.4,Win32,58.82352941,,,,,,,,,,,,,,175,tradía,,,,,,178.7823,180.3302,0,1,1.017,,0,74,74,174,1,pseudoword,0,REAL,FALSA
,,,,,,,,,62e95cb1f31ba3691a3ce87c,001,2025-05-03_09h49.17.734,empathy_intonation_perc,2024.1.4,Win32,58.82352941,,,,,,,,,,,,,,167,dobbo,,,,,,180.3304,181.8973,0,1,1.0439,,0,75,75,166,1,pseudoword,0,REAL,FALSA
,,,,,,,,,62e95cb1f31ba3691a3ce87c,001,2025-05-03_09h49.17.734,empathy_intonation_perc,2024.1.4,Win32,58.82352941,,,,,,,,,,,,,,186,rizate,,,,,,181.8979,183.3467,0,1,0.9154,,0,76,76,185,1,pseudoword,0,REAL,FALSA
,,,,,,,,,62e95cb1f31ba3691a3ce87c,001,2025-05-03_09h49.17.734,empathy_intonation_perc,2024.1.4,Win32,58.82352941,,,,,,,,,,,,,,9,portal,,,,,,183.3474,184.5285,1,0,0.652,,0,77,77,8,1,three_way_cognate,1,REAL,FALSA
,,,,,,,,,62e95cb1f31ba3691a3ce87c,001,2025-05-03_09h49.17.734,empathy_intonation_perc,2024.1.4,Win32,58.82352941,,,,,,,,,,,,,,150,cricó,,,,,,184.5287,186.3288,0,1,1.267,,0,78,78,149,1,pseudoword,0,REAL,FALSA
,,,,,,,,,62e95cb1f31ba3691a3ce87c,001,2025-05-03_09h49.17.734,empathy_intonation_perc,2024.1.4,Win32,58.82352941,,,,,,,,,,,,,,135,panté,,,,,,186.3295,187.5782,0,1,0.7127,,0,79,79,134,1,pseudoword,0,REAL,FALSA
,,,,,,,,,62e95cb1f31ba3691a3ce87c,001,2025-05-03_09h49.17.734,empathy_intonation_perc,2024.1.4,Win32,58.82352941,,,,,,,,,,,,,,145,rúo,,,,,,187.5794,188.761,0,1,0.651,,0,80,80,144,1,pseudoword,0,REAL,FALSA
,,,,,,,,,62e95cb1f31ba3691a3ce87c,001,2025-05-03_09h49.17.734,empathy_intonation_perc,2024.1.4,Win32,58.82352941,,,,,,,,,,,,,,41,pasta,,,,,,188.7617,189.8268,1,0,0.5334,,0,81,81,40,1,two_way_cognate,1,REAL,FALSA
,,,,,,,,,62e95cb1f31ba3691a3ce87c,001,2025-05-03_09h49.17.734,empathy_intonation_perc,2024.1.4,Win32,58.82352941,,,,,,,,,,,,,,76,chocar,,,,,,189.8275,191.0933,0,1,0.7266,,0,82,82,75,1,non_cognate,1,REAL,FALSA
,,,,,,,,,62e95cb1f31ba3691a3ce87c,001,2025-05-03_09h49.17.734,empathy_intonation_perc,2024.1.4,Win32,58.82352941,,,,,,,,,,,,,,177,entodo,,,,,,191.0939,192.6924,0,1,1.0665,,0,83,83,176,1,pseudoword,0,REAL,FALSA
,,,,,,,,,62e95cb1f31ba3691a3ce87c,001,2025-05-03_09h49.17.734,empathy_intonation_perc,2024.1.4,Win32,58.82352941,,,,,,,,,,,,,,106,diebro,,,,,,192.6931,193.9253,0,1,0.6974,,0,84,84,105,1,pseudoword,0,REAL,FALSA
,,,,,,,,,62e95cb1f31ba3691a3ce87c,001,2025-05-03_09h49.17.734,empathy_intonation_perc,2024.1.4,Win32,58.82352941,,,,,,,,,,,,,,56,pico,,,,,,193.9259,195.2076,0,1,0.7519,,0,85,85,55,1,non_cognate,1,REAL,FALSA
,,,,,,,,,62e95cb1f31ba3691a3ce87c,001,2025-05-03_09h49.17.734,empathy_intonation_perc,2024.1.4,Win32,58.82352941,,,,,,,,,,,,,,162,cengo,,,,,,195.2083,196.3745,0,1,0.627,,0,86,86,161,1,pseudoword,0,REAL,FALSA
,,,,,,,,,62e95cb1f31ba3691a3ce87c,001,2025-05-03_09h49.17.734,empathy_intonation_perc,2024.1.4,Win32,58.82352941,,,,,,,,,,,,,,16,chat,,,,,,196.3753,197.4401,1,0,0.5235,,0,87,87,15,1,three_way_cognate,1,REAL,FALSA
,,,,,,,,,62e95cb1f31ba3691a3ce87c,001,2025-05-03_09h49.17.734,empathy_intonation_perc,2024.1.4,Win32,58.82352941,,,,,,,,,,,,,,32,animal,,,,,,197.4404,198.5063,1,0,0.5271,,0,88,88,31,1,two_way_cognate,1,REAL,FALSA
,,,,,,,,,62e95cb1f31ba3691a3ce87c,001,2025-05-03_09h49.17.734,empathy_intonation_perc,2024.1.4,Win32,58.82352941,,,,,,,,,,,,,,39,casual,,,,,,198.507,199.6897,1,0,0.6448,,0,89,89,38,1,two_way_cognate,1,REAL,FALSA
,,,,,,,,,62e95cb1f31ba3691a3ce87c,001,2025-05-03_09h49.17.734,empathy_intonation_perc,2024.1.4,Win32,58.82352941,,,,,,,,,,,,,,28,ardor,,,,,,199.6909,200.922,0,1,0.6941,,0,90,90,27,1,two_way_cognate,1,REAL,FALSA
,,,,,,,,,62e95cb1f31ba3691a3ce87c,001,2025-05-03_09h49.17.734,empathy_intonation_perc,2024.1.4,Win32,58.82352941,,,,,,,,,,,,,,122,boñaz,,,,,,200.9227,202.3879,0,1,0.925,,0,91,91,121,1,pseudoword,0,REAL,FALSA
,,,,,,,,,62e95cb1f31ba3691a3ce87c,001,2025-05-03_09h49.17.734,empathy_intonation_perc,2024.1.4,Win32,58.82352941,,,,,,,,,,,,,,121,barbs,,,,,,202.3885,203.6709,0,1,0.7438,,0,92,92,120,1,pseudoword,0,REAL,FALSA
,,,,,,,,,62e95cb1f31ba3691a3ce87c,001,2025-05-03_09h49.17.734,empathy_intonation_perc,2024.1.4,Win32,58.82352941,,,,,,,,,,,,,,115,lidena,,,,,,203.6716,205.0703,0,1,0.8636,,0,93,93,114,1,pseudoword,0,REAL,FALSA
,,,,,,,,,62e95cb1f31ba3691a3ce87c,001,2025-05-03_09h49.17.734,empathy_intonation_perc,2024.1.4,Win32,58.82352941,,,,,,,,,,,,,,80,cuenco,,,,,,205.0711,206.4531,0,1,0.8425,,0,94,94,79,1,non_cognate,1,REAL,FALSA
,,,,,,,,,62e95cb1f31ba3691a3ce87c,001,2025-05-03_09h49.17.734,empathy_intonation_perc,2024.1.4,Win32,58.82352941,,,,,,,,,,,,,,83,hálito,,,,,,206.4538,207.5854,0,1,0.598,,0,95,95,82,1,non_cognate,1,REAL,FALSA
,,,,,,,,,62e95cb1f31ba3691a3ce87c,001,2025-05-03_09h49.17.734,empathy_intonation_perc,2024.1.4,Win32,58.82352941,,,,,,,,,,,,,,35,aurora,,,,,,207.5863,208.9184,1,0,0.8021,,0,96,96,34,1,two_way_cognate,1,REAL,FALSA
,,,,,,,,,62e95cb1f31ba3691a3ce87c,001,2025-05-03_09h49.17.734,empathy_intonation_perc,2024.1.4,Win32,58.82352941,,,,,,,,,,,,,,96,caro,,,,,,208.9193,210.1675,1,0,0.7159,,0,97,97,95,1,non_cognate,1,REAL,FALSA
,,,,,,,,,62e95cb1f31ba3691a3ce87c,001,2025-05-03_09h49.17.734,empathy_intonation_perc,2024.1.4,Win32,58.82352941,,,,,,,,,,,,,,156,ozoso,,,,,,210.1679,212.0506,1,0,1.3459,,0,98,98,155,1,pseudoword,0,REAL,FALSA
,,,,,,,,,62e95cb1f31ba3691a3ce87c,001,2025-05-03_09h49.17.734,empathy_intonation_perc,2024.1.4,Win32,58.82352941,,,,,,,,,,,,,,155,kugis,,,,,,212.0512,213.383,0,1,0.7992,,0,99,99,154,1,pseudoword,0,REAL,FALSA
,,,,,,,,,62e95cb1f31ba3691a3ce87c,001,2025-05-03_09h49.17.734,empathy_intonation_perc,2024.1.4,Win32,58.82352941,,,,,,,,,,,,,,17,clan,,,,,,213.3837,214.8823,1,0,0.966,,0,100,100,16,1,three_way_cognate,1,REAL,FALSA
,,,,,,,,,62e95cb1f31ba3691a3ce87c,001,2025-05-03_09h49.17.734,empathy_intonation_perc,2024.1.4,Win32,58.82352941,,,,,,,,,,,,,,14,aura,,,,,,214.8832,215.9818,1,0,0.5695,,0,101,101,13,1,three_way_cognate,1,REAL,FALSA
,,,,,,,,,62e95cb1f31ba3691a3ce87c,001,2025-05-03_09h49.17.734,empathy_intonation_perc,2024.1.4,Win32,58.82352941,,,,,,,,,,,,,,116,grigir,,,,,,215.9826,217.5813,0,1,1.0651,,0,102,102,115,1,pseudoword,0,REAL,FALSA
,,,,,,,,,62e95cb1f31ba3691a3ce87c,001,2025-05-03_09h49.17.734,empathy_intonation_perc,2024.1.4,Win32,58.82352941,,,,,,,,,,,,,,21,hotel,,,,,,217.5819,218.6306,1,0,0.5165,,0,103,103,20,1,three_way_cognate,1,REAL,FALSA
,,,,,,,,,62e95cb1f31ba3691a3ce87c,001,2025-05-03_09h49.17.734,empathy_intonation_perc,2024.1.4,Win32,58.82352941,,,,,,,,,,,,,,169,pitis,,,,,,218.6313,220.0301,0,1,0.8661,,0,104,104,168,1,pseudoword,0,REAL,FALSA
,,,,,,,,,62e95cb1f31ba3691a3ce87c,001,2025-05-03_09h49.17.734,empathy_intonation_perc,2024.1.4,Win32,58.82352941,,,,,,,,,,,,,,182,desaro,,,,,,220.0307,221.9629,1,0,1.3931,,0,105,105,181,1,pseudoword,0,REAL,FALSA
,,,,,,,,,62e95cb1f31ba3691a3ce87c,001,2025-05-03_09h49.17.734,empathy_intonation_perc,2024.1.4,Win32,58.82352941,,,,,,,,,,,,,,101,losco,,,,,,221.9635,223.1623,0,1,0.6584,,0,106,106,100,1,pseudoword,0,REAL,FALSA
,,,,,,,,,62e95cb1f31ba3691a3ce87c,001,2025-05-03_09h49.17.734,empathy_intonation_perc,2024.1.4,Win32,58.82352941,,,,,,,,,,,,,,93,tapa,,,,,,223.163,224.3286,1,0,0.6314,,0,107,107,92,1,non_cognate,1,REAL,FALSA
,,,,,,,,,62e95cb1f31ba3691a3ce87c,001,2025-05-03_09h49.17.734,empathy_intonation_perc,2024.1.4,Win32,58.82352941,,,,,,,,,,,,,,168,cobén,,,,,,224.3292,225.6279,0,1,0.7649,,0,108,108,167,1,pseudoword,0,REAL,FALSA
,,,,,,,,,62e95cb1f31ba3691a3ce87c,001,2025-05-03_09h49.17.734,empathy_intonation_perc,2024.1.4,Win32,58.82352941,,,,,,,,,,,,,,26,enigma,,,,,,225.6286,227.4934,1,0,1.3324,,0,109,109,25,1,two_way_cognate,1,REAL,FALSA
,,,,,,,,,62e95cb1f31ba3691a3ce87c,001,2025-05-03_09h49.17.734,empathy_intonation_perc,2024.1.4,Win32,58.82352941,,,,,,,,,,,,,,178,inichó,,,,,,227.494,228.6929,0,1,0.6579,,0,110,110,177,1,pseudoword,0,REAL,FALSA
,,,,,,,,,62e95cb1f31ba3691a3ce87c,001,2025-05-03_09h49.17.734,empathy_intonation_perc,2024.1.4,Win32,58.82352941,,,,,,,,,,,,,,20,trauma,,,,,,228.6936,229.8092,1,0,0.5771,,0,111,111,19,1,three_way_cognate,1,REAL,FALSA
,,,,,,,,,62e95cb1f31ba3691a3ce87c,001,2025-05-03_09h49.17.734,empathy_intonation_perc,2024.1.4,Win32,58.82352941,,,,,,,,,,,,,,124,lobe,,,,,,229.8103,231.175,0,1,0.8331,,0,112,112,123,1,pseudoword,0,REAL,FALSA
,,,,,,,,,62e95cb1f31ba3691a3ce87c,001,2025-05-03_09h49.17.734,empathy_intonation_perc,2024.1.4,Win32,58.82352941,,,,,,,,,,,,,,87,muleta,,,,,,231.1757,232.4585,1,0,0.743,,0,113,113,86,1,non_cognate,1,REAL,FALSA
,,,,,,,,,62e95cb1f31ba3691a3ce87c,001,2025-05-03_09h49.17.734,empathy_intonation_perc,2024.1.4,Win32,58.82352941,,,,,,,,,,,,,,24,retina,,,,,,232.4591,233.7412,0,1,0.7429,,0,114,114,23,1,three_way_cognate,1,REAL,FALSA
,,,,,,,,,62e95cb1f31ba3691a3ce87c,001,2025-05-03_09h49.17.734,empathy_intonation_perc,2024.1.4,Win32,58.82352941,,,,,,,,,,,,,,66,aleta,,,,,,233.742,234.8904,0,1,0.611,,0,115,115,65,1,non_cognate,1,REAL,FALSA
,,,,,,,,,62e95cb1f31ba3691a3ce87c,001,2025-05-03_09h49.17.734,empathy_intonation_perc,2024.1.4,Win32,58.82352941,,,,,,,,,,,,,,110,densó,,,,,,234.8911,236.6065,1,0,1.1764,,0,116,116,109,1,pseudoword,0,REAL,FALSA
,,,,,,,,,62e95cb1f31ba3691a3ce87c,001,2025-05-03_09h49.17.734,empathy_intonation_perc,2024.1.4,Win32,58.82352941,,,,,,,,,,,,,,59,feo,,,,,,236.6071,237.8554,1,0,0.7176,,0,117,117,58,1,non_cognate,1,REAL,FALSA
,,,,,,,,,62e95cb1f31ba3691a3ce87c,001,2025-05-03_09h49.17.734,empathy_intonation_perc,2024.1.4,Win32,58.82352941,,,,,,,,,,,,,,90,venado,,,,,,237.8564,239.2553,1,0,0.861,,0,118,118,89,1,non_cognate,1,REAL,FALSA
,,,,,,,,,62e95cb1f31ba3691a3ce87c,001,2025-05-03_09h49.17.734,empathy_intonation_perc,2024.1.4,Win32,58.82352941,,,,,,,,,,,,,,191,frasis,,,,,,239.2561,240.3211,1,0,0.5258,,0,119,119,190,1,pseudoword,0,REAL,FALSA
,,,,,,,,,62e95cb1f31ba3691a3ce87c,001,2025-05-03_09h49.17.734,empathy_intonation_perc,2024.1.4,Win32,58.82352941,,,,,,,,,,,,,,74,ala,,,,,,240.3218,241.4706,0,1,0.6095,,0,120,120,73,1,non_cognate,1,REAL,FALSA
,,,,,,,,,62e95cb1f31ba3691a3ce87c,001,2025-05-03_09h49.17.734,empathy_intonation_perc,2024.1.4,Win32,58.82352941,,,,,,,,,,,,,,65,guerra,,,,,,241.4712,242.6872,1,0,0.6772,,0,121,121,64,1,non_cognate,1,REAL,FALSA
,,,,,,,,,62e95cb1f31ba3691a3ce87c,001,2025-05-03_09h49.17.734,empathy_intonation_perc,2024.1.4,Win32,58.82352941,,,,,,,,,,,,,,29,clamor,,,,,,242.6879,244.7191,0,1,1.5016,,0,122,122,28,1,two_way_cognate,1,REAL,FALSA
,,,,,,,,,62e95cb1f31ba3691a3ce87c,001,2025-05-03_09h49.17.734,empathy_intonation_perc,2024.1.4,Win32,58.82352941,,,,,,,,,,,,,,108,jauda,,,,,,244.7199,246.0853,0,1,0.8256,,0,123,123,107,1,pseudoword,0,REAL,FALSA
,,,,,,,,,62e95cb1f31ba3691a3ce87c,001,2025-05-03_09h49.17.734,empathy_intonation_perc,2024.1.4,Win32,58.82352941,,,,,,,,,,,,,,113,nasce,,,,,,246.086,247.2685,0,1,0.6455,,0,124,124,112,1,pseudoword,0,REAL,FALSA
,,,,,,,,,62e95cb1f31ba3691a3ce87c,001,2025-05-03_09h49.17.734,empathy_intonation_perc,2024.1.4,Win32,58.82352941,,,,,,,,,,,,,,153,golla,,,,,,247.2692,248.3677,0,1,0.5603,,0,125,125,152,1,pseudoword,0,REAL,FALSA
,,,,,,,,,62e95cb1f31ba3691a3ce87c,001,2025-05-03_09h49.17.734,empathy_intonation_perc,2024.1.4,Win32,58.82352941,,,,,,,,,,,,,,22,mango,,,,,,248.3684,249.6175,1,0,0.7098,,0,126,126,21,1,three_way_cognate,1,REAL,FALSA
,,,,,,,,,62e95cb1f31ba3691a3ce87c,001,2025-05-03_09h49.17.734,empathy_intonation_perc,2024.1.4,Win32,58.82352941,,,,,,,,,,,,,,88,percha,,,,,,249.6181,251.1831,1,0,1.0268,,0,127,127,87,1,non_cognate,1,REAL,FALSA
,,,,,,,,,62e95cb1f31ba3691a3ce87c,001,2025-05-03_09h49.17.734,empathy_intonation_perc,2024.1.4,Win32,58.82352941,,,,,,,,,,,,,,47,color,,,,,,251.1837,252.5987,1,0,0.8765,,0,128,128,46,1,two_way_cognate,1,REAL,FALSA
,,,,,,,,,62e95cb1f31ba3691a3ce87c,001,2025-05-03_09h49.17.734,empathy_intonation_perc,2024.1.4,Win32,58.82352941,,,,,,,,,,,,,,143,hurcos,,,,,,252.5994,253.7995,0,1,0.6725,,0,129,129,142,1,pseudoword,0,REAL,FALSA
,,,,,,,,,62e95cb1f31ba3691a3ce87c,001,2025-05-03_09h49.17.734,empathy_intonation_perc,2024.1.4,Win32,58.82352941,,,,,,,,,,,,,,63,hilo,,,,,,253.8004,255.2313,0,1,0.8943,,0,130,130,62,1,non_cognate,1,REAL,FALSA
,,,,,,,,,62e95cb1f31ba3691a3ce87c,001,2025-05-03_09h49.17.734,empathy_intonation_perc,2024.1.4,Win32,58.82352941,,,,,,,,,,,,,,142,parre,,,,,,255.2319,256.4306,0,1,0.6613,,0,131,131,141,1,pseudoword,0,REAL,FALSA
,,,,,,,,,62e95cb1f31ba3691a3ce87c,001,2025-05-03_09h49.17.734,empathy_intonation_perc,2024.1.4,Win32,58.82352941,,,,,,,,,,,,,,42,rumor,,,,,,256.4314,257.7796,1,0,0.8174,,0,132,132,41,1,two_way_cognate,1,REAL,FALSA
,,,,,,,,,62e95cb1f31ba3691a3ce87c,001,2025-05-03_09h49.17.734,empathy_intonation_perc,2024.1.4,Win32,58.82352941,,,,,,,,,,,,,,49,teñir,,,,,,257.7802,259.1453,1,0,0.8295,,0,133,133,48,1,non_cognate,1,REAL,FALSA
,,,,,,,,,62e95cb1f31ba3691a3ce87c,001,2025-05-03_09h49.17.734,empathy_intonation_perc,2024.1.4,Win32,58.82352941,,,,,,,,,,,,,,147,alla,,,,,,259.1457,261.212,1,0,1.545,,0,134,134,146,1,pseudoword,0,REAL,FALSA
,,,,,,,,,62e95cb1f31ba3691a3ce87c,001,2025-05-03_09h49.17.734,empathy_intonation_perc,2024.1.4,Win32,58.82352941,,,,,,,,,,,,,,172,dogue,,,,,,261.2128,262.5452,0,1,0.7914,,0,135,135,171,1,pseudoword,0,REAL,FALSA
,,,,,,,,,62e95cb1f31ba3691a3ce87c,001,2025-05-03_09h49.17.734,empathy_intonation_perc,2024.1.4,Win32,58.82352941,,,,,,,,,,,,,,125,ceme,,,,,,262.546,263.7773,0,1,0.6944,,0,136,136,124,1,pseudoword,0,REAL,FALSA
,,,,,,,,,62e95cb1f31ba3691a3ce87c,001,2025-05-03_09h49.17.734,empathy_intonation_perc,2024.1.4,Win32,58.82352941,,,,,,,,,,,,,,112,samón,,,,,,263.778,265.0772,0,1,0.7631,,0,137,137,111,1,pseudoword,0,REAL,FALSA
,,,,,,,,,62e95cb1f31ba3691a3ce87c,001,2025-05-03_09h49.17.734,empathy_intonation_perc,2024.1.4,Win32,58.82352941,,,,,,,,,,,,,,19,mafia,,,,,,265.0778,266.3429,1,0,0.7266,,0,138,138,18,1,three_way_cognate,1,REAL,FALSA
,,,,,,,,,62e95cb1f31ba3691a3ce87c,001,2025-05-03_09h49.17.734,empathy_intonation_perc,2024.1.4,Win32,58.82352941,,,,,,,,,,,,,,148,gino,,,,,,266.3437,267.6594,0,1,0.776,,0,139,139,147,1,pseudoword,0,REAL,FALSA
,,,,,,,,,62e95cb1f31ba3691a3ce87c,001,2025-05-03_09h49.17.734,empathy_intonation_perc,2024.1.4,Win32,58.82352941,,,,,,,,,,,,,,99,bugor,,,,,,267.6602,268.9756,0,1,0.7767,,0,140,140,98,1,pseudoword,0,REAL,FALSA
,,,,,,,,,62e95cb1f31ba3691a3ce87c,001,2025-05-03_09h49.17.734,empathy_intonation_perc,2024.1.4,Win32,58.82352941,,,,,,,,,,,,,,134,molor,,,,,,268.9765,270.1249,0,1,0.6147,,0,141,141,133,1,pseudoword,0,REAL,FALSA
,,,,,,,,,62e95cb1f31ba3691a3ce87c,001,2025-05-03_09h49.17.734,empathy_intonation_perc,2024.1.4,Win32,58.82352941,,,,,,,,,,,,,,78,rendir,,,,,,270.1259,271.208,0,1,0.5428,,0,142,142,77,1,non_cognate,1,REAL,FALSA
,,,,,,,,,62e95cb1f31ba3691a3ce87c,001,2025-05-03_09h49.17.734,empathy_intonation_perc,2024.1.4,Win32,58.82352941,,,,,,,,,,,,,,70,ánimo,,,,,,271.2087,272.3071,0,1,0.5603,,0,143,143,69,1,non_cognate,1,REAL,FALSA
,,,,,,,,,62e95cb1f31ba3691a3ce87c,001,2025-05-03_09h49.17.734,empathy_intonation_perc,2024.1.4,Win32,58.82352941,,,,,,,,,,,,,,64,rizado,,,,,,272.3078,273.5733,1,0,0.7264,,0,144,144,63,1,non_cognate,1,REAL,FALSA
,,,,,,,,,62e95cb1f31ba3691a3ce87c,001,2025-05-03_09h49.17.734,empathy_intonation_perc,2024.1.4,Win32,58.82352941,,,,,,,,,,,,,,71,torta,,,,,,273.5739,274.6895,1,0,0.5786,,0,145,145,70,1,non_cognate,1,REAL,FALSA
,,,,,,,,,62e95cb1f31ba3691a3ce87c,001,2025-05-03_09h49.17.734,empathy_intonation_perc,2024.1.4,Win32,58.82352941,,,,,,,,,,,,,,192,próces,,,,,,274.6904,276.0718,1,0,0.8428,,0,146,146,191,1,pseudoword,0,REAL,FALSA
,,,,,,,,,62e95cb1f31ba3691a3ce87c,001,2025-05-03_09h49.17.734,empathy_intonation_perc,2024.1.4,Win32,58.82352941,,,,,,,,,,,,,,23,plural,,,,,,276.0726,277.239,1,0,0.6365,,0,147,147,22,1,three_way_cognate,1,REAL,FALSA
,,,,,,,,,62e95cb1f31ba3691a3ce87c,001,2025-05-03_09h49.17.734,empathy_intonation_perc,2024.1.4,Win32,58.82352941,,,,,,,,,,,,,,107,plago,,,,,,277.24,278.4883,1,0,0.7202,,0,148,148,106,1,pseudoword,0,REAL,FALSA
,,,,,,,,,62e95cb1f31ba3691a3ce87c,001,2025-05-03_09h49.17.734,empathy_intonation_perc,2024.1.4,Win32,58.82352941,,,,,,,,,,,,,,111,monue,,,,,,278.4896,279.8208,0,1,0.7934,,0,149,149,110,1,pseudoword,0,REAL,FALSA
,,,,,,,,,62e95cb1f31ba3691a3ce87c,001,2025-05-03_09h49.17.734,empathy_intonation_perc,2024.1.4,Win32,58.82352941,,,,,,,,,,,,,,184,huenos,,,,,,279.8216,281.3865,0,1,1.0344,,0,150,150,183,1,pseudoword,0,REAL,FALSA
,,,,,,,,,62e95cb1f31ba3691a3ce87c,001,2025-05-03_09h49.17.734,empathy_intonation_perc,2024.1.4,Win32,58.82352941,,,,,,,,,,,,,,51,listo,,,,,,281.3873,282.486,1,0,0.566,,0,151,151,50,1,non_cognate,1,REAL,FALSA
,,,,,,,,,62e95cb1f31ba3691a3ce87c,001,2025-05-03_09h49.17.734,empathy_intonation_perc,2024.1.4,Win32,58.82352941,,,,,,,,,,,,,,104,estulo,,,,,,282.4867,283.8189,0,1,0.7934,,0,152,152,103,1,pseudoword,0,REAL,FALSA
,,,,,,,,,62e95cb1f31ba3691a3ce87c,001,2025-05-03_09h49.17.734,empathy_intonation_perc,2024.1.4,Win32,58.82352941,,,,,,,,,,,,,,136,hueas,,,,,,283.8195,285.2015,0,1,0.8484,,0,153,153,135,1,pseudoword,0,REAL,FALSA
,,,,,,,,,62e95cb1f31ba3691a3ce87c,001,2025-05-03_09h49.17.734,empathy_intonation_perc,2024.1.4,Win32,58.82352941,,,,,,,,,,,,,,38,halo,,,,,,285.2024,286.2832,1,0,0.5451,,0,154,154,37,1,two_way_cognate,1,REAL,FALSA
,,,,,,,,,62e95cb1f31ba3691a3ce87c,001,2025-05-03_09h49.17.734,empathy_intonation_perc,2024.1.4,Win32,58.82352941,,,,,,,,,,,,,,3,disco,,,,,,286.2834,286.8839,0,1,0.0808,,0,155,155,2,1,three_way_cognate,1,REAL,FALSA
,,,,,,,,,62e95cb1f31ba3691a3ce87c,001,2025-05-03_09h49.17.734,empathy_intonation_perc,2024.1.4,Win32,58.82352941,,,,,,,,,,,,,,8,kilo,,,,,,286.8846,288.0004,1,0,0.5824,,0,156,156,7,1,three_way_cognate,1,REAL,FALSA
,,,,,,,,,62e95cb1f31ba3691a3ce87c,001,2025-05-03_09h49.17.734,empathy_intonation_perc,2024.1.4,Win32,58.82352941,,,,,,,,,,,,,,15,test,,,,,,288.0012,288.9655,1,0,0.4234,,0,157,157,14,1,three_way_cognate,1,REAL,FALSA
,,,,,,,,,62e95cb1f31ba3691a3ce87c,001,2025-05-03_09h49.17.734,empathy_intonation_perc,2024.1.4,Win32,58.82352941,,,,,,,,,,,,,,100,épinas,,,,,,288.9657,290.9158,0,1,1.4261,,0,158,158,99,1,pseudoword,0,REAL,FALSA
,,,,,,,,,62e95cb1f31ba3691a3ce87c,001,2025-05-03_09h49.17.734,empathy_intonation_perc,2024.1.4,Win32,58.82352941,,,,,,,,,,,,,,129,vinzó,,,,,,290.9164,292.0648,0,1,0.6107,,0,159,159,128,1,pseudoword,0,REAL,FALSA
,,,,,,,,,62e95cb1f31ba3691a3ce87c,001,2025-05-03_09h49.17.734,empathy_intonation_perc,2024.1.4,Win32,58.82352941,,,,,,,,,,,,,,165,chote,,,,,,292.0655,293.2647,0,1,0.6596,,0,160,160,164,1,pseudoword,0,REAL,FALSA
,,,,,,,,,62e95cb1f31ba3691a3ce87c,001,2025-05-03_09h49.17.734,empathy_intonation_perc,2024.1.4,Win32,58.82352941,,,,,,,,,,,,,,84,aviso,,,,,,293.2654,294.4141,1,0,0.6133,,0,161,161,83,1,non_cognate,1,REAL,FALSA
,,,,,,,,,62e95cb1f31ba3691a3ce87c,001,2025-05-03_09h49.17.734,empathy_intonation_perc,2024.1.4,Win32,58.82352941,,,,,,,,,,,,,,95,listo,,,,,,294.415,295.6303,1,0,0.6768,,0,162,162,94,1,non_cognate,1,REAL,FALSA
,,,,,,,,,62e95cb1f31ba3691a3ce87c,001,2025-05-03_09h49.17.734,empathy_intonation_perc,2024.1.4,Win32,58.82352941,,,,,,,,,,,,,,151,prías,,,,,,295.6312,296.913,0,1,0.7454,,0,163,163,150,1,pseudoword,0,REAL,FALSA
,,,,,,,,,62e95cb1f31ba3691a3ce87c,001,2025-05-03_09h49.17.734,empathy_intonation_perc,2024.1.4,Win32,58.82352941,,,,,,,,,,,,,,40,pelvis,,,,,,296.9136,298.0454,0,1,0.5923,,0,164,164,39,1,two_way_cognate,1,REAL,FALSA
,,,,,,,,,62e95cb1f31ba3691a3ce87c,001,2025-05-03_09h49.17.734,empathy_intonation_perc,2024.1.4,Win32,58.82352941,,,,,,,,,,,,,,97,nocita,,,,,,298.046,299.2449,0,1,0.6663,,0,165,165,96,1,pseudoword,0,REAL,FALSA
,,,,,,,,,62e95cb1f31ba3691a3ce87c,001,2025-05-03_09h49.17.734,empathy_intonation_perc,2024.1.4,Win32,58.82352941,,,,,,,,,,,,,,53,punta,,,,,,299.2456,300.3949,1,0,0.6113,,0,166,166,52,1,non_cognate,1,REAL,FALSA
,,,,,,,,,62e95cb1f31ba3691a3ce87c,001,2025-05-03_09h49.17.734,empathy_intonation_perc,2024.1.4,Win32,58.82352941,,,,,,,,,,,,,,103,vueras,,,,,,300.3958,301.5777,0,1,0.6469,,0,167,167,102,1,pseudoword,0,REAL,FALSA
,,,,,,,,,62e95cb1f31ba3691a3ce87c,001,2025-05-03_09h49.17.734,empathy_intonation_perc,2024.1.4,Win32,58.82352941,,,,,,,,,,,,,,190,asumie,,,,,,301.5783,302.8106,0,1,0.6935,,0,168,168,189,1,pseudoword,0,REAL,FALSA
,,,,,,,,,62e95cb1f31ba3691a3ce87c,001,2025-05-03_09h49.17.734,empathy_intonation_perc,2024.1.4,Win32,58.82352941,,,,,,,,,,,,,,7,albino,,,,,,302.8114,304.3929,1,0,1.0436,,0,169,169,6,1,three_way_cognate,1,REAL,FALSA
,,,,,,,,,62e95cb1f31ba3691a3ce87c,001,2025-05-03_09h49.17.734,empathy_intonation_perc,2024.1.4,Win32,58.82352941,,,,,,,,,,,,,,30,fiscal,,,,,,304.3937,305.5425,1,0,0.6105,,0,170,170,29,1,two_way_cognate,1,REAL,FALSA
,,,,,,,,,62e95cb1f31ba3691a3ce87c,001,2025-05-03_09h49.17.734,empathy_intonation_perc,2024.1.4,Win32,58.82352941,,,,,,,,,,,,,,69,tiza,,,,,,305.5431,307.5746,0,1,1.5021,,0,171,171,68,1,non_cognate,1,REAL,FALSA
,,,,,,,,,62e95cb1f31ba3691a3ce87c,001,2025-05-03_09h49.17.734,empathy_intonation_perc,2024.1.4,Win32,58.82352941,,,,,,,,,,,,,,68,puñal,,,,,,307.5757,308.8906,0,1,0.7755,,0,172,172,67,1,non_cognate,1,REAL,FALSA
,,,,,,,,,62e95cb1f31ba3691a3ce87c,001,2025-05-03_09h49.17.734,empathy_intonation_perc,2024.1.4,Win32,58.82352941,,,,,,,,,,,,,,43,honor,,,,,,308.8914,310.0239,1,0,0.5935,,0,173,173,42,1,two_way_cognate,1,REAL,FALSA
,,,,,,,,,62e95cb1f31ba3691a3ce87c,001,2025-05-03_09h49.17.734,empathy_intonation_perc,2024.1.4,Win32,58.82352941,,,,,,,,,,,,,,46,mortal,,,,,,310.0245,311.0568,1,0,0.4923,,0,174,174,45,1,two_way_cognate,1,REAL,FALSA
,,,,,,,,,62e95cb1f31ba3691a3ce87c,001,2025-05-03_09h49.17.734,empathy_intonation_perc,2024.1.4,Win32,58.82352941,,,,,,,,,,,,,,1,moral,,,,,,311.0578,312.1729,1,0,0.5785,,0,175,175,0,1,three_way_cognate,1,REAL,FALSA
,,,,,,,,,62e95cb1f31ba3691a3ce87c,001,2025-05-03_09h49.17.734,empathy_intonation_perc,2024.1.4,Win32,58.82352941,,,,,,,,,,,,,,86,cuenco,,,,,,312.1736,313.8385,0,1,1.1344,,0,176,176,85,1,non_cognate,1,REAL,FALSA
,,,,,,,,,62e95cb1f31ba3691a3ce87c,001,2025-05-03_09h49.17.734,empathy_intonation_perc,2024.1.4,Win32,58.82352941,,,,,,,,,,,,,,185,aljizo,,,,,,313.8394,315.0885,0,1,0.7086,,0,177,177,184,1,pseudoword,0,REAL,FALSA
,,,,,,,,,62e95cb1f31ba3691a3ce87c,001,2025-05-03_09h49.17.734,empathy_intonation_perc,2024.1.4,Win32,58.82352941,,,,,,,,,,,,,,137,trugo,,,,,,315.089,316.7373,0,1,1.1183,,0,178,178,136,1,pseudoword,0,REAL,FALSA
,,,,,,,,,62e95cb1f31ba3691a3ce87c,001,2025-05-03_09h49.17.734,empathy_intonation_perc,2024.1.4,Win32,58.82352941,,,,,,,,,,,,,,146,gió,,,,,,316.7381,318.2703,0,1,0.9943,,0,179,179,145,1,pseudoword,0,REAL,FALSA
,,,,,,,,,62e95cb1f31ba3691a3ce87c,001,2025-05-03_09h49.17.734,empathy_intonation_perc,2024.1.4,Win32,58.82352941,,,,,,,,,,,,,,45,total,,,,,,318.271,319.4863,1,0,0.6817,,0,180,180,44,1,two_way_cognate,1,REAL,FALSA
,,,,,,,,,62e95cb1f31ba3691a3ce87c,001,2025-05-03_09h49.17.734,empathy_intonation_perc,2024.1.4,Win32,58.82352941,,,,,,,,,,,,,,85,enorme,,,,,,319.487,320.6692,1,0,0.6426,,0,181,181,84,1,non_cognate,1,REAL,FALSA
,,,,,,,,,62e95cb1f31ba3691a3ce87c,001,2025-05-03_09h49.17.734,empathy_intonation_perc,2024.1.4,Win32,58.82352941,,,,,,,,,,,,,,13,plan,,,,,,320.6698,321.6355,1,0,0.4272,,0,182,182,12,1,three_way_cognate,1,REAL,FALSA
,,,,,,,,,62e95cb1f31ba3691a3ce87c,001,2025-05-03_09h49.17.734,empathy_intonation_perc,2024.1.4,Win32,58.82352941,,,,,,,,,,,,,,138,tator,,,,,,321.6361,322.8349,1,0,0.6635,,0,183,183,137,1,pseudoword,0,REAL,FALSA
,,,,,,,,,62e95cb1f31ba3691a3ce87c,001,2025-05-03_09h49.17.734,empathy_intonation_perc,2024.1.4,Win32,58.82352941,,,,,,,,,,,,,,128,pelí,,,,,,322.8359,327.1819,1,0,3.8095,,0,184,184,127,1,pseudoword,0,REAL,FALSA
,,,,,,,,,62e95cb1f31ba3691a3ce87c,001,2025-05-03_09h49.17.734,empathy_intonation_perc,2024.1.4,Win32,58.82352941,,,,,,,,,,,,,,154,harvé,,,,,,327.1821,328.3813,0,1,0.6732,,0,185,185,153,1,pseudoword,0,REAL,FALSA
,,,,,,,,,62e95cb1f31ba3691a3ce87c,001,2025-05-03_09h49.17.734,empathy_intonation_perc,2024.1.4,Win32,58.82352941,,,,,,,,,,,,,,157,seled,,,,,,328.3816,330.0639,0,1,1.1581,,0,186,186,156,1,pseudoword,0,REAL,FALSA
,,,,,,,,,62e95cb1f31ba3691a3ce87c,001,2025-05-03_09h49.17.734,empathy_intonation_perc,2024.1.4,Win32,58.82352941,,,,,,,,,,,,,,50,sierra,,,,,,330.0641,331.1468,1,0,0.5477,,0,187,187,49,1,non_cognate,1,REAL,FALSA
,,,,,,,,,62e95cb1f31ba3691a3ce87c,001,2025-05-03_09h49.17.734,empathy_intonation_perc,2024.1.4,Win32,58.82352941,,,,,,,,,,,,,,140,chorde,,,,,,331.1471,332.4129,0,1,0.7292,,0,188,188,139,1,pseudoword,0,REAL,FALSA
,,,,,,,,,62e95cb1f31ba3691a3ce87c,001,2025-05-03_09h49.17.734,empathy_intonation_perc,2024.1.4,Win32,58.82352941,,,,,,,,,,,,,,105,peniz,,,,,,332.4132,333.7295,0,1,0.7878,,0,189,189,104,1,pseudoword,0,REAL,FALSA
,,,,,,,,,62e95cb1f31ba3691a3ce87c,001,2025-05-03_09h49.17.734,empathy_intonation_perc,2024.1.4,Win32,58.82352941,,,,,,,,,,,,,,139,sasos,,,,,,333.7303,334.9127,0,1,0.6445,,0,190,190,138,1,pseudoword,0,REAL,FALSA
,,,,,,,,,62e95cb1f31ba3691a3ce87c,001,2025-05-03_09h49.17.734,empathy_intonation_perc,2024.1.4,Win32,58.82352941,,,,,,,,,,,,,,144,diroco,,,,,,334.9135,335.945,0,1,0.5027,,0,191,191,143,1,pseudoword,0,REAL,FALSA
