lextale_instructions.started,lextale_instructions.stopped,lextale_instructions_loop.thisRepN,lextale_instructions_loop.thisTrialN,lextale_instructions_loop.thisN,lextale_instructions_loop.thisIndex,lextale_instructions_loop.ran,instructions_text,continue_text,participant,session,date,expName,psychopyVersion,OS,frameRate,lextale_practice.started,lextale_practice.stopped,key_resp_lextale_practice.keys,key_resp_lextale_practice.corr,key_resp_lextale_practice.rt,key_resp_lextale_practice.duration,lextale_practice_feedback.started,lextale_practice_feedback.stopped,lextale_practice_trials.thisRepN,lextale_practice_trials.thisTrialN,lextale_practice_trials.thisN,lextale_practice_trials.thisIndex,lextale_practice_trials.ran,stim,word,correct_response,prac_button_real,prac_button_false,lextale_check.started,lextale_check.stopped,lextale_trial.started,lextale_trial.stopped,key_resp_lextale_trial.keys,key_resp_lextale_trial.corr,key_resp_lextale_trial.rt,key_resp_lextale_trial.duration,lextail_trials.thisRepN,lextail_trials.thisTrialN,lextail_trials.thisN,lextail_trials.thisIndex,lextail_trials.ran,type,correct_reponse,button_real,button_false
0.0067,110.4699,0,0,0,0,1,"Este es un test de vocabulario en español. 
  
  A continuación vas a ver 90 secuencias de letras que parecen 'españolas'.
  
  Solo algunas de ellas son palabras de verdad.",(presiona la barra espaciadora para continuar),63b87d2c9edd47ad702413a1,001,2025-05-01_12h30.45.276,empathy_intonation_perc,2024.1.4,Win32,60.24096386,,,,,,,,,,,,,,,,,,,,,,,,,,,,,,,,,,,
110.4704,124.5586,0,1,1,1,1,"Por favor, señala las palabras que tú conoces (aquellas que estás convencido que son palabras españolas, incluso aunque no seas capaz de dar el significado preciso).",(presiona la barra espaciadora para continuar),63b87d2c9edd47ad702413a1,001,2025-05-01_12h30.45.276,empathy_intonation_perc,2024.1.4,Win32,60.24096386,,,,,,,,,,,,,,,,,,,,,,,,,,,,,,,,,,,
124.5588,134.8908,0,2,2,2,1,Pero cuidado: los errores se penalizan. Por eso no tiene sentido tratar de incrementar tu puntuación marcando como reales palabras que nunca has visto.,(presiona la barra espaciadora para continuar),63b87d2c9edd47ad702413a1,001,2025-05-01_12h30.45.276,empathy_intonation_perc,2024.1.4,Win32,60.24096386,,,,,,,,,,,,,,,,,,,,,,,,,,,,,,,,,,,
134.8911,143.9066,0,3,3,3,1,"Presiona la tecla 1 si piensas que es una palabra real y la tecla 
  0 si piensas que es una palabra falsa. 
  
  Vamos a practicar un poco...",(presiona la barra espaciadora para continuar),63b87d2c9edd47ad702413a1,001,2025-05-01_12h30.45.276,empathy_intonation_perc,2024.1.4,Win32,60.24096386,,,,,,,,,,,,,,,,,,,,,,,,,,,,,,,,,,,
,,,,,,,,,63b87d2c9edd47ad702413a1,001,2025-05-01_12h30.45.276,empathy_intonation_perc,2024.1.4,Win32,60.24096386,143.9108,149.1895,1,0,4.7451,,149.1898,150.1893,0,0,0,0,1,0,depiste,0,REAL,FALSA,,,,,,,,,,,,,,,,,
,,,,,,,,,63b87d2c9edd47ad702413a1,001,2025-05-01_12h30.45.276,empathy_intonation_perc,2024.1.4,Win32,60.24096386,150.1898,154.1554,1,1,3.4305,,154.1555,155.1554,0,1,1,1,1,0,sí,1,REAL,FALSA,,,,,,,,,,,,,,,,,
,,,,,,,,,63b87d2c9edd47ad702413a1,001,2025-05-01_12h30.45.276,empathy_intonation_perc,2024.1.4,Win32,60.24096386,155.1557,158.9383,1,0,3.2472,,158.9384,159.9383,0,2,2,2,1,0,coné,0,REAL,FALSA,,,,,,,,,,,,,,,,,
,,,,,,,,,63b87d2c9edd47ad702413a1,001,2025-05-01_12h30.45.276,empathy_intonation_perc,2024.1.4,Win32,60.24096386,159.9387,164.1877,1,0,3.7191,,164.1877,165.1877,0,3,3,3,1,0,calpar,0,REAL,FALSA,,,,,,,,,,,,,,,,,
,,,,,,,,,63b87d2c9edd47ad702413a1,001,2025-05-01_12h30.45.276,empathy_intonation_perc,2024.1.4,Win32,60.24096386,165.188,168.7874,0,1,3.0667,,168.7875,169.7871,0,4,4,4,1,0,joten,0,REAL,FALSA,,,,,,,,,,,,,,,,,
,,,,,,,,,63b87d2c9edd47ad702413a1,001,2025-05-01_12h30.45.276,empathy_intonation_perc,2024.1.4,Win32,60.24096386,169.7876,174.7867,1,1,4.4639,,174.7868,175.7866,0,5,5,5,1,0,sacapuntas,1,REAL,FALSA,,,,,,,,,,,,,,,,,
,,,,,,,,,63b87d2c9edd47ad702413a1,001,2025-05-01_12h30.45.276,empathy_intonation_perc,2024.1.4,Win32,60.24096386,175.7872,179.5718,0,1,3.2603,,179.5719,180.5694,0,6,6,6,1,0,priba,0,REAL,FALSA,,,,,,,,,,,,,,,,,
,,,,,,,,,63b87d2c9edd47ad702413a1,001,2025-05-01_12h30.45.276,empathy_intonation_perc,2024.1.4,Win32,60.24096386,180.5698,184.8356,0,1,3.7318,,184.8357,185.8354,0,7,7,7,1,0,pelasula,0,REAL,FALSA,,,,,,,,,,,,,,,,,
,,,,,,,,,63b87d2c9edd47ad702413a1,001,2025-05-01_12h30.45.276,empathy_intonation_perc,2024.1.4,Win32,60.24096386,185.8358,188.4519,1,1,2.0832,,188.452,189.4518,0,8,8,8,1,0,bien,1,REAL,FALSA,,,,,,,,,,,,,,,,,
,,,,,,,,,63b87d2c9edd47ad702413a1,001,2025-05-01_12h30.45.276,empathy_intonation_perc,2024.1.4,Win32,60.24096386,189.4521,191.6349,1,1,1.6558,,191.635,192.6348,0,9,9,9,1,0,casa,1,REAL,FALSA,,,,,,,,,,,,,,,,,
,,,,,,,,,63b87d2c9edd47ad702413a1,001,2025-05-01_12h30.45.276,empathy_intonation_perc,2024.1.4,Win32,60.24096386,192.6351,196.6511,0,1,3.4814,,196.6511,197.6509,0,10,10,10,1,0,lejo,0,REAL,FALSA,,,,,,,,,,,,,,,,,
,,,,,,,,,63b87d2c9edd47ad702413a1,001,2025-05-01_12h30.45.276,empathy_intonation_perc,2024.1.4,Win32,60.24096386,197.6512,201.7172,0,1,3.5384,,201.7173,202.7171,0,11,11,11,1,0,pretantas,0,REAL,FALSA,,,,,,,,,,,,,,,,,
,,,,,,,,,63b87d2c9edd47ad702413a1,001,2025-05-01_12h30.45.276,empathy_intonation_perc,2024.1.4,Win32,60.24096386,,,,,,,,,,,,,,,,,,,202.7174,207.4336,,,,,,,,,,,,,,,
,,,,,,,,,63b87d2c9edd47ad702413a1,001,2025-05-01_12h30.45.276,empathy_intonation_perc,2024.1.4,Win32,60.24096386,,,,,,,,,,,,,,126,tobre,,,,,,207.447,211.2833,1,0,3.3203,,0,0,0,125,1,pseudoword,0,REAL,FALSA
,,,,,,,,,63b87d2c9edd47ad702413a1,001,2025-05-01_12h30.45.276,empathy_intonation_perc,2024.1.4,Win32,60.24096386,,,,,,,,,,,,,,108,jauda,,,,,,211.2839,216.4825,0,1,4.673,,0,1,1,107,1,pseudoword,0,REAL,FALSA
,,,,,,,,,63b87d2c9edd47ad702413a1,001,2025-05-01_12h30.45.276,empathy_intonation_perc,2024.1.4,Win32,60.24096386,,,,,,,,,,,,,,89,muñeca,,,,,,216.4831,220.2655,1,0,3.2575,,0,2,2,88,1,non_cognate,1,REAL,FALSA
,,,,,,,,,63b87d2c9edd47ad702413a1,001,2025-05-01_12h30.45.276,empathy_intonation_perc,2024.1.4,Win32,60.24096386,,,,,,,,,,,,,,101,losco,,,,,,220.266,224.5315,0,1,3.7292,,0,3,3,100,1,pseudoword,0,REAL,FALSA
,,,,,,,,,63b87d2c9edd47ad702413a1,001,2025-05-01_12h30.45.276,empathy_intonation_perc,2024.1.4,Win32,60.24096386,,,,,,,,,,,,,,124,lobe,,,,,,224.5319,228.4812,0,1,3.42,,0,4,4,123,1,pseudoword,0,REAL,FALSA
,,,,,,,,,63b87d2c9edd47ad702413a1,001,2025-05-01_12h30.45.276,empathy_intonation_perc,2024.1.4,Win32,60.24096386,,,,,,,,,,,,,,164,tecia,,,,,,228.4815,232.864,0,1,3.8473,,0,5,5,163,1,pseudoword,0,REAL,FALSA
,,,,,,,,,63b87d2c9edd47ad702413a1,001,2025-05-01_12h30.45.276,empathy_intonation_perc,2024.1.4,Win32,60.24096386,,,,,,,,,,,,,,45,total,,,,,,232.8645,236.947,1,0,3.5526,,0,6,6,44,1,two_way_cognate,1,REAL,FALSA
,,,,,,,,,63b87d2c9edd47ad702413a1,001,2025-05-01_12h30.45.276,empathy_intonation_perc,2024.1.4,Win32,60.24096386,,,,,,,,,,,,,,170,diabo,,,,,,236.9474,241.6799,1,0,4.2011,,0,7,7,169,1,pseudoword,0,REAL,FALSA
,,,,,,,,,63b87d2c9edd47ad702413a1,001,2025-05-01_12h30.45.276,empathy_intonation_perc,2024.1.4,Win32,60.24096386,,,,,,,,,,,,,,29,clamor,,,,,,241.6803,245.5627,1,0,3.3545,,0,8,8,28,1,two_way_cognate,1,REAL,FALSA
,,,,,,,,,63b87d2c9edd47ad702413a1,001,2025-05-01_12h30.45.276,empathy_intonation_perc,2024.1.4,Win32,60.24096386,,,,,,,,,,,,,,150,cricó,,,,,,245.5634,249.1957,0,1,3.0965,,0,9,9,149,1,pseudoword,0,REAL,FALSA
,,,,,,,,,63b87d2c9edd47ad702413a1,001,2025-05-01_12h30.45.276,empathy_intonation_perc,2024.1.4,Win32,60.24096386,,,,,,,,,,,,,,9,portal,,,,,,249.196,253.3119,1,0,3.5827,,0,10,10,8,1,three_way_cognate,1,REAL,FALSA
,,,,,,,,,63b87d2c9edd47ad702413a1,001,2025-05-01_12h30.45.276,empathy_intonation_perc,2024.1.4,Win32,60.24096386,,,,,,,,,,,,,,172,dogue,,,,,,253.3125,258.1281,1,0,4.2861,,0,11,11,171,1,pseudoword,0,REAL,FALSA
,,,,,,,,,63b87d2c9edd47ad702413a1,001,2025-05-01_12h30.45.276,empathy_intonation_perc,2024.1.4,Win32,60.24096386,,,,,,,,,,,,,,175,tradía,,,,,,258.1284,262.3953,1,0,3.7357,,0,12,12,174,1,pseudoword,0,REAL,FALSA
,,,,,,,,,63b87d2c9edd47ad702413a1,001,2025-05-01_12h30.45.276,empathy_intonation_perc,2024.1.4,Win32,60.24096386,,,,,,,,,,,,,,115,lidena,,,,,,262.3959,265.6143,0,1,2.6925,,0,13,13,114,1,pseudoword,0,REAL,FALSA
,,,,,,,,,63b87d2c9edd47ad702413a1,001,2025-05-01_12h30.45.276,empathy_intonation_perc,2024.1.4,Win32,60.24096386,,,,,,,,,,,,,,43,honor,,,,,,265.6157,269.0783,1,0,2.9352,,0,14,14,42,1,two_way_cognate,1,REAL,FALSA
,,,,,,,,,63b87d2c9edd47ad702413a1,001,2025-05-01_12h30.45.276,empathy_intonation_perc,2024.1.4,Win32,60.24096386,,,,,,,,,,,,,,179,suelet,,,,,,269.0792,273.3109,0,1,3.6985,,0,15,15,178,1,pseudoword,0,REAL,FALSA
,,,,,,,,,63b87d2c9edd47ad702413a1,001,2025-05-01_12h30.45.276,empathy_intonation_perc,2024.1.4,Win32,60.24096386,,,,,,,,,,,,,,136,hueas,,,,,,273.3114,277.21,1,0,3.3692,,0,16,16,135,1,pseudoword,0,REAL,FALSA
,,,,,,,,,63b87d2c9edd47ad702413a1,001,2025-05-01_12h30.45.276,empathy_intonation_perc,2024.1.4,Win32,60.24096386,,,,,,,,,,,,,,16,chat,,,,,,277.2107,280.3927,1,0,2.6529,,0,17,17,15,1,three_way_cognate,1,REAL,FALSA
,,,,,,,,,63b87d2c9edd47ad702413a1,001,2025-05-01_12h30.45.276,empathy_intonation_perc,2024.1.4,Win32,60.24096386,,,,,,,,,,,,,,148,gino,,,,,,280.3929,284.447,0,1,3.5465,,0,18,18,147,1,pseudoword,0,REAL,FALSA
,,,,,,,,,63b87d2c9edd47ad702413a1,001,2025-05-01_12h30.45.276,empathy_intonation_perc,2024.1.4,Win32,60.24096386,,,,,,,,,,,,,,37,torso,,,,,,284.4482,287.6922,1,0,2.7203,,0,19,19,36,1,two_way_cognate,1,REAL,FALSA
,,,,,,,,,63b87d2c9edd47ad702413a1,001,2025-05-01_12h30.45.276,empathy_intonation_perc,2024.1.4,Win32,60.24096386,,,,,,,,,,,,,,4,flora,,,,,,287.6953,290.2419,1,0,2.0201,,0,20,20,3,1,three_way_cognate,1,REAL,FALSA
,,,,,,,,,63b87d2c9edd47ad702413a1,001,2025-05-01_12h30.45.276,empathy_intonation_perc,2024.1.4,Win32,60.24096386,,,,,,,,,,,,,,67,llamar,,,,,,290.243,294.7917,1,0,4.014,,0,21,21,66,1,non_cognate,1,REAL,FALSA
,,,,,,,,,63b87d2c9edd47ad702413a1,001,2025-05-01_12h30.45.276,empathy_intonation_perc,2024.1.4,Win32,60.24096386,,,,,,,,,,,,,,54,tapón,,,,,,294.7925,298.1074,1,0,2.7797,,0,22,22,53,1,non_cognate,1,REAL,FALSA
,,,,,,,,,63b87d2c9edd47ad702413a1,001,2025-05-01_12h30.45.276,empathy_intonation_perc,2024.1.4,Win32,60.24096386,,,,,,,,,,,,,,66,aleta,,,,,,298.1078,304.2567,1,0,5.6178,,0,23,23,65,1,non_cognate,1,REAL,FALSA
,,,,,,,,,63b87d2c9edd47ad702413a1,001,2025-05-01_12h30.45.276,empathy_intonation_perc,2024.1.4,Win32,60.24096386,,,,,,,,,,,,,,190,asumie,,,,,,304.2571,308.5734,1,0,3.7888,,0,24,24,189,1,pseudoword,0,REAL,FALSA
,,,,,,,,,63b87d2c9edd47ad702413a1,001,2025-05-01_12h30.45.276,empathy_intonation_perc,2024.1.4,Win32,60.24096386,,,,,,,,,,,,,,97,nocita,,,,,,308.5739,311.7781,0,1,2.6806,,0,25,25,96,1,pseudoword,0,REAL,FALSA
,,,,,,,,,63b87d2c9edd47ad702413a1,001,2025-05-01_12h30.45.276,empathy_intonation_perc,2024.1.4,Win32,60.24096386,,,,,,,,,,,,,,180,pupica,,,,,,311.7787,315.4563,1,0,3.1491,,0,26,26,179,1,pseudoword,0,REAL,FALSA
,,,,,,,,,63b87d2c9edd47ad702413a1,001,2025-05-01_12h30.45.276,empathy_intonation_perc,2024.1.4,Win32,60.24096386,,,,,,,,,,,,,,38,halo,,,,,,315.4575,318.9895,0,1,2.9954,,0,27,27,37,1,two_way_cognate,1,REAL,FALSA
,,,,,,,,,63b87d2c9edd47ad702413a1,001,2025-05-01_12h30.45.276,empathy_intonation_perc,2024.1.4,Win32,60.24096386,,,,,,,,,,,,,,33,collar,,,,,,318.9903,322.6388,1,0,3.1135,,0,28,28,32,1,two_way_cognate,1,REAL,FALSA
,,,,,,,,,63b87d2c9edd47ad702413a1,001,2025-05-01_12h30.45.276,empathy_intonation_perc,2024.1.4,Win32,60.24096386,,,,,,,,,,,,,,104,estulo,,,,,,322.6393,328.3214,0,1,5.1517,,0,29,29,103,1,pseudoword,0,REAL,FALSA
,,,,,,,,,63b87d2c9edd47ad702413a1,001,2025-05-01_12h30.45.276,empathy_intonation_perc,2024.1.4,Win32,60.24096386,,,,,,,,,,,,,,83,hálito,,,,,,328.3221,331.8553,1,0,2.9999,,0,30,30,82,1,non_cognate,1,REAL,FALSA
,,,,,,,,,63b87d2c9edd47ad702413a1,001,2025-05-01_12h30.45.276,empathy_intonation_perc,2024.1.4,Win32,60.24096386,,,,,,,,,,,,,,105,peniz,,,,,,331.858,336.6874,0,1,4.2963,,0,31,31,104,1,pseudoword,0,REAL,FALSA
,,,,,,,,,63b87d2c9edd47ad702413a1,001,2025-05-01_12h30.45.276,empathy_intonation_perc,2024.1.4,Win32,60.24096386,,,,,,,,,,,,,,75,patada,,,,,,336.6883,339.3539,1,0,2.1302,,0,32,32,74,1,non_cognate,1,REAL,FALSA
,,,,,,,,,63b87d2c9edd47ad702413a1,001,2025-05-01_12h30.45.276,empathy_intonation_perc,2024.1.4,Win32,60.24096386,,,,,,,,,,,,,,3,disco,,,,,,339.3547,342.7366,1,0,2.8533,,0,33,33,2,1,three_way_cognate,1,REAL,FALSA
,,,,,,,,,63b87d2c9edd47ad702413a1,001,2025-05-01_12h30.45.276,empathy_intonation_perc,2024.1.4,Win32,60.24096386,,,,,,,,,,,,,,134,molor,,,,,,342.7376,345.8198,0,1,2.5461,,0,34,34,133,1,pseudoword,0,REAL,FALSA
,,,,,,,,,63b87d2c9edd47ad702413a1,001,2025-05-01_12h30.45.276,empathy_intonation_perc,2024.1.4,Win32,60.24096386,,,,,,,,,,,,,,132,nocó,,,,,,345.8208,354.3523,0,1,7.9955,,0,35,35,131,1,pseudoword,0,REAL,FALSA
,,,,,,,,,63b87d2c9edd47ad702413a1,001,2025-05-01_12h30.45.276,empathy_intonation_perc,2024.1.4,Win32,60.24096386,,,,,,,,,,,,,,110,densó,,,,,,354.3531,358.1513,1,0,3.2675,,0,36,36,109,1,pseudoword,0,REAL,FALSA
,,,,,,,,,63b87d2c9edd47ad702413a1,001,2025-05-01_12h30.45.276,empathy_intonation_perc,2024.1.4,Win32,60.24096386,,,,,,,,,,,,,,181,gravés,,,,,,358.1516,362.8176,1,0,4.1395,,0,37,37,180,1,pseudoword,0,REAL,FALSA
,,,,,,,,,63b87d2c9edd47ad702413a1,001,2025-05-01_12h30.45.276,empathy_intonation_perc,2024.1.4,Win32,60.24096386,,,,,,,,,,,,,,93,tapa,,,,,,362.8179,364.984,1,0,1.6367,,0,38,38,92,1,non_cognate,1,REAL,FALSA
,,,,,,,,,63b87d2c9edd47ad702413a1,001,2025-05-01_12h30.45.276,empathy_intonation_perc,2024.1.4,Win32,60.24096386,,,,,,,,,,,,,,39,casual,,,,,,364.9843,368.5341,1,0,3.0197,,0,39,39,38,1,two_way_cognate,1,REAL,FALSA
,,,,,,,,,63b87d2c9edd47ad702413a1,001,2025-05-01_12h30.45.276,empathy_intonation_perc,2024.1.4,Win32,60.24096386,,,,,,,,,,,,,,61,aduana,,,,,,368.5347,372.9834,0,1,3.9161,,0,40,40,60,1,non_cognate,1,REAL,FALSA
,,,,,,,,,63b87d2c9edd47ad702413a1,001,2025-05-01_12h30.45.276,empathy_intonation_perc,2024.1.4,Win32,60.24096386,,,,,,,,,,,,,,32,animal,,,,,,372.984,376.1347,1,0,2.6322,,0,41,41,31,1,two_way_cognate,1,REAL,FALSA
,,,,,,,,,63b87d2c9edd47ad702413a1,001,2025-05-01_12h30.45.276,empathy_intonation_perc,2024.1.4,Win32,60.24096386,,,,,,,,,,,,,,160,fomeó,,,,,,376.1359,381.1993,0,1,4.5289,,0,42,42,159,1,pseudoword,0,REAL,FALSA
,,,,,,,,,63b87d2c9edd47ad702413a1,001,2025-05-01_12h30.45.276,empathy_intonation_perc,2024.1.4,Win32,60.24096386,,,,,,,,,,,,,,26,enigma,,,,,,381.2001,384.3159,0,1,2.5833,,0,43,43,25,1,two_way_cognate,1,REAL,FALSA
,,,,,,,,,63b87d2c9edd47ad702413a1,001,2025-05-01_12h30.45.276,empathy_intonation_perc,2024.1.4,Win32,60.24096386,,,,,,,,,,,,,,30,fiscal,,,,,,384.3167,387.6664,1,0,2.8194,,0,44,44,29,1,two_way_cognate,1,REAL,FALSA
,,,,,,,,,63b87d2c9edd47ad702413a1,001,2025-05-01_12h30.45.276,empathy_intonation_perc,2024.1.4,Win32,60.24096386,,,,,,,,,,,,,,107,plago,,,,,,387.6676,392.1152,1,0,3.9167,,0,45,45,106,1,pseudoword,0,REAL,FALSA
,,,,,,,,,63b87d2c9edd47ad702413a1,001,2025-05-01_12h30.45.276,empathy_intonation_perc,2024.1.4,Win32,60.24096386,,,,,,,,,,,,,,157,seled,,,,,,392.1163,394.0817,0,1,1.4283,,0,46,46,156,1,pseudoword,0,REAL,FALSA
,,,,,,,,,63b87d2c9edd47ad702413a1,001,2025-05-01_12h30.45.276,empathy_intonation_perc,2024.1.4,Win32,60.24096386,,,,,,,,,,,,,,92,flecha,,,,,,394.0829,397.4981,1,0,2.8815,,0,47,47,91,1,non_cognate,1,REAL,FALSA
,,,,,,,,,63b87d2c9edd47ad702413a1,001,2025-05-01_12h30.45.276,empathy_intonation_perc,2024.1.4,Win32,60.24096386,,,,,,,,,,,,,,118,bará,,,,,,397.4989,401.8974,0,1,3.8618,,0,48,48,117,1,pseudoword,0,REAL,FALSA
,,,,,,,,,63b87d2c9edd47ad702413a1,001,2025-05-01_12h30.45.276,empathy_intonation_perc,2024.1.4,Win32,60.24096386,,,,,,,,,,,,,,186,rizate,,,,,,401.8981,406.597,0,1,4.1649,,0,49,49,185,1,pseudoword,0,REAL,FALSA
,,,,,,,,,63b87d2c9edd47ad702413a1,001,2025-05-01_12h30.45.276,empathy_intonation_perc,2024.1.4,Win32,60.24096386,,,,,,,,,,,,,,62,pegar,,,,,,406.5978,410.2294,1,0,3.1026,,0,50,50,61,1,non_cognate,1,REAL,FALSA
,,,,,,,,,63b87d2c9edd47ad702413a1,001,2025-05-01_12h30.45.276,empathy_intonation_perc,2024.1.4,Win32,60.24096386,,,,,,,,,,,,,,46,mortal,,,,,,410.2298,413.1464,1,0,2.3883,,0,51,51,45,1,two_way_cognate,1,REAL,FALSA
,,,,,,,,,63b87d2c9edd47ad702413a1,001,2025-05-01_12h30.45.276,empathy_intonation_perc,2024.1.4,Win32,60.24096386,,,,,,,,,,,,,,56,pico,,,,,,413.1472,415.4294,1,0,1.7456,,0,52,52,55,1,non_cognate,1,REAL,FALSA
,,,,,,,,,63b87d2c9edd47ad702413a1,001,2025-05-01_12h30.45.276,empathy_intonation_perc,2024.1.4,Win32,60.24096386,,,,,,,,,,,,,,31,civil,,,,,,415.4303,418.8349,1,0,2.8746,,0,53,53,30,1,two_way_cognate,1,REAL,FALSA
,,,,,,,,,63b87d2c9edd47ad702413a1,001,2025-05-01_12h30.45.276,empathy_intonation_perc,2024.1.4,Win32,60.24096386,,,,,,,,,,,,,,65,guerra,,,,,,418.8358,422.3122,1,0,2.9475,,0,54,54,64,1,non_cognate,1,REAL,FALSA
,,,,,,,,,63b87d2c9edd47ad702413a1,001,2025-05-01_12h30.45.276,empathy_intonation_perc,2024.1.4,Win32,60.24096386,,,,,,,,,,,,,,90,venado,,,,,,422.3133,424.0453,0,1,1.202,,0,55,55,89,1,non_cognate,1,REAL,FALSA
,,,,,,,,,63b87d2c9edd47ad702413a1,001,2025-05-01_12h30.45.276,empathy_intonation_perc,2024.1.4,Win32,60.24096386,,,,,,,,,,,,,,109,laras,,,,,,424.0462,427.2783,0,1,2.6959,,0,56,56,108,1,pseudoword,0,REAL,FALSA
,,,,,,,,,63b87d2c9edd47ad702413a1,001,2025-05-01_12h30.45.276,empathy_intonation_perc,2024.1.4,Win32,60.24096386,,,,,,,,,,,,,,70,ánimo,,,,,,427.2791,433.7647,0,1,5.9592,,0,57,57,69,1,non_cognate,1,REAL,FALSA
,,,,,,,,,63b87d2c9edd47ad702413a1,001,2025-05-01_12h30.45.276,empathy_intonation_perc,2024.1.4,Win32,60.24096386,,,,,,,,,,,,,,42,rumor,,,,,,433.7658,441.3429,1,0,7.0421,,0,58,58,41,1,two_way_cognate,1,REAL,FALSA
,,,,,,,,,63b87d2c9edd47ad702413a1,001,2025-05-01_12h30.45.276,empathy_intonation_perc,2024.1.4,Win32,60.24096386,,,,,,,,,,,,,,85,enorme,,,,,,441.3432,446.5424,1,0,4.6795,,0,59,59,84,1,non_cognate,1,REAL,FALSA
,,,,,,,,,63b87d2c9edd47ad702413a1,001,2025-05-01_12h30.45.276,empathy_intonation_perc,2024.1.4,Win32,60.24096386,,,,,,,,,,,,,,44,editor,,,,,,446.5427,448.8421,1,0,1.772,,0,60,60,43,1,two_way_cognate,1,REAL,FALSA
,,,,,,,,,63b87d2c9edd47ad702413a1,001,2025-05-01_12h30.45.276,empathy_intonation_perc,2024.1.4,Win32,60.24096386,,,,,,,,,,,,,,121,barbs,,,,,,448.8426,452.7088,0,1,3.3428,,0,61,61,120,1,pseudoword,0,REAL,FALSA
,,,,,,,,,63b87d2c9edd47ad702413a1,001,2025-05-01_12h30.45.276,empathy_intonation_perc,2024.1.4,Win32,60.24096386,,,,,,,,,,,,,,125,ceme,,,,,,452.7095,456.4752,1,0,3.2332,,0,62,62,124,1,pseudoword,0,REAL,FALSA
,,,,,,,,,63b87d2c9edd47ad702413a1,001,2025-05-01_12h30.45.276,empathy_intonation_perc,2024.1.4,Win32,60.24096386,,,,,,,,,,,,,,119,esís,,,,,,456.4761,460.7411,0,1,3.7249,,0,63,63,118,1,pseudoword,0,REAL,FALSA
,,,,,,,,,63b87d2c9edd47ad702413a1,001,2025-05-01_12h30.45.276,empathy_intonation_perc,2024.1.4,Win32,60.24096386,,,,,,,,,,,,,,84,aviso,,,,,,460.7418,465.3408,1,0,4.0624,,0,64,64,83,1,non_cognate,1,REAL,FALSA
,,,,,,,,,63b87d2c9edd47ad702413a1,001,2025-05-01_12h30.45.276,empathy_intonation_perc,2024.1.4,Win32,60.24096386,,,,,,,,,,,,,,47,color,,,,,,465.3416,469.1409,1,0,3.2621,,0,65,65,46,1,two_way_cognate,1,REAL,FALSA
,,,,,,,,,63b87d2c9edd47ad702413a1,001,2025-05-01_12h30.45.276,empathy_intonation_perc,2024.1.4,Win32,60.24096386,,,,,,,,,,,,,,51,listo,,,,,,469.142,474.1071,1,0,4.4379,,0,66,66,50,1,non_cognate,1,REAL,FALSA
,,,,,,,,,63b87d2c9edd47ad702413a1,001,2025-05-01_12h30.45.276,empathy_intonation_perc,2024.1.4,Win32,60.24096386,,,,,,,,,,,,,,14,aura,,,,,,474.1086,478.3272,0,1,3.6902,,0,67,67,13,1,three_way_cognate,1,REAL,FALSA
,,,,,,,,,63b87d2c9edd47ad702413a1,001,2025-05-01_12h30.45.276,empathy_intonation_perc,2024.1.4,Win32,60.24096386,,,,,,,,,,,,,,36,viable,,,,,,478.3277,482.1892,1,0,3.3337,,0,68,68,35,1,two_way_cognate,1,REAL,FALSA
,,,,,,,,,63b87d2c9edd47ad702413a1,001,2025-05-01_12h30.45.276,empathy_intonation_perc,2024.1.4,Win32,60.24096386,,,,,,,,,,,,,,114,dibrea,,,,,,482.1899,486.1886,0,1,3.4622,,0,69,69,113,1,pseudoword,0,REAL,FALSA
,,,,,,,,,63b87d2c9edd47ad702413a1,001,2025-05-01_12h30.45.276,empathy_intonation_perc,2024.1.4,Win32,60.24096386,,,,,,,,,,,,,,5,extra,,,,,,486.1892,488.4051,1,0,1.6867,,0,70,70,4,1,three_way_cognate,1,REAL,FALSA
,,,,,,,,,63b87d2c9edd47ad702413a1,001,2025-05-01_12h30.45.276,empathy_intonation_perc,2024.1.4,Win32,60.24096386,,,,,,,,,,,,,,22,mango,,,,,,488.406,492.4216,1,0,3.4853,,0,71,71,21,1,three_way_cognate,1,REAL,FALSA
,,,,,,,,,63b87d2c9edd47ad702413a1,001,2025-05-01_12h30.45.276,empathy_intonation_perc,2024.1.4,Win32,60.24096386,,,,,,,,,,,,,,173,mibro,,,,,,492.4238,495.8217,0,1,2.8701,,0,72,72,172,1,pseudoword,0,REAL,FALSA
,,,,,,,,,63b87d2c9edd47ad702413a1,001,2025-05-01_12h30.45.276,empathy_intonation_perc,2024.1.4,Win32,60.24096386,,,,,,,,,,,,,,122,boñaz,,,,,,495.8234,500.9871,0,1,4.6392,,0,73,73,121,1,pseudoword,0,REAL,FALSA
,,,,,,,,,63b87d2c9edd47ad702413a1,001,2025-05-01_12h30.45.276,empathy_intonation_perc,2024.1.4,Win32,60.24096386,,,,,,,,,,,,,,48,pelvis,,,,,,500.988,504.105,1,0,2.5841,,0,74,74,47,1,two_way_cognate,1,REAL,FALSA
,,,,,,,,,63b87d2c9edd47ad702413a1,001,2025-05-01_12h30.45.276,empathy_intonation_perc,2024.1.4,Win32,60.24096386,,,,,,,,,,,,,,59,feo,,,,,,504.1066,507.8535,1,0,3.2247,,0,75,75,58,1,non_cognate,1,REAL,FALSA
,,,,,,,,,63b87d2c9edd47ad702413a1,001,2025-05-01_12h30.45.276,empathy_intonation_perc,2024.1.4,Win32,60.24096386,,,,,,,,,,,,,,7,albino,,,,,,507.8549,510.4026,1,0,2.0131,,0,76,76,6,1,three_way_cognate,1,REAL,FALSA
,,,,,,,,,63b87d2c9edd47ad702413a1,001,2025-05-01_12h30.45.276,empathy_intonation_perc,2024.1.4,Win32,60.24096386,,,,,,,,,,,,,,25,vigor,,,,,,510.4028,514.6354,1,0,3.7013,,0,77,77,24,1,two_way_cognate,1,REAL,FALSA
,,,,,,,,,63b87d2c9edd47ad702413a1,001,2025-05-01_12h30.45.276,empathy_intonation_perc,2024.1.4,Win32,60.24096386,,,,,,,,,,,,,,72,rostro,,,,,,514.6357,519.6357,1,0,4.4661,,0,78,78,71,1,non_cognate,1,REAL,FALSA
,,,,,,,,,63b87d2c9edd47ad702413a1,001,2025-05-01_12h30.45.276,empathy_intonation_perc,2024.1.4,Win32,60.24096386,,,,,,,,,,,,,,192,próces,,,,,,519.6366,522.7021,0,1,2.5334,,0,79,79,191,1,pseudoword,0,REAL,FALSA
,,,,,,,,,63b87d2c9edd47ad702413a1,001,2025-05-01_12h30.45.276,empathy_intonation_perc,2024.1.4,Win32,60.24096386,,,,,,,,,,,,,,191,frasis,,,,,,522.7033,526.785,1,0,3.5475,,0,80,80,190,1,pseudoword,0,REAL,FALSA
,,,,,,,,,63b87d2c9edd47ad702413a1,001,2025-05-01_12h30.45.276,empathy_intonation_perc,2024.1.4,Win32,60.24096386,,,,,,,,,,,,,,141,virios,,,,,,526.7857,530.1679,0,1,2.8464,,0,81,81,140,1,pseudoword,0,REAL,FALSA
,,,,,,,,,63b87d2c9edd47ad702413a1,001,2025-05-01_12h30.45.276,empathy_intonation_perc,2024.1.4,Win32,60.24096386,,,,,,,,,,,,,,178,inichó,,,,,,530.1688,534.6843,0,1,3.9781,,0,82,82,177,1,pseudoword,0,REAL,FALSA
,,,,,,,,,63b87d2c9edd47ad702413a1,001,2025-05-01_12h30.45.276,empathy_intonation_perc,2024.1.4,Win32,60.24096386,,,,,,,,,,,,,,165,chote,,,,,,534.6852,539.4331,0,1,4.2056,,0,83,83,164,1,pseudoword,0,REAL,FALSA
,,,,,,,,,63b87d2c9edd47ad702413a1,001,2025-05-01_12h30.45.276,empathy_intonation_perc,2024.1.4,Win32,60.24096386,,,,,,,,,,,,,,41,pasta,,,,,,539.4338,541.4497,1,0,1.4873,,0,84,84,40,1,two_way_cognate,1,REAL,FALSA
,,,,,,,,,63b87d2c9edd47ad702413a1,001,2025-05-01_12h30.45.276,empathy_intonation_perc,2024.1.4,Win32,60.24096386,,,,,,,,,,,,,,73,llevar,,,,,,541.4509,545.0215,1,0,3.0435,,0,85,85,72,1,non_cognate,1,REAL,FALSA
,,,,,,,,,63b87d2c9edd47ad702413a1,001,2025-05-01_12h30.45.276,empathy_intonation_perc,2024.1.4,Win32,60.24096386,,,,,,,,,,,,,,162,cengo,,,,,,545.0223,553.6488,0,1,8.097,,0,86,86,161,1,pseudoword,0,REAL,FALSA
,,,,,,,,,63b87d2c9edd47ad702413a1,001,2025-05-01_12h30.45.276,empathy_intonation_perc,2024.1.4,Win32,60.24096386,,,,,,,,,,,,,,71,torta,,,,,,553.6497,555.6986,1,0,1.5132,,0,87,87,70,1,non_cognate,1,REAL,FALSA
,,,,,,,,,63b87d2c9edd47ad702413a1,001,2025-05-01_12h30.45.276,empathy_intonation_perc,2024.1.4,Win32,60.24096386,,,,,,,,,,,,,,154,harvé,,,,,,555.6994,559.298,0,1,3.0633,,0,88,88,153,1,pseudoword,0,REAL,FALSA
,,,,,,,,,63b87d2c9edd47ad702413a1,001,2025-05-01_12h30.45.276,empathy_intonation_perc,2024.1.4,Win32,60.24096386,,,,,,,,,,,,,,12,dogma,,,,,,559.2988,562.0144,1,0,2.1791,,0,89,89,11,1,three_way_cognate,1,REAL,FALSA
,,,,,,,,,63b87d2c9edd47ad702413a1,001,2025-05-01_12h30.45.276,empathy_intonation_perc,2024.1.4,Win32,60.24096386,,,,,,,,,,,,,,78,rendir,,,,,,562.0151,566.1658,1,0,3.6224,,0,90,90,77,1,non_cognate,1,REAL,FALSA
,,,,,,,,,63b87d2c9edd47ad702413a1,001,2025-05-01_12h30.45.276,empathy_intonation_perc,2024.1.4,Win32,60.24096386,,,,,,,,,,,,,,155,kugis,,,,,,566.1682,569.9972,0,1,3.3,,0,91,91,154,1,pseudoword,0,REAL,FALSA
,,,,,,,,,63b87d2c9edd47ad702413a1,001,2025-05-01_12h30.45.276,empathy_intonation_perc,2024.1.4,Win32,60.24096386,,,,,,,,,,,,,,27,piano,,,,,,569.9985,572.1637,1,0,1.6372,,0,92,92,26,1,two_way_cognate,1,REAL,FALSA
,,,,,,,,,63b87d2c9edd47ad702413a1,001,2025-05-01_12h30.45.276,empathy_intonation_perc,2024.1.4,Win32,60.24096386,,,,,,,,,,,,,,68,puñal,,,,,,572.1644,576.2462,1,0,3.5503,,0,93,93,67,1,non_cognate,1,REAL,FALSA
,,,,,,,,,63b87d2c9edd47ad702413a1,001,2025-05-01_12h30.45.276,empathy_intonation_perc,2024.1.4,Win32,60.24096386,,,,,,,,,,,,,,60,siglo,,,,,,576.2468,580.3954,1,0,3.6111,,0,94,94,59,1,non_cognate,1,REAL,FALSA
,,,,,,,,,63b87d2c9edd47ad702413a1,001,2025-05-01_12h30.45.276,empathy_intonation_perc,2024.1.4,Win32,60.24096386,,,,,,,,,,,,,,166,anfia,,,,,,580.3956,585.8953,0,1,4.9682,,0,95,95,165,1,pseudoword,0,REAL,FALSA
,,,,,,,,,63b87d2c9edd47ad702413a1,001,2025-05-01_12h30.45.276,empathy_intonation_perc,2024.1.4,Win32,60.24096386,,,,,,,,,,,,,,138,tator,,,,,,585.8961,590.1281,0,1,3.6945,,0,96,96,137,1,pseudoword,0,REAL,FALSA
,,,,,,,,,63b87d2c9edd47ad702413a1,001,2025-05-01_12h30.45.276,empathy_intonation_perc,2024.1.4,Win32,60.24096386,,,,,,,,,,,,,,82,brillo,,,,,,590.1287,593.8946,1,0,3.2326,,0,97,97,81,1,non_cognate,1,REAL,FALSA
,,,,,,,,,63b87d2c9edd47ad702413a1,001,2025-05-01_12h30.45.276,empathy_intonation_perc,2024.1.4,Win32,60.24096386,,,,,,,,,,,,,,145,rúo,,,,,,593.8953,597.3937,0,1,2.9615,,0,98,98,144,1,pseudoword,0,REAL,FALSA
,,,,,,,,,63b87d2c9edd47ad702413a1,001,2025-05-01_12h30.45.276,empathy_intonation_perc,2024.1.4,Win32,60.24096386,,,,,,,,,,,,,,57,regalo,,,,,,597.3939,599.6768,1,0,1.7478,,0,99,99,56,1,non_cognate,1,REAL,FALSA
,,,,,,,,,63b87d2c9edd47ad702413a1,001,2025-05-01_12h30.45.276,empathy_intonation_perc,2024.1.4,Win32,60.24096386,,,,,,,,,,,,,,17,clan,,,,,,599.6772,602.2265,0,1,2.0156,,0,100,100,16,1,three_way_cognate,1,REAL,FALSA
,,,,,,,,,63b87d2c9edd47ad702413a1,001,2025-05-01_12h30.45.276,empathy_intonation_perc,2024.1.4,Win32,60.24096386,,,,,,,,,,,,,,123,arane,,,,,,602.2269,607.8437,0,1,5.0865,,0,101,101,122,1,pseudoword,0,REAL,FALSA
,,,,,,,,,63b87d2c9edd47ad702413a1,001,2025-05-01_12h30.45.276,empathy_intonation_perc,2024.1.4,Win32,60.24096386,,,,,,,,,,,,,,146,gió,,,,,,607.8444,610.466,0,1,2.0913,,0,102,102,145,1,pseudoword,0,REAL,FALSA
,,,,,,,,,63b87d2c9edd47ad702413a1,001,2025-05-01_12h30.45.276,empathy_intonation_perc,2024.1.4,Win32,60.24096386,,,,,,,,,,,,,,21,hotel,,,,,,610.4669,612.4597,1,0,1.4657,,0,103,103,20,1,three_way_cognate,1,REAL,FALSA
,,,,,,,,,63b87d2c9edd47ad702413a1,001,2025-05-01_12h30.45.276,empathy_intonation_perc,2024.1.4,Win32,60.24096386,,,,,,,,,,,,,,117,morrá,,,,,,612.4604,619.5103,0,1,6.5234,,0,104,104,116,1,pseudoword,0,REAL,FALSA
,,,,,,,,,63b87d2c9edd47ad702413a1,001,2025-05-01_12h30.45.276,empathy_intonation_perc,2024.1.4,Win32,60.24096386,,,,,,,,,,,,,,151,prías,,,,,,619.5112,626.5744,0,1,6.5256,,0,105,105,150,1,pseudoword,0,REAL,FALSA
,,,,,,,,,63b87d2c9edd47ad702413a1,001,2025-05-01_12h30.45.276,empathy_intonation_perc,2024.1.4,Win32,60.24096386,,,,,,,,,,,,,,91,equipo,,,,,,626.5751,630.293,1,0,3.1907,,0,106,106,90,1,non_cognate,1,REAL,FALSA
,,,,,,,,,63b87d2c9edd47ad702413a1,001,2025-05-01_12h30.45.276,empathy_intonation_perc,2024.1.4,Win32,60.24096386,,,,,,,,,,,,,,52,blando,,,,,,630.2939,635.0235,1,0,4.2002,,0,107,107,51,1,non_cognate,1,REAL,FALSA
,,,,,,,,,63b87d2c9edd47ad702413a1,001,2025-05-01_12h30.45.276,empathy_intonation_perc,2024.1.4,Win32,60.24096386,,,,,,,,,,,,,,34,actor,,,,,,635.0241,638.5732,1,0,3.025,,0,108,108,33,1,two_way_cognate,1,REAL,FALSA
,,,,,,,,,63b87d2c9edd47ad702413a1,001,2025-05-01_12h30.45.276,empathy_intonation_perc,2024.1.4,Win32,60.24096386,,,,,,,,,,,,,,2,tumor,,,,,,638.5739,643.9394,1,0,4.8377,,0,109,109,1,1,three_way_cognate,1,REAL,FALSA
,,,,,,,,,63b87d2c9edd47ad702413a1,001,2025-05-01_12h30.45.276,empathy_intonation_perc,2024.1.4,Win32,60.24096386,,,,,,,,,,,,,,112,samón,,,,,,643.9404,645.7742,0,1,1.3018,,0,110,110,111,1,pseudoword,0,REAL,FALSA
,,,,,,,,,63b87d2c9edd47ad702413a1,001,2025-05-01_12h30.45.276,empathy_intonation_perc,2024.1.4,Win32,60.24096386,,,,,,,,,,,,,,188,amplir,,,,,,645.7758,650.0053,1,0,3.694,,0,111,111,187,1,pseudoword,0,REAL,FALSA
,,,,,,,,,63b87d2c9edd47ad702413a1,001,2025-05-01_12h30.45.276,empathy_intonation_perc,2024.1.4,Win32,60.24096386,,,,,,,,,,,,,,116,grigir,,,,,,650.0058,652.2889,0,1,1.7465,,0,112,112,115,1,pseudoword,0,REAL,FALSA
,,,,,,,,,63b87d2c9edd47ad702413a1,001,2025-05-01_12h30.45.276,empathy_intonation_perc,2024.1.4,Win32,60.24096386,,,,,,,,,,,,,,156,ozoso,,,,,,652.2898,657.1879,0,1,4.3711,,0,113,113,155,1,pseudoword,0,REAL,FALSA
,,,,,,,,,63b87d2c9edd47ad702413a1,001,2025-05-01_12h30.45.276,empathy_intonation_perc,2024.1.4,Win32,60.24096386,,,,,,,,,,,,,,79,suelo,,,,,,657.1891,662.1538,0,1,4.4305,,0,114,114,78,1,non_cognate,1,REAL,FALSA
,,,,,,,,,63b87d2c9edd47ad702413a1,001,2025-05-01_12h30.45.276,empathy_intonation_perc,2024.1.4,Win32,60.24096386,,,,,,,,,,,,,,6,horror,,,,,,662.1541,665.0886,1,0,2.4108,,0,115,115,5,1,three_way_cognate,1,REAL,FALSA
,,,,,,,,,63b87d2c9edd47ad702413a1,001,2025-05-01_12h30.45.276,empathy_intonation_perc,2024.1.4,Win32,60.24096386,,,,,,,,,,,,,,147,alla,,,,,,665.0895,668.6705,1,0,3.0494,,0,116,116,146,1,pseudoword,0,REAL,FALSA
,,,,,,,,,63b87d2c9edd47ad702413a1,001,2025-05-01_12h30.45.276,empathy_intonation_perc,2024.1.4,Win32,60.24096386,,,,,,,,,,,,,,102,coyo,,,,,,668.6733,672.1698,0,1,2.9643,,0,117,117,101,1,pseudoword,0,REAL,FALSA
,,,,,,,,,63b87d2c9edd47ad702413a1,001,2025-05-01_12h30.45.276,empathy_intonation_perc,2024.1.4,Win32,60.24096386,,,,,,,,,,,,,,187,nomata,,,,,,672.1704,678.7528,0,1,6.0444,,0,118,118,186,1,pseudoword,0,REAL,FALSA
,,,,,,,,,63b87d2c9edd47ad702413a1,001,2025-05-01_12h30.45.276,empathy_intonation_perc,2024.1.4,Win32,60.24096386,,,,,,,,,,,,,,133,conso,,,,,,678.7538,682.3191,1,0,3.0336,,0,119,119,132,1,pseudoword,0,REAL,FALSA
,,,,,,,,,63b87d2c9edd47ad702413a1,001,2025-05-01_12h30.45.276,empathy_intonation_perc,2024.1.4,Win32,60.24096386,,,,,,,,,,,,,,28,ardor,,,,,,682.3199,687.2183,1,0,4.3608,,0,120,120,27,1,two_way_cognate,1,REAL,FALSA
,,,,,,,,,63b87d2c9edd47ad702413a1,001,2025-05-01_12h30.45.276,empathy_intonation_perc,2024.1.4,Win32,60.24096386,,,,,,,,,,,,,,128,pelí,,,,,,687.2192,690.9181,1,0,3.1674,,0,121,121,127,1,pseudoword,0,REAL,FALSA
,,,,,,,,,63b87d2c9edd47ad702413a1,001,2025-05-01_12h30.45.276,empathy_intonation_perc,2024.1.4,Win32,60.24096386,,,,,,,,,,,,,,64,rizado,,,,,,690.9187,694.4514,1,0,3.0049,,0,122,122,63,1,non_cognate,1,REAL,FALSA
,,,,,,,,,63b87d2c9edd47ad702413a1,001,2025-05-01_12h30.45.276,empathy_intonation_perc,2024.1.4,Win32,60.24096386,,,,,,,,,,,,,,120,mauja,,,,,,694.4546,696.7006,0,1,1.7085,,0,123,123,119,1,pseudoword,0,REAL,FALSA
,,,,,,,,,63b87d2c9edd47ad702413a1,001,2025-05-01_12h30.45.276,empathy_intonation_perc,2024.1.4,Win32,60.24096386,,,,,,,,,,,,,,80,cuenco,,,,,,696.7012,700.1832,1,0,2.9408,,0,124,124,79,1,non_cognate,1,REAL,FALSA
,,,,,,,,,63b87d2c9edd47ad702413a1,001,2025-05-01_12h30.45.276,empathy_intonation_perc,2024.1.4,Win32,60.24096386,,,,,,,,,,,,,,24,retina,,,,,,700.1836,704.2542,0,1,3.543,,0,125,125,23,1,three_way_cognate,1,REAL,FALSA
,,,,,,,,,63b87d2c9edd47ad702413a1,001,2025-05-01_12h30.45.276,empathy_intonation_perc,2024.1.4,Win32,60.24096386,,,,,,,,,,,,,,111,monue,,,,,,704.2549,707.6663,1,0,2.8843,,0,126,126,110,1,pseudoword,0,REAL,FALSA
,,,,,,,,,63b87d2c9edd47ad702413a1,001,2025-05-01_12h30.45.276,empathy_intonation_perc,2024.1.4,Win32,60.24096386,,,,,,,,,,,,,,15,test,,,,,,707.6673,711.4156,1,0,3.2033,,0,127,127,14,1,three_way_cognate,1,REAL,FALSA
,,,,,,,,,63b87d2c9edd47ad702413a1,001,2025-05-01_12h30.45.276,empathy_intonation_perc,2024.1.4,Win32,60.24096386,,,,,,,,,,,,,,99,bugor,,,,,,711.4162,713.9019,1,0,1.9546,,0,128,128,98,1,pseudoword,0,REAL,FALSA
,,,,,,,,,63b87d2c9edd47ad702413a1,001,2025-05-01_12h30.45.276,empathy_intonation_perc,2024.1.4,Win32,60.24096386,,,,,,,,,,,,,,174,pabea,,,,,,713.9028,719.4486,0,1,5.0088,,0,129,129,173,1,pseudoword,0,REAL,FALSA
,,,,,,,,,63b87d2c9edd47ad702413a1,001,2025-05-01_12h30.45.276,empathy_intonation_perc,2024.1.4,Win32,60.24096386,,,,,,,,,,,,,,1,moral,,,,,,719.4496,721.4984,1,0,1.5125,,0,130,130,0,1,three_way_cognate,1,REAL,FALSA
,,,,,,,,,63b87d2c9edd47ad702413a1,001,2025-05-01_12h30.45.276,empathy_intonation_perc,2024.1.4,Win32,60.24096386,,,,,,,,,,,,,,55,maldad,,,,,,721.4993,725.248,1,0,3.2142,,0,131,131,54,1,non_cognate,1,REAL,FALSA
,,,,,,,,,63b87d2c9edd47ad702413a1,001,2025-05-01_12h30.45.276,empathy_intonation_perc,2024.1.4,Win32,60.24096386,,,,,,,,,,,,,,106,diebro,,,,,,725.2489,731.3138,1,0,5.5278,,0,132,132,105,1,pseudoword,0,REAL,FALSA
,,,,,,,,,63b87d2c9edd47ad702413a1,001,2025-05-01_12h30.45.276,empathy_intonation_perc,2024.1.4,Win32,60.24096386,,,,,,,,,,,,,,142,parre,,,,,,731.3147,734.9467,1,0,3.0988,,0,133,133,141,1,pseudoword,0,REAL,FALSA
,,,,,,,,,63b87d2c9edd47ad702413a1,001,2025-05-01_12h30.45.276,empathy_intonation_perc,2024.1.4,Win32,60.24096386,,,,,,,,,,,,,,95,listo,,,,,,734.9473,739.0471,0,1,3.563,,0,134,134,94,1,non_cognate,1,REAL,FALSA
,,,,,,,,,63b87d2c9edd47ad702413a1,001,2025-05-01_12h30.45.276,empathy_intonation_perc,2024.1.4,Win32,60.24096386,,,,,,,,,,,,,,94,forro,,,,,,739.0493,742.9293,1,0,3.351,,0,135,135,93,1,non_cognate,1,REAL,FALSA
,,,,,,,,,63b87d2c9edd47ad702413a1,001,2025-05-01_12h30.45.276,empathy_intonation_perc,2024.1.4,Win32,60.24096386,,,,,,,,,,,,,,167,dobbo,,,,,,742.93,746.9119,0,1,3.4553,,0,136,136,166,1,pseudoword,0,REAL,FALSA
,,,,,,,,,63b87d2c9edd47ad702413a1,001,2025-05-01_12h30.45.276,empathy_intonation_perc,2024.1.4,Win32,60.24096386,,,,,,,,,,,,,,20,trauma,,,,,,746.9121,749.7449,1,0,2.308,,0,137,137,19,1,three_way_cognate,1,REAL,FALSA
,,,,,,,,,63b87d2c9edd47ad702413a1,001,2025-05-01_12h30.45.276,empathy_intonation_perc,2024.1.4,Win32,60.24096386,,,,,,,,,,,,,,8,kilo,,,,,,749.7452,752.7799,1,0,2.5108,,0,138,138,7,1,three_way_cognate,1,REAL,FALSA
,,,,,,,,,63b87d2c9edd47ad702413a1,001,2025-05-01_12h30.45.276,empathy_intonation_perc,2024.1.4,Win32,60.24096386,,,,,,,,,,,,,,100,épinas,,,,,,752.7807,757.128,1,0,3.8181,,0,139,139,99,1,pseudoword,0,REAL,FALSA
,,,,,,,,,63b87d2c9edd47ad702413a1,001,2025-05-01_12h30.45.276,empathy_intonation_perc,2024.1.4,Win32,60.24096386,,,,,,,,,,,,,,144,diroco,,,,,,757.1286,760.2938,0,1,2.6403,,0,140,140,143,1,pseudoword,0,REAL,FALSA
,,,,,,,,,63b87d2c9edd47ad702413a1,001,2025-05-01_12h30.45.276,empathy_intonation_perc,2024.1.4,Win32,60.24096386,,,,,,,,,,,,,,130,dubo,,,,,,760.2941,763.8274,0,1,2.9998,,0,141,141,129,1,pseudoword,0,REAL,FALSA
,,,,,,,,,63b87d2c9edd47ad702413a1,001,2025-05-01_12h30.45.276,empathy_intonation_perc,2024.1.4,Win32,60.24096386,,,,,,,,,,,,,,18,altar,,,,,,763.8283,766.1272,1,0,1.7612,,0,142,142,17,1,three_way_cognate,1,REAL,FALSA
,,,,,,,,,63b87d2c9edd47ad702413a1,001,2025-05-01_12h30.45.276,empathy_intonation_perc,2024.1.4,Win32,60.24096386,,,,,,,,,,,,,,35,aurora,,,,,,766.1281,769.2433,1,0,2.5914,,0,143,143,34,1,two_way_cognate,1,REAL,FALSA
,,,,,,,,,63b87d2c9edd47ad702413a1,001,2025-05-01_12h30.45.276,empathy_intonation_perc,2024.1.4,Win32,60.24096386,,,,,,,,,,,,,,113,nasce,,,,,,769.2443,773.0096,0,1,3.2353,,0,144,144,112,1,pseudoword,0,REAL,FALSA
,,,,,,,,,63b87d2c9edd47ad702413a1,001,2025-05-01_12h30.45.276,empathy_intonation_perc,2024.1.4,Win32,60.24096386,,,,,,,,,,,,,,189,medium,,,,,,773.0101,776.0593,1,0,2.512,,0,145,145,188,1,pseudoword,0,REAL,FALSA
,,,,,,,,,63b87d2c9edd47ad702413a1,001,2025-05-01_12h30.45.276,empathy_intonation_perc,2024.1.4,Win32,60.24096386,,,,,,,,,,,,,,11,golf,,,,,,776.06,778.6108,1,0,2.0251,,0,146,146,10,1,three_way_cognate,1,REAL,FALSA
,,,,,,,,,63b87d2c9edd47ad702413a1,001,2025-05-01_12h30.45.276,empathy_intonation_perc,2024.1.4,Win32,60.24096386,,,,,,,,,,,,,,63,hilo,,,,,,778.6116,781.8257,0,1,2.6827,,0,147,147,62,1,non_cognate,1,REAL,FALSA
,,,,,,,,,63b87d2c9edd47ad702413a1,001,2025-05-01_12h30.45.276,empathy_intonation_perc,2024.1.4,Win32,60.24096386,,,,,,,,,,,,,,76,chocar,,,,,,781.8266,785.5422,1,0,3.1801,,0,148,148,75,1,non_cognate,1,REAL,FALSA
,,,,,,,,,63b87d2c9edd47ad702413a1,001,2025-05-01_12h30.45.276,empathy_intonation_perc,2024.1.4,Win32,60.24096386,,,,,,,,,,,,,,152,prave,,,,,,785.5428,788.7413,0,1,2.6663,,0,149,149,151,1,pseudoword,0,REAL,FALSA
,,,,,,,,,63b87d2c9edd47ad702413a1,001,2025-05-01_12h30.45.276,empathy_intonation_perc,2024.1.4,Win32,60.24096386,,,,,,,,,,,,,,143,hurcos,,,,,,788.7423,792.9081,1,0,3.6333,,0,150,150,142,1,pseudoword,0,REAL,FALSA
,,,,,,,,,63b87d2c9edd47ad702413a1,001,2025-05-01_12h30.45.276,empathy_intonation_perc,2024.1.4,Win32,60.24096386,,,,,,,,,,,,,,13,plan,,,,,,792.9091,794.7904,1,0,1.3533,,0,151,151,12,1,three_way_cognate,1,REAL,FALSA
,,,,,,,,,63b87d2c9edd47ad702413a1,001,2025-05-01_12h30.45.276,empathy_intonation_perc,2024.1.4,Win32,60.24096386,,,,,,,,,,,,,,81,sacar,,,,,,794.7908,798.6735,1,0,3.3567,,0,152,152,80,1,non_cognate,1,REAL,FALSA
,,,,,,,,,63b87d2c9edd47ad702413a1,001,2025-05-01_12h30.45.276,empathy_intonation_perc,2024.1.4,Win32,60.24096386,,,,,,,,,,,,,,10,drama,,,,,,798.6745,801.1569,1,0,1.9538,,0,153,153,9,1,three_way_cognate,1,REAL,FALSA
,,,,,,,,,63b87d2c9edd47ad702413a1,001,2025-05-01_12h30.45.276,empathy_intonation_perc,2024.1.4,Win32,60.24096386,,,,,,,,,,,,,,171,gotro,,,,,,801.1577,804.6564,0,1,2.9655,,0,154,154,170,1,pseudoword,0,REAL,FALSA
,,,,,,,,,63b87d2c9edd47ad702413a1,001,2025-05-01_12h30.45.276,empathy_intonation_perc,2024.1.4,Win32,60.24096386,,,,,,,,,,,,,,158,babrá,,,,,,804.6572,808.8722,0,1,3.6861,,0,155,155,157,1,pseudoword,0,REAL,FALSA
,,,,,,,,,63b87d2c9edd47ad702413a1,001,2025-05-01_12h30.45.276,empathy_intonation_perc,2024.1.4,Win32,60.24096386,,,,,,,,,,,,,,185,aljizo,,,,,,808.8725,814.8216,0,1,5.4203,,0,156,156,184,1,pseudoword,0,REAL,FALSA
,,,,,,,,,63b87d2c9edd47ad702413a1,001,2025-05-01_12h30.45.276,empathy_intonation_perc,2024.1.4,Win32,60.24096386,,,,,,,,,,,,,,96,caro,,,,,,814.8219,819.3584,1,0,4.0097,,0,157,157,95,1,non_cognate,1,REAL,FALSA
,,,,,,,,,63b87d2c9edd47ad702413a1,001,2025-05-01_12h30.45.276,empathy_intonation_perc,2024.1.4,Win32,60.24096386,,,,,,,,,,,,,,58,colcha,,,,,,819.359,823.2232,1,0,3.3424,,0,158,158,57,1,non_cognate,1,REAL,FALSA
,,,,,,,,,63b87d2c9edd47ad702413a1,001,2025-05-01_12h30.45.276,empathy_intonation_perc,2024.1.4,Win32,60.24096386,,,,,,,,,,,,,,161,civas,,,,,,823.2243,827.0875,0,1,3.3345,,0,159,159,160,1,pseudoword,0,REAL,FALSA
,,,,,,,,,63b87d2c9edd47ad702413a1,001,2025-05-01_12h30.45.276,empathy_intonation_perc,2024.1.4,Win32,60.24096386,,,,,,,,,,,,,,184,huenos,,,,,,827.0883,830.4764,0,1,2.8634,,0,160,160,183,1,pseudoword,0,REAL,FALSA
,,,,,,,,,63b87d2c9edd47ad702413a1,001,2025-05-01_12h30.45.276,empathy_intonation_perc,2024.1.4,Win32,60.24096386,,,,,,,,,,,,,,98,martir,,,,,,830.4771,833.9048,1,0,2.909,,0,161,161,97,1,pseudoword,0,REAL,FALSA
,,,,,,,,,63b87d2c9edd47ad702413a1,001,2025-05-01_12h30.45.276,empathy_intonation_perc,2024.1.4,Win32,60.24096386,,,,,,,,,,,,,,131,fuar,,,,,,833.9054,837.7367,0,1,3.2966,,0,162,162,130,1,pseudoword,0,REAL,FALSA
,,,,,,,,,63b87d2c9edd47ad702413a1,001,2025-05-01_12h30.45.276,empathy_intonation_perc,2024.1.4,Win32,60.24096386,,,,,,,,,,,,,,168,cobén,,,,,,837.7375,840.9029,0,1,2.6378,,0,163,163,167,1,pseudoword,0,REAL,FALSA
,,,,,,,,,63b87d2c9edd47ad702413a1,001,2025-05-01_12h30.45.276,empathy_intonation_perc,2024.1.4,Win32,60.24096386,,,,,,,,,,,,,,88,percha,,,,,,840.9037,844.0695,1,0,2.6329,,0,164,164,87,1,non_cognate,1,REAL,FALSA
,,,,,,,,,63b87d2c9edd47ad702413a1,001,2025-05-01_12h30.45.276,empathy_intonation_perc,2024.1.4,Win32,60.24096386,,,,,,,,,,,,,,159,trcia,,,,,,844.0702,847.0025,0,1,2.3984,,0,165,165,158,1,pseudoword,0,REAL,FALSA
,,,,,,,,,63b87d2c9edd47ad702413a1,001,2025-05-01_12h30.45.276,empathy_intonation_perc,2024.1.4,Win32,60.24096386,,,,,,,,,,,,,,69,tiza,,,,,,847.0035,850.6691,1,0,3.1315,,0,166,166,68,1,non_cognate,1,REAL,FALSA
,,,,,,,,,63b87d2c9edd47ad702413a1,001,2025-05-01_12h30.45.276,empathy_intonation_perc,2024.1.4,Win32,60.24096386,,,,,,,,,,,,,,169,pitis,,,,,,850.6703,853.4518,0,1,2.2491,,0,167,167,168,1,pseudoword,0,REAL,FALSA
,,,,,,,,,63b87d2c9edd47ad702413a1,001,2025-05-01_12h30.45.276,empathy_intonation_perc,2024.1.4,Win32,60.24096386,,,,,,,,,,,,,,49,teñir,,,,,,853.4529,858.3516,1,0,4.3652,,0,168,168,48,1,non_cognate,1,REAL,FALSA
,,,,,,,,,63b87d2c9edd47ad702413a1,001,2025-05-01_12h30.45.276,empathy_intonation_perc,2024.1.4,Win32,60.24096386,,,,,,,,,,,,,,139,sasos,,,,,,858.3526,862.0012,0,1,3.1135,,0,169,169,138,1,pseudoword,0,REAL,FALSA
,,,,,,,,,63b87d2c9edd47ad702413a1,001,2025-05-01_12h30.45.276,empathy_intonation_perc,2024.1.4,Win32,60.24096386,,,,,,,,,,,,,,149,emén,,,,,,862.0023,865.7508,0,1,3.2233,,0,170,170,148,1,pseudoword,0,REAL,FALSA
,,,,,,,,,63b87d2c9edd47ad702413a1,001,2025-05-01_12h30.45.276,empathy_intonation_perc,2024.1.4,Win32,60.24096386,,,,,,,,,,,,,,74,ala,,,,,,865.7521,870.0503,1,0,3.7666,,0,171,171,73,1,non_cognate,1,REAL,FALSA
,,,,,,,,,63b87d2c9edd47ad702413a1,001,2025-05-01_12h30.45.276,empathy_intonation_perc,2024.1.4,Win32,60.24096386,,,,,,,,,,,,,,103,vueras,,,,,,870.051,872.6657,0,1,2.0826,,0,172,172,102,1,pseudoword,0,REAL,FALSA
,,,,,,,,,63b87d2c9edd47ad702413a1,001,2025-05-01_12h30.45.276,empathy_intonation_perc,2024.1.4,Win32,60.24096386,,,,,,,,,,,,,,53,punta,,,,,,872.666,875.832,1,0,2.6411,,0,173,173,52,1,non_cognate,1,REAL,FALSA
,,,,,,,,,63b87d2c9edd47ad702413a1,001,2025-05-01_12h30.45.276,empathy_intonation_perc,2024.1.4,Win32,60.24096386,,,,,,,,,,,,,,87,muleta,,,,,,875.8325,878.7817,1,0,2.4152,,0,174,174,86,1,non_cognate,1,REAL,FALSA
,,,,,,,,,63b87d2c9edd47ad702413a1,001,2025-05-01_12h30.45.276,empathy_intonation_perc,2024.1.4,Win32,60.24096386,,,,,,,,,,,,,,183,edioso,,,,,,878.782,882.5653,1,0,3.2486,,0,175,175,182,1,pseudoword,0,REAL,FALSA
,,,,,,,,,63b87d2c9edd47ad702413a1,001,2025-05-01_12h30.45.276,empathy_intonation_perc,2024.1.4,Win32,60.24096386,,,,,,,,,,,,,,140,chorde,,,,,,882.566,887.549,0,1,4.4568,,0,176,176,139,1,pseudoword,0,REAL,FALSA
,,,,,,,,,63b87d2c9edd47ad702413a1,001,2025-05-01_12h30.45.276,empathy_intonation_perc,2024.1.4,Win32,60.24096386,,,,,,,,,,,,,,129,vinzó,,,,,,887.5505,891.2308,1,0,3.1458,,0,177,177,128,1,pseudoword,0,REAL,FALSA
,,,,,,,,,63b87d2c9edd47ad702413a1,001,2025-05-01_12h30.45.276,empathy_intonation_perc,2024.1.4,Win32,60.24096386,,,,,,,,,,,,,,40,pelvis,,,,,,891.2315,894.8468,1,0,3.0855,,0,178,178,39,1,two_way_cognate,1,REAL,FALSA
,,,,,,,,,63b87d2c9edd47ad702413a1,001,2025-05-01_12h30.45.276,empathy_intonation_perc,2024.1.4,Win32,60.24096386,,,,,,,,,,,,,,153,golla,,,,,,894.8473,898.1798,0,1,2.804,,0,179,179,152,1,pseudoword,0,REAL,FALSA
,,,,,,,,,63b87d2c9edd47ad702413a1,001,2025-05-01_12h30.45.276,empathy_intonation_perc,2024.1.4,Win32,60.24096386,,,,,,,,,,,,,,50,sierra,,,,,,898.1801,900.463,1,0,1.7573,,0,180,180,49,1,non_cognate,1,REAL,FALSA
,,,,,,,,,63b87d2c9edd47ad702413a1,001,2025-05-01_12h30.45.276,empathy_intonation_perc,2024.1.4,Win32,60.24096386,,,,,,,,,,,,,,19,mafia,,,,,,900.4633,903.1793,1,0,2.1807,,0,181,181,18,1,three_way_cognate,1,REAL,FALSA
,,,,,,,,,63b87d2c9edd47ad702413a1,001,2025-05-01_12h30.45.276,empathy_intonation_perc,2024.1.4,Win32,60.24096386,,,,,,,,,,,,,,176,gripar,,,,,,903.1796,907.7807,0,1,4.0766,,0,182,182,175,1,pseudoword,0,REAL,FALSA
,,,,,,,,,63b87d2c9edd47ad702413a1,001,2025-05-01_12h30.45.276,empathy_intonation_perc,2024.1.4,Win32,60.24096386,,,,,,,,,,,,,,137,trugo,,,,,,907.7818,911.3459,0,1,3.0337,,0,183,183,136,1,pseudoword,0,REAL,FALSA
,,,,,,,,,63b87d2c9edd47ad702413a1,001,2025-05-01_12h30.45.276,empathy_intonation_perc,2024.1.4,Win32,60.24096386,,,,,,,,,,,,,,127,vien,,,,,,911.3467,915.3787,1,0,3.5049,,0,184,184,126,1,pseudoword,0,REAL,FALSA
,,,,,,,,,63b87d2c9edd47ad702413a1,001,2025-05-01_12h30.45.276,empathy_intonation_perc,2024.1.4,Win32,60.24096386,,,,,,,,,,,,,,177,entodo,,,,,,915.3794,918.5284,0,1,2.6132,,0,185,185,176,1,pseudoword,0,REAL,FALSA
,,,,,,,,,63b87d2c9edd47ad702413a1,001,2025-05-01_12h30.45.276,empathy_intonation_perc,2024.1.4,Win32,60.24096386,,,,,,,,,,,,,,77,suave,,,,,,918.5293,922.3445,1,0,3.2791,,0,186,186,76,1,non_cognate,1,REAL,FALSA
,,,,,,,,,63b87d2c9edd47ad702413a1,001,2025-05-01_12h30.45.276,empathy_intonation_perc,2024.1.4,Win32,60.24096386,,,,,,,,,,,,,,86,cuenco,,,,,,922.3454,924.9778,1,0,2.0976,,0,187,187,85,1,non_cognate,1,REAL,FALSA
,,,,,,,,,63b87d2c9edd47ad702413a1,001,2025-05-01_12h30.45.276,empathy_intonation_perc,2024.1.4,Win32,60.24096386,,,,,,,,,,,,,,163,llzan,,,,,,924.9787,928.7773,0,1,3.2635,,0,188,188,162,1,pseudoword,0,REAL,FALSA
,,,,,,,,,63b87d2c9edd47ad702413a1,001,2025-05-01_12h30.45.276,empathy_intonation_perc,2024.1.4,Win32,60.24096386,,,,,,,,,,,,,,182,desaro,,,,,,928.7782,931.5106,1,0,2.1962,,0,189,189,181,1,pseudoword,0,REAL,FALSA
,,,,,,,,,63b87d2c9edd47ad702413a1,001,2025-05-01_12h30.45.276,empathy_intonation_perc,2024.1.4,Win32,60.24096386,,,,,,,,,,,,,,135,panté,,,,,,931.5118,934.76,0,1,2.7163,,0,190,190,134,1,pseudoword,0,REAL,FALSA
,,,,,,,,,63b87d2c9edd47ad702413a1,001,2025-05-01_12h30.45.276,empathy_intonation_perc,2024.1.4,Win32,60.24096386,,,,,,,,,,,,,,23,plural,,,,,,934.7613,937.4595,1,0,2.1686,,0,191,191,22,1,three_way_cognate,1,REAL,FALSA
