lextale_instructions.started,lextale_instructions.stopped,lextale_instructions_loop.thisRepN,lextale_instructions_loop.thisTrialN,lextale_instructions_loop.thisN,lextale_instructions_loop.thisIndex,lextale_instructions_loop.ran,instructions_text,continue_text,participant,session,date,expName,psychopyVersion,OS,frameRate,lextale_practice.started,lextale_practice.stopped,key_resp_lextale_practice.keys,key_resp_lextale_practice.corr,key_resp_lextale_practice.rt,key_resp_lextale_practice.duration,lextale_practice_feedback.started,lextale_practice_feedback.stopped,lextale_practice_trials.thisRepN,lextale_practice_trials.thisTrialN,lextale_practice_trials.thisN,lextale_practice_trials.thisIndex,lextale_practice_trials.ran,stim,word,correct_response,prac_button_real,prac_button_false,lextale_check.started,lextale_check.stopped,lextale_trial.started,lextale_trial.stopped,key_resp_lextale_trial.keys,key_resp_lextale_trial.corr,key_resp_lextale_trial.rt,key_resp_lextale_trial.duration,lextail_trials.thisRepN,lextail_trials.thisTrialN,lextail_trials.thisN,lextail_trials.thisIndex,lextail_trials.ran,type,correct_reponse,button_real,button_false
0.0036,4.985,0,0,0,0,1,"Este es un test de vocabulario en español. 
  
  A continuación vas a ver 90 secuencias de letras que parecen 'españolas'.
  
  Solo algunas de ellas son palabras de verdad.",(presiona la barra espaciadora para continuar),63ba24688ddfd5e20503907d,001,2025-04-30_16h43.57.737,empathy_intonation_perc,2024.1.4,MacIntel,60.24096386,,,,,,,,,,,,,,,,,,,,,,,,,,,,,,,,,,,
4.9856,8.6679,0,1,1,1,1,"Por favor, señala las palabras que tú conoces (aquellas que estás convencido que son palabras españolas, incluso aunque no seas capaz de dar el significado preciso).",(presiona la barra espaciadora para continuar),63ba24688ddfd5e20503907d,001,2025-04-30_16h43.57.737,empathy_intonation_perc,2024.1.4,MacIntel,60.24096386,,,,,,,,,,,,,,,,,,,,,,,,,,,,,,,,,,,
8.6682,12.7176,0,2,2,2,1,Pero cuidado: los errores se penalizan. Por eso no tiene sentido tratar de incrementar tu puntuación marcando como reales palabras que nunca has visto.,(presiona la barra espaciadora para continuar),63ba24688ddfd5e20503907d,001,2025-04-30_16h43.57.737,empathy_intonation_perc,2024.1.4,MacIntel,60.24096386,,,,,,,,,,,,,,,,,,,,,,,,,,,,,,,,,,,
12.7179,16.6009,0,3,3,3,1,"Presiona la tecla 1 si piensas que es una palabra real y la tecla 
  0 si piensas que es una palabra falsa. 
  
  Vamos a practicar un poco...",(presiona la barra espaciadora para continuar),63ba24688ddfd5e20503907d,001,2025-04-30_16h43.57.737,empathy_intonation_perc,2024.1.4,MacIntel,60.24096386,,,,,,,,,,,,,,,,,,,,,,,,,,,,,,,,,,,
,,,,,,,,,63ba24688ddfd5e20503907d,001,2025-04-30_16h43.57.737,empathy_intonation_perc,2024.1.4,MacIntel,60.24096386,16.6036,29.8674,0,1,12.7307,,29.8677,30.8673,0,0,0,0,1,0,depiste,0,REAL,FALSA,,,,,,,,,,,,,,,,,
,,,,,,,,,63ba24688ddfd5e20503907d,001,2025-04-30_16h43.57.737,empathy_intonation_perc,2024.1.4,MacIntel,60.24096386,30.8678,32.0005,1,1,0.6131,,32.0005,33.0014,0,1,1,1,1,0,sí,1,REAL,FALSA,,,,,,,,,,,,,,,,,
,,,,,,,,,63ba24688ddfd5e20503907d,001,2025-04-30_16h43.57.737,empathy_intonation_perc,2024.1.4,MacIntel,60.24096386,33.0018,34.6674,1,0,1.1131,,34.6675,35.6676,0,2,2,2,1,0,coné,0,REAL,FALSA,,,,,,,,,,,,,,,,,
,,,,,,,,,63ba24688ddfd5e20503907d,001,2025-04-30_16h43.57.737,empathy_intonation_perc,2024.1.4,MacIntel,60.24096386,35.6681,36.8173,0,1,0.6022,,36.8173,37.8177,0,3,3,3,1,0,calpar,0,REAL,FALSA,,,,,,,,,,,,,,,,,
,,,,,,,,,63ba24688ddfd5e20503907d,001,2025-04-30_16h43.57.737,empathy_intonation_perc,2024.1.4,MacIntel,60.24096386,37.818,39.0847,0,1,0.7128,,39.0848,40.0839,0,4,4,4,1,0,joten,0,REAL,FALSA,,,,,,,,,,,,,,,,,
,,,,,,,,,63ba24688ddfd5e20503907d,001,2025-04-30_16h43.57.737,empathy_intonation_perc,2024.1.4,MacIntel,60.24096386,40.0843,41.4683,1,1,0.8532,,41.4684,42.4674,0,5,5,5,1,0,sacapuntas,1,REAL,FALSA,,,,,,,,,,,,,,,,,
,,,,,,,,,63ba24688ddfd5e20503907d,001,2025-04-30_16h43.57.737,empathy_intonation_perc,2024.1.4,MacIntel,60.24096386,42.4678,44.0837,0,1,1.066,,44.0839,45.0842,0,6,6,6,1,0,priba,0,REAL,FALSA,,,,,,,,,,,,,,,,,
,,,,,,,,,63ba24688ddfd5e20503907d,001,2025-04-30_16h43.57.737,empathy_intonation_perc,2024.1.4,MacIntel,60.24096386,45.0845,46.4175,0,1,0.7866,,46.4176,47.4174,0,7,7,7,1,0,pelasula,0,REAL,FALSA,,,,,,,,,,,,,,,,,
,,,,,,,,,63ba24688ddfd5e20503907d,001,2025-04-30_16h43.57.737,empathy_intonation_perc,2024.1.4,MacIntel,60.24096386,47.4178,48.535,1,1,0.5713,,48.5351,49.5335,0,8,8,8,1,0,bien,1,REAL,FALSA,,,,,,,,,,,,,,,,,
,,,,,,,,,63ba24688ddfd5e20503907d,001,2025-04-30_16h43.57.737,empathy_intonation_perc,2024.1.4,MacIntel,60.24096386,49.5339,50.6503,1,1,0.5958,,50.6503,51.6502,0,9,9,9,1,0,casa,1,REAL,FALSA,,,,,,,,,,,,,,,,,
,,,,,,,,,63ba24688ddfd5e20503907d,001,2025-04-30_16h43.57.737,empathy_intonation_perc,2024.1.4,MacIntel,60.24096386,51.6506,52.8181,1,0,0.6521,,52.8182,53.8174,0,10,10,10,1,0,lejo,0,REAL,FALSA,,,,,,,,,,,,,,,,,
,,,,,,,,,63ba24688ddfd5e20503907d,001,2025-04-30_16h43.57.737,empathy_intonation_perc,2024.1.4,MacIntel,60.24096386,53.8178,55.2169,0,1,0.8521,,55.2169,56.2174,0,11,11,11,1,0,pretantas,0,REAL,FALSA,,,,,,,,,,,,,,,,,
,,,,,,,,,63ba24688ddfd5e20503907d,001,2025-04-30_16h43.57.737,empathy_intonation_perc,2024.1.4,MacIntel,60.24096386,,,,,,,,,,,,,,,,,,,56.2178,59.5337,,,,,,,,,,,,,,,
,,,,,,,,,63ba24688ddfd5e20503907d,001,2025-04-30_16h43.57.737,empathy_intonation_perc,2024.1.4,MacIntel,60.24096386,,,,,,,,,,,,,,152,prave,,,,,,59.543,61.0678,0,1,0.9902,,0,0,0,151,1,pseudoword,0,REAL,FALSA
,,,,,,,,,63ba24688ddfd5e20503907d,001,2025-04-30_16h43.57.737,empathy_intonation_perc,2024.1.4,MacIntel,60.24096386,,,,,,,,,,,,,,9,portal,,,,,,61.0681,62.2339,1,0,0.6159,,0,1,1,8,1,three_way_cognate,1,REAL,FALSA
,,,,,,,,,63ba24688ddfd5e20503907d,001,2025-04-30_16h43.57.737,empathy_intonation_perc,2024.1.4,MacIntel,60.24096386,,,,,,,,,,,,,,18,altar,,,,,,62.2342,63.4007,1,0,0.6281,,0,2,2,17,1,three_way_cognate,1,REAL,FALSA
,,,,,,,,,63ba24688ddfd5e20503907d,001,2025-04-30_16h43.57.737,empathy_intonation_perc,2024.1.4,MacIntel,60.24096386,,,,,,,,,,,,,,1,moral,,,,,,63.401,64.4668,1,0,0.5123,,0,3,3,0,1,three_way_cognate,1,REAL,FALSA
,,,,,,,,,63ba24688ddfd5e20503907d,001,2025-04-30_16h43.57.737,empathy_intonation_perc,2024.1.4,MacIntel,60.24096386,,,,,,,,,,,,,,66,aleta,,,,,,64.4672,65.9855,1,0,0.9706,,0,4,4,65,1,non_cognate,1,REAL,FALSA
,,,,,,,,,63ba24688ddfd5e20503907d,001,2025-04-30_16h43.57.737,empathy_intonation_perc,2024.1.4,MacIntel,60.24096386,,,,,,,,,,,,,,99,bugor,,,,,,65.9859,67.0343,0,1,0.4942,,0,5,5,98,1,pseudoword,0,REAL,FALSA
,,,,,,,,,63ba24688ddfd5e20503907d,001,2025-04-30_16h43.57.737,empathy_intonation_perc,2024.1.4,MacIntel,60.24096386,,,,,,,,,,,,,,76,chocar,,,,,,67.0346,68.1511,0,1,0.5715,,0,6,6,75,1,non_cognate,1,REAL,FALSA
,,,,,,,,,63ba24688ddfd5e20503907d,001,2025-04-30_16h43.57.737,empathy_intonation_perc,2024.1.4,MacIntel,60.24096386,,,,,,,,,,,,,,37,torso,,,,,,68.1514,69.2672,1,0,0.5698,,0,7,7,36,1,two_way_cognate,1,REAL,FALSA
,,,,,,,,,63ba24688ddfd5e20503907d,001,2025-04-30_16h43.57.737,empathy_intonation_perc,2024.1.4,MacIntel,60.24096386,,,,,,,,,,,,,,183,edioso,,,,,,69.2675,70.4179,0,1,0.6051,,0,8,8,182,1,pseudoword,0,REAL,FALSA
,,,,,,,,,63ba24688ddfd5e20503907d,001,2025-04-30_16h43.57.737,empathy_intonation_perc,2024.1.4,MacIntel,60.24096386,,,,,,,,,,,,,,32,animal,,,,,,70.4184,71.5342,1,0,0.5704,,0,9,9,31,1,two_way_cognate,1,REAL,FALSA
,,,,,,,,,63ba24688ddfd5e20503907d,001,2025-04-30_16h43.57.737,empathy_intonation_perc,2024.1.4,MacIntel,60.24096386,,,,,,,,,,,,,,112,samón,,,,,,71.5346,72.9175,1,0,0.8286,,0,10,10,111,1,pseudoword,0,REAL,FALSA
,,,,,,,,,63ba24688ddfd5e20503907d,001,2025-04-30_16h43.57.737,empathy_intonation_perc,2024.1.4,MacIntel,60.24096386,,,,,,,,,,,,,,31,civil,,,,,,72.9178,74.0174,1,0,0.5627,,0,11,11,30,1,two_way_cognate,1,REAL,FALSA
,,,,,,,,,63ba24688ddfd5e20503907d,001,2025-04-30_16h43.57.737,empathy_intonation_perc,2024.1.4,MacIntel,60.24096386,,,,,,,,,,,,,,98,martir,,,,,,74.0177,75.4841,1,0,0.9268,,0,12,12,97,1,pseudoword,0,REAL,FALSA
,,,,,,,,,63ba24688ddfd5e20503907d,001,2025-04-30_16h43.57.737,empathy_intonation_perc,2024.1.4,MacIntel,60.24096386,,,,,,,,,,,,,,187,nomata,,,,,,75.4844,76.6342,1,0,0.6048,,0,13,13,186,1,pseudoword,0,REAL,FALSA
,,,,,,,,,63ba24688ddfd5e20503907d,001,2025-04-30_16h43.57.737,empathy_intonation_perc,2024.1.4,MacIntel,60.24096386,,,,,,,,,,,,,,154,harvé,,,,,,76.6346,77.7343,0,1,0.5538,,0,14,14,153,1,pseudoword,0,REAL,FALSA
,,,,,,,,,63ba24688ddfd5e20503907d,001,2025-04-30_16h43.57.737,empathy_intonation_perc,2024.1.4,MacIntel,60.24096386,,,,,,,,,,,,,,180,pupica,,,,,,77.7347,78.6843,1,0,0.404,,0,15,15,179,1,pseudoword,0,REAL,FALSA
,,,,,,,,,63ba24688ddfd5e20503907d,001,2025-04-30_16h43.57.737,empathy_intonation_perc,2024.1.4,MacIntel,60.24096386,,,,,,,,,,,,,,15,test,,,,,,78.6848,79.7841,1,0,0.5456,,0,16,16,14,1,three_way_cognate,1,REAL,FALSA
,,,,,,,,,63ba24688ddfd5e20503907d,001,2025-04-30_16h43.57.737,empathy_intonation_perc,2024.1.4,MacIntel,60.24096386,,,,,,,,,,,,,,141,virios,,,,,,79.7844,81.0499,0,1,0.7379,,0,17,17,140,1,pseudoword,0,REAL,FALSA
,,,,,,,,,63ba24688ddfd5e20503907d,001,2025-04-30_16h43.57.737,empathy_intonation_perc,2024.1.4,MacIntel,60.24096386,,,,,,,,,,,,,,13,plan,,,,,,81.0501,82.2174,1,0,0.6328,,0,18,18,12,1,three_way_cognate,1,REAL,FALSA
,,,,,,,,,63ba24688ddfd5e20503907d,001,2025-04-30_16h43.57.737,empathy_intonation_perc,2024.1.4,MacIntel,60.24096386,,,,,,,,,,,,,,156,ozoso,,,,,,82.2177,83.4167,0,1,0.6456,,0,19,19,155,1,pseudoword,0,REAL,FALSA
,,,,,,,,,63ba24688ddfd5e20503907d,001,2025-04-30_16h43.57.737,empathy_intonation_perc,2024.1.4,MacIntel,60.24096386,,,,,,,,,,,,,,63,hilo,,,,,,83.4169,84.5674,0,1,0.6043,,0,20,20,62,1,non_cognate,1,REAL,FALSA
,,,,,,,,,63ba24688ddfd5e20503907d,001,2025-04-30_16h43.57.737,empathy_intonation_perc,2024.1.4,MacIntel,60.24096386,,,,,,,,,,,,,,69,tiza,,,,,,84.5678,85.8665,0,1,0.7461,,0,21,21,68,1,non_cognate,1,REAL,FALSA
,,,,,,,,,63ba24688ddfd5e20503907d,001,2025-04-30_16h43.57.737,empathy_intonation_perc,2024.1.4,MacIntel,60.24096386,,,,,,,,,,,,,,52,blando,,,,,,85.8668,87.0842,1,0,0.6873,,0,22,22,51,1,non_cognate,1,REAL,FALSA
,,,,,,,,,63ba24688ddfd5e20503907d,001,2025-04-30_16h43.57.737,empathy_intonation_perc,2024.1.4,MacIntel,60.24096386,,,,,,,,,,,,,,30,fiscal,,,,,,87.0846,88.4163,1,0,0.7791,,0,23,23,29,1,two_way_cognate,1,REAL,FALSA
,,,,,,,,,63ba24688ddfd5e20503907d,001,2025-04-30_16h43.57.737,empathy_intonation_perc,2024.1.4,MacIntel,60.24096386,,,,,,,,,,,,,,113,nasce,,,,,,88.4165,89.5677,0,1,0.6206,,0,24,24,112,1,pseudoword,0,REAL,FALSA
,,,,,,,,,63ba24688ddfd5e20503907d,001,2025-04-30_16h43.57.737,empathy_intonation_perc,2024.1.4,MacIntel,60.24096386,,,,,,,,,,,,,,40,pelvis,,,,,,89.5681,91.1836,1,0,1.073,,0,25,25,39,1,two_way_cognate,1,REAL,FALSA
,,,,,,,,,63ba24688ddfd5e20503907d,001,2025-04-30_16h43.57.737,empathy_intonation_perc,2024.1.4,MacIntel,60.24096386,,,,,,,,,,,,,,36,viable,,,,,,91.1839,92.6005,1,0,0.8709,,0,26,26,35,1,two_way_cognate,1,REAL,FALSA
,,,,,,,,,63ba24688ddfd5e20503907d,001,2025-04-30_16h43.57.737,empathy_intonation_perc,2024.1.4,MacIntel,60.24096386,,,,,,,,,,,,,,111,monue,,,,,,92.6008,94.2506,0,1,1.0985,,0,27,27,110,1,pseudoword,0,REAL,FALSA
,,,,,,,,,63ba24688ddfd5e20503907d,001,2025-04-30_16h43.57.737,empathy_intonation_perc,2024.1.4,MacIntel,60.24096386,,,,,,,,,,,,,,20,trauma,,,,,,94.2508,95.5335,1,0,0.7378,,0,28,28,19,1,three_way_cognate,1,REAL,FALSA
,,,,,,,,,63ba24688ddfd5e20503907d,001,2025-04-30_16h43.57.737,empathy_intonation_perc,2024.1.4,MacIntel,60.24096386,,,,,,,,,,,,,,39,casual,,,,,,95.5339,96.5837,1,0,0.5038,,0,29,29,38,1,two_way_cognate,1,REAL,FALSA
,,,,,,,,,63ba24688ddfd5e20503907d,001,2025-04-30_16h43.57.737,empathy_intonation_perc,2024.1.4,MacIntel,60.24096386,,,,,,,,,,,,,,176,gripar,,,,,,96.584,97.7172,0,1,0.5799,,0,30,30,175,1,pseudoword,0,REAL,FALSA
,,,,,,,,,63ba24688ddfd5e20503907d,001,2025-04-30_16h43.57.737,empathy_intonation_perc,2024.1.4,MacIntel,60.24096386,,,,,,,,,,,,,,97,nocita,,,,,,97.7175,98.9498,0,1,0.6782,,0,31,31,96,1,pseudoword,0,REAL,FALSA
,,,,,,,,,63ba24688ddfd5e20503907d,001,2025-04-30_16h43.57.737,empathy_intonation_perc,2024.1.4,MacIntel,60.24096386,,,,,,,,,,,,,,164,tecia,,,,,,98.9502,100.1002,0,1,0.6243,,0,32,32,163,1,pseudoword,0,REAL,FALSA
,,,,,,,,,63ba24688ddfd5e20503907d,001,2025-04-30_16h43.57.737,empathy_intonation_perc,2024.1.4,MacIntel,60.24096386,,,,,,,,,,,,,,117,morrá,,,,,,100.1004,101.5337,1,0,0.8867,,0,33,33,116,1,pseudoword,0,REAL,FALSA
,,,,,,,,,63ba24688ddfd5e20503907d,001,2025-04-30_16h43.57.737,empathy_intonation_perc,2024.1.4,MacIntel,60.24096386,,,,,,,,,,,,,,94,forro,,,,,,101.534,102.8163,0,1,0.7356,,0,34,34,93,1,non_cognate,1,REAL,FALSA
,,,,,,,,,63ba24688ddfd5e20503907d,001,2025-04-30_16h43.57.737,empathy_intonation_perc,2024.1.4,MacIntel,60.24096386,,,,,,,,,,,,,,92,flecha,,,,,,102.8167,104.1172,0,1,0.7869,,0,35,35,91,1,non_cognate,1,REAL,FALSA
,,,,,,,,,63ba24688ddfd5e20503907d,001,2025-04-30_16h43.57.737,empathy_intonation_perc,2024.1.4,MacIntel,60.24096386,,,,,,,,,,,,,,118,bará,,,,,,104.1176,105.6004,1,0,0.937,,0,36,36,117,1,pseudoword,0,REAL,FALSA
,,,,,,,,,63ba24688ddfd5e20503907d,001,2025-04-30_16h43.57.737,empathy_intonation_perc,2024.1.4,MacIntel,60.24096386,,,,,,,,,,,,,,90,venado,,,,,,105.6008,107.4162,0,1,1.2611,,0,37,37,89,1,non_cognate,1,REAL,FALSA
,,,,,,,,,63ba24688ddfd5e20503907d,001,2025-04-30_16h43.57.737,empathy_intonation_perc,2024.1.4,MacIntel,60.24096386,,,,,,,,,,,,,,174,pabea,,,,,,107.4166,108.8665,0,1,0.9198,,0,38,38,173,1,pseudoword,0,REAL,FALSA
,,,,,,,,,63ba24688ddfd5e20503907d,001,2025-04-30_16h43.57.737,empathy_intonation_perc,2024.1.4,MacIntel,60.24096386,,,,,,,,,,,,,,68,puñal,,,,,,108.8668,110.2997,0,1,0.8814,,0,39,39,67,1,non_cognate,1,REAL,FALSA
,,,,,,,,,63ba24688ddfd5e20503907d,001,2025-04-30_16h43.57.737,empathy_intonation_perc,2024.1.4,MacIntel,60.24096386,,,,,,,,,,,,,,100,épinas,,,,,,110.3,111.5996,0,1,0.7615,,0,40,40,99,1,pseudoword,0,REAL,FALSA
,,,,,,,,,63ba24688ddfd5e20503907d,001,2025-04-30_16h43.57.737,empathy_intonation_perc,2024.1.4,MacIntel,60.24096386,,,,,,,,,,,,,,89,muñeca,,,,,,111.5999,113.0836,0,1,0.9378,,0,41,41,88,1,non_cognate,1,REAL,FALSA
,,,,,,,,,63ba24688ddfd5e20503907d,001,2025-04-30_16h43.57.737,empathy_intonation_perc,2024.1.4,MacIntel,60.24096386,,,,,,,,,,,,,,158,babrá,,,,,,113.0839,114.2671,0,1,0.6379,,0,42,42,157,1,pseudoword,0,REAL,FALSA
,,,,,,,,,63ba24688ddfd5e20503907d,001,2025-04-30_16h43.57.737,empathy_intonation_perc,2024.1.4,MacIntel,60.24096386,,,,,,,,,,,,,,125,ceme,,,,,,114.2676,115.4002,0,1,0.5867,,0,43,43,124,1,pseudoword,0,REAL,FALSA
,,,,,,,,,63ba24688ddfd5e20503907d,001,2025-04-30_16h43.57.737,empathy_intonation_perc,2024.1.4,MacIntel,60.24096386,,,,,,,,,,,,,,70,ánimo,,,,,,115.4005,116.7494,1,0,0.8035,,0,44,44,69,1,non_cognate,1,REAL,FALSA
,,,,,,,,,63ba24688ddfd5e20503907d,001,2025-04-30_16h43.57.737,empathy_intonation_perc,2024.1.4,MacIntel,60.24096386,,,,,,,,,,,,,,2,tumor,,,,,,116.7496,117.4501,0,1,0.1889,,0,45,45,1,1,three_way_cognate,1,REAL,FALSA
,,,,,,,,,63ba24688ddfd5e20503907d,001,2025-04-30_16h43.57.737,empathy_intonation_perc,2024.1.4,MacIntel,60.24096386,,,,,,,,,,,,,,95,listo,,,,,,117.4507,118.3997,1,0,0.4041,,0,46,46,94,1,non_cognate,1,REAL,FALSA
,,,,,,,,,63ba24688ddfd5e20503907d,001,2025-04-30_16h43.57.737,empathy_intonation_perc,2024.1.4,MacIntel,60.24096386,,,,,,,,,,,,,,78,rendir,,,,,,118.4,120.0664,0,1,1.1153,,0,47,47,77,1,non_cognate,1,REAL,FALSA
,,,,,,,,,63ba24688ddfd5e20503907d,001,2025-04-30_16h43.57.737,empathy_intonation_perc,2024.1.4,MacIntel,60.24096386,,,,,,,,,,,,,,129,vinzó,,,,,,120.0667,121.4507,1,0,0.8381,,0,48,48,128,1,pseudoword,0,REAL,FALSA
,,,,,,,,,63ba24688ddfd5e20503907d,001,2025-04-30_16h43.57.737,empathy_intonation_perc,2024.1.4,MacIntel,60.24096386,,,,,,,,,,,,,,22,mango,,,,,,121.4511,122.7832,1,0,0.8034,,0,49,49,21,1,three_way_cognate,1,REAL,FALSA
,,,,,,,,,63ba24688ddfd5e20503907d,001,2025-04-30_16h43.57.737,empathy_intonation_perc,2024.1.4,MacIntel,60.24096386,,,,,,,,,,,,,,73,llevar,,,,,,122.7835,124.1001,0,1,0.7862,,0,50,50,72,1,non_cognate,1,REAL,FALSA
,,,,,,,,,63ba24688ddfd5e20503907d,001,2025-04-30_16h43.57.737,empathy_intonation_perc,2024.1.4,MacIntel,60.24096386,,,,,,,,,,,,,,179,suelet,,,,,,124.1005,125.7327,1,0,1.079,,0,51,51,178,1,pseudoword,0,REAL,FALSA
,,,,,,,,,63ba24688ddfd5e20503907d,001,2025-04-30_16h43.57.737,empathy_intonation_perc,2024.1.4,MacIntel,60.24096386,,,,,,,,,,,,,,137,trugo,,,,,,125.733,126.8836,1,0,0.6201,,0,52,52,136,1,pseudoword,0,REAL,FALSA
,,,,,,,,,63ba24688ddfd5e20503907d,001,2025-04-30_16h43.57.737,empathy_intonation_perc,2024.1.4,MacIntel,60.24096386,,,,,,,,,,,,,,87,muleta,,,,,,126.884,128.0659,0,1,0.6301,,0,53,53,86,1,non_cognate,1,REAL,FALSA
,,,,,,,,,63ba24688ddfd5e20503907d,001,2025-04-30_16h43.57.737,empathy_intonation_perc,2024.1.4,MacIntel,60.24096386,,,,,,,,,,,,,,54,tapón,,,,,,128.0662,129.1835,1,0,0.5868,,0,54,54,53,1,non_cognate,1,REAL,FALSA
,,,,,,,,,63ba24688ddfd5e20503907d,001,2025-04-30_16h43.57.737,empathy_intonation_perc,2024.1.4,MacIntel,60.24096386,,,,,,,,,,,,,,130,dubo,,,,,,129.1839,130.0674,1,0,0.3384,,0,55,55,129,1,pseudoword,0,REAL,FALSA
,,,,,,,,,63ba24688ddfd5e20503907d,001,2025-04-30_16h43.57.737,empathy_intonation_perc,2024.1.4,MacIntel,60.24096386,,,,,,,,,,,,,,186,rizate,,,,,,130.0678,130.8999,1,0,0.277,,0,56,56,185,1,pseudoword,0,REAL,FALSA
,,,,,,,,,63ba24688ddfd5e20503907d,001,2025-04-30_16h43.57.737,empathy_intonation_perc,2024.1.4,MacIntel,60.24096386,,,,,,,,,,,,,,148,gino,,,,,,130.9001,131.567,1,0,0.1203,,0,57,57,147,1,pseudoword,0,REAL,FALSA
,,,,,,,,,63ba24688ddfd5e20503907d,001,2025-04-30_16h43.57.737,empathy_intonation_perc,2024.1.4,MacIntel,60.24096386,,,,,,,,,,,,,,96,caro,,,,,,131.5674,132.1137,0,1,0.0005,,0,58,58,95,1,non_cognate,1,REAL,FALSA
,,,,,,,,,63ba24688ddfd5e20503907d,001,2025-04-30_16h43.57.737,empathy_intonation_perc,2024.1.4,MacIntel,60.24096386,,,,,,,,,,,,,,123,arane,,,,,,132.1141,133.0325,0,1,0.3972,,0,59,59,122,1,pseudoword,0,REAL,FALSA
,,,,,,,,,63ba24688ddfd5e20503907d,001,2025-04-30_16h43.57.737,empathy_intonation_perc,2024.1.4,MacIntel,60.24096386,,,,,,,,,,,,,,190,asumie,,,,,,133.0329,134.1502,1,0,0.588,,0,60,60,189,1,pseudoword,0,REAL,FALSA
,,,,,,,,,63ba24688ddfd5e20503907d,001,2025-04-30_16h43.57.737,empathy_intonation_perc,2024.1.4,MacIntel,60.24096386,,,,,,,,,,,,,,149,emén,,,,,,134.1506,135.4494,0,1,0.7481,,0,61,61,148,1,pseudoword,0,REAL,FALSA
,,,,,,,,,63ba24688ddfd5e20503907d,001,2025-04-30_16h43.57.737,empathy_intonation_perc,2024.1.4,MacIntel,60.24096386,,,,,,,,,,,,,,145,rúo,,,,,,135.4497,136.783,0,1,0.7829,,0,62,62,144,1,pseudoword,0,REAL,FALSA
,,,,,,,,,63ba24688ddfd5e20503907d,001,2025-04-30_16h43.57.737,empathy_intonation_perc,2024.1.4,MacIntel,60.24096386,,,,,,,,,,,,,,41,pasta,,,,,,136.7832,137.8992,1,0,0.5942,,0,63,63,40,1,two_way_cognate,1,REAL,FALSA
,,,,,,,,,63ba24688ddfd5e20503907d,001,2025-04-30_16h43.57.737,empathy_intonation_perc,2024.1.4,MacIntel,60.24096386,,,,,,,,,,,,,,127,vien,,,,,,137.8995,139.0659,1,0,0.6167,,0,64,64,126,1,pseudoword,0,REAL,FALSA
,,,,,,,,,63ba24688ddfd5e20503907d,001,2025-04-30_16h43.57.737,empathy_intonation_perc,2024.1.4,MacIntel,60.24096386,,,,,,,,,,,,,,71,torta,,,,,,139.0662,140.45,0,1,0.8533,,0,65,65,70,1,non_cognate,1,REAL,FALSA
,,,,,,,,,63ba24688ddfd5e20503907d,001,2025-04-30_16h43.57.737,empathy_intonation_perc,2024.1.4,MacIntel,60.24096386,,,,,,,,,,,,,,171,gotro,,,,,,140.4504,141.6665,0,1,0.6714,,0,66,66,170,1,pseudoword,0,REAL,FALSA
,,,,,,,,,63ba24688ddfd5e20503907d,001,2025-04-30_16h43.57.737,empathy_intonation_perc,2024.1.4,MacIntel,60.24096386,,,,,,,,,,,,,,88,percha,,,,,,141.6668,142.9491,1,0,0.7276,,0,67,67,87,1,non_cognate,1,REAL,FALSA
,,,,,,,,,63ba24688ddfd5e20503907d,001,2025-04-30_16h43.57.737,empathy_intonation_perc,2024.1.4,MacIntel,60.24096386,,,,,,,,,,,,,,82,brillo,,,,,,142.9495,144.2846,1,0,0.8043,,0,68,68,81,1,non_cognate,1,REAL,FALSA
,,,,,,,,,63ba24688ddfd5e20503907d,001,2025-04-30_16h43.57.737,empathy_intonation_perc,2024.1.4,MacIntel,60.24096386,,,,,,,,,,,,,,132,nocó,,,,,,144.285,145.3828,0,1,0.5504,,0,69,69,131,1,pseudoword,0,REAL,FALSA
,,,,,,,,,63ba24688ddfd5e20503907d,001,2025-04-30_16h43.57.737,empathy_intonation_perc,2024.1.4,MacIntel,60.24096386,,,,,,,,,,,,,,162,cengo,,,,,,145.3832,147.0663,1,0,1.1531,,0,70,70,161,1,pseudoword,0,REAL,FALSA
,,,,,,,,,63ba24688ddfd5e20503907d,001,2025-04-30_16h43.57.737,empathy_intonation_perc,2024.1.4,MacIntel,60.24096386,,,,,,,,,,,,,,120,mauja,,,,,,147.0667,148.9653,0,1,1.3533,,0,71,71,119,1,pseudoword,0,REAL,FALSA
,,,,,,,,,63ba24688ddfd5e20503907d,001,2025-04-30_16h43.57.737,empathy_intonation_perc,2024.1.4,MacIntel,60.24096386,,,,,,,,,,,,,,178,inichó,,,,,,148.9656,150.2673,0,1,0.7872,,0,72,72,177,1,pseudoword,0,REAL,FALSA
,,,,,,,,,63ba24688ddfd5e20503907d,001,2025-04-30_16h43.57.737,empathy_intonation_perc,2024.1.4,MacIntel,60.24096386,,,,,,,,,,,,,,167,dobbo,,,,,,150.2677,151.3654,0,1,0.5441,,0,73,73,166,1,pseudoword,0,REAL,FALSA
,,,,,,,,,63ba24688ddfd5e20503907d,001,2025-04-30_16h43.57.737,empathy_intonation_perc,2024.1.4,MacIntel,60.24096386,,,,,,,,,,,,,,46,mortal,,,,,,151.3657,152.8998,1,0,1.0187,,0,74,74,45,1,two_way_cognate,1,REAL,FALSA
,,,,,,,,,63ba24688ddfd5e20503907d,001,2025-04-30_16h43.57.737,empathy_intonation_perc,2024.1.4,MacIntel,60.24096386,,,,,,,,,,,,,,126,tobre,,,,,,152.9002,154.1496,0,1,0.7035,,0,75,75,125,1,pseudoword,0,REAL,FALSA
,,,,,,,,,63ba24688ddfd5e20503907d,001,2025-04-30_16h43.57.737,empathy_intonation_perc,2024.1.4,MacIntel,60.24096386,,,,,,,,,,,,,,119,esís,,,,,,154.1499,157.582,0,1,2.8846,,0,76,76,118,1,pseudoword,0,REAL,FALSA
,,,,,,,,,63ba24688ddfd5e20503907d,001,2025-04-30_16h43.57.737,empathy_intonation_perc,2024.1.4,MacIntel,60.24096386,,,,,,,,,,,,,,105,peniz,,,,,,157.5822,158.8166,0,1,0.7039,,0,77,77,104,1,pseudoword,0,REAL,FALSA
,,,,,,,,,63ba24688ddfd5e20503907d,001,2025-04-30_16h43.57.737,empathy_intonation_perc,2024.1.4,MacIntel,60.24096386,,,,,,,,,,,,,,27,piano,,,,,,158.817,159.9669,1,0,0.605,,0,78,78,26,1,two_way_cognate,1,REAL,FALSA
,,,,,,,,,63ba24688ddfd5e20503907d,001,2025-04-30_16h43.57.737,empathy_intonation_perc,2024.1.4,MacIntel,60.24096386,,,,,,,,,,,,,,121,barbs,,,,,,159.9673,161.2495,1,0,0.7377,,0,79,79,120,1,pseudoword,0,REAL,FALSA
,,,,,,,,,63ba24688ddfd5e20503907d,001,2025-04-30_16h43.57.737,empathy_intonation_perc,2024.1.4,MacIntel,60.24096386,,,,,,,,,,,,,,7,albino,,,,,,161.2497,162.333,1,0,0.5376,,0,80,80,6,1,three_way_cognate,1,REAL,FALSA
,,,,,,,,,63ba24688ddfd5e20503907d,001,2025-04-30_16h43.57.737,empathy_intonation_perc,2024.1.4,MacIntel,60.24096386,,,,,,,,,,,,,,114,dibrea,,,,,,162.3334,163.5834,1,0,0.7043,,0,81,81,113,1,pseudoword,0,REAL,FALSA
,,,,,,,,,63ba24688ddfd5e20503907d,001,2025-04-30_16h43.57.737,empathy_intonation_perc,2024.1.4,MacIntel,60.24096386,,,,,,,,,,,,,,189,medium,,,,,,163.5838,164.4154,1,0,0.2785,,0,82,82,188,1,pseudoword,0,REAL,FALSA
,,,,,,,,,63ba24688ddfd5e20503907d,001,2025-04-30_16h43.57.737,empathy_intonation_perc,2024.1.4,MacIntel,60.24096386,,,,,,,,,,,,,,150,cricó,,,,,,164.4157,165.6829,0,1,0.7536,,0,83,83,149,1,pseudoword,0,REAL,FALSA
,,,,,,,,,63ba24688ddfd5e20503907d,001,2025-04-30_16h43.57.737,empathy_intonation_perc,2024.1.4,MacIntel,60.24096386,,,,,,,,,,,,,,172,dogue,,,,,,165.6834,166.6829,0,1,0.4536,,0,84,84,171,1,pseudoword,0,REAL,FALSA
,,,,,,,,,63ba24688ddfd5e20503907d,001,2025-04-30_16h43.57.737,empathy_intonation_perc,2024.1.4,MacIntel,60.24096386,,,,,,,,,,,,,,106,diebro,,,,,,166.6833,167.5997,1,0,0.371,,0,85,85,105,1,pseudoword,0,REAL,FALSA
,,,,,,,,,63ba24688ddfd5e20503907d,001,2025-04-30_16h43.57.737,empathy_intonation_perc,2024.1.4,MacIntel,60.24096386,,,,,,,,,,,,,,173,mibro,,,,,,167.6001,168.4821,0,1,0.3362,,0,86,86,172,1,pseudoword,0,REAL,FALSA
,,,,,,,,,63ba24688ddfd5e20503907d,001,2025-04-30_16h43.57.737,empathy_intonation_perc,2024.1.4,MacIntel,60.24096386,,,,,,,,,,,,,,65,guerra,,,,,,168.4824,169.0993,0,1,0.0998,,0,87,87,64,1,non_cognate,1,REAL,FALSA
,,,,,,,,,63ba24688ddfd5e20503907d,001,2025-04-30_16h43.57.737,empathy_intonation_perc,2024.1.4,MacIntel,60.24096386,,,,,,,,,,,,,,102,coyo,,,,,,169.0996,169.733,1,0,0.0942,,0,88,88,101,1,pseudoword,0,REAL,FALSA
,,,,,,,,,63ba24688ddfd5e20503907d,001,2025-04-30_16h43.57.737,empathy_intonation_perc,2024.1.4,MacIntel,60.24096386,,,,,,,,,,,,,,6,horror,,,,,,169.7333,170.5988,0,1,0.3114,,0,89,89,5,1,three_way_cognate,1,REAL,FALSA
,,,,,,,,,63ba24688ddfd5e20503907d,001,2025-04-30_16h43.57.737,empathy_intonation_perc,2024.1.4,MacIntel,60.24096386,,,,,,,,,,,,,,80,cuenco,,,,,,170.5991,171.2321,1,0,0.0959,,0,90,90,79,1,non_cognate,1,REAL,FALSA
,,,,,,,,,63ba24688ddfd5e20503907d,001,2025-04-30_16h43.57.737,empathy_intonation_perc,2024.1.4,MacIntel,60.24096386,,,,,,,,,,,,,,181,gravés,,,,,,171.2324,172.4835,1,0,0.7203,,0,91,91,180,1,pseudoword,0,REAL,FALSA
,,,,,,,,,63ba24688ddfd5e20503907d,001,2025-04-30_16h43.57.737,empathy_intonation_perc,2024.1.4,MacIntel,60.24096386,,,,,,,,,,,,,,168,cobén,,,,,,172.4838,173.6494,1,0,0.6172,,0,92,92,167,1,pseudoword,0,REAL,FALSA
,,,,,,,,,63ba24688ddfd5e20503907d,001,2025-04-30_16h43.57.737,empathy_intonation_perc,2024.1.4,MacIntel,60.24096386,,,,,,,,,,,,,,135,panté,,,,,,173.6497,174.6487,1,0,0.4616,,0,93,93,134,1,pseudoword,0,REAL,FALSA
,,,,,,,,,63ba24688ddfd5e20503907d,001,2025-04-30_16h43.57.737,empathy_intonation_perc,2024.1.4,MacIntel,60.24096386,,,,,,,,,,,,,,38,halo,,,,,,174.649,175.8654,1,0,0.6943,,0,94,94,37,1,two_way_cognate,1,REAL,FALSA
,,,,,,,,,63ba24688ddfd5e20503907d,001,2025-04-30_16h43.57.737,empathy_intonation_perc,2024.1.4,MacIntel,60.24096386,,,,,,,,,,,,,,124,lobe,,,,,,175.8657,176.9817,0,1,0.5655,,0,95,95,123,1,pseudoword,0,REAL,FALSA
,,,,,,,,,63ba24688ddfd5e20503907d,001,2025-04-30_16h43.57.737,empathy_intonation_perc,2024.1.4,MacIntel,60.24096386,,,,,,,,,,,,,,21,hotel,,,,,,176.982,178.0827,1,0,0.5868,,0,96,96,20,1,three_way_cognate,1,REAL,FALSA
,,,,,,,,,63ba24688ddfd5e20503907d,001,2025-04-30_16h43.57.737,empathy_intonation_perc,2024.1.4,MacIntel,60.24096386,,,,,,,,,,,,,,16,chat,,,,,,178.0831,179.1163,1,0,0.4834,,0,97,97,15,1,three_way_cognate,1,REAL,FALSA
,,,,,,,,,63ba24688ddfd5e20503907d,001,2025-04-30_16h43.57.737,empathy_intonation_perc,2024.1.4,MacIntel,60.24096386,,,,,,,,,,,,,,110,densó,,,,,,179.1167,180.4322,0,1,0.771,,0,98,98,109,1,pseudoword,0,REAL,FALSA
,,,,,,,,,63ba24688ddfd5e20503907d,001,2025-04-30_16h43.57.737,empathy_intonation_perc,2024.1.4,MacIntel,60.24096386,,,,,,,,,,,,,,34,actor,,,,,,180.4326,181.483,1,0,0.5068,,0,99,99,33,1,two_way_cognate,1,REAL,FALSA
,,,,,,,,,63ba24688ddfd5e20503907d,001,2025-04-30_16h43.57.737,empathy_intonation_perc,2024.1.4,MacIntel,60.24096386,,,,,,,,,,,,,,84,aviso,,,,,,181.4834,182.7161,0,1,0.6866,,0,100,100,83,1,non_cognate,1,REAL,FALSA
,,,,,,,,,63ba24688ddfd5e20503907d,001,2025-04-30_16h43.57.737,empathy_intonation_perc,2024.1.4,MacIntel,60.24096386,,,,,,,,,,,,,,192,próces,,,,,,182.7165,183.9326,0,1,0.6712,,0,101,101,191,1,pseudoword,0,REAL,FALSA
,,,,,,,,,63ba24688ddfd5e20503907d,001,2025-04-30_16h43.57.737,empathy_intonation_perc,2024.1.4,MacIntel,60.24096386,,,,,,,,,,,,,,67,llamar,,,,,,183.933,185.0489,0,1,0.5709,,0,102,102,66,1,non_cognate,1,REAL,FALSA
,,,,,,,,,63ba24688ddfd5e20503907d,001,2025-04-30_16h43.57.737,empathy_intonation_perc,2024.1.4,MacIntel,60.24096386,,,,,,,,,,,,,,64,rizado,,,,,,185.0492,186.1326,0,1,0.5284,,0,103,103,63,1,non_cognate,1,REAL,FALSA
,,,,,,,,,63ba24688ddfd5e20503907d,001,2025-04-30_16h43.57.737,empathy_intonation_perc,2024.1.4,MacIntel,60.24096386,,,,,,,,,,,,,,11,golf,,,,,,186.1329,187.2157,1,0,0.5533,,0,104,104,10,1,three_way_cognate,1,REAL,FALSA
,,,,,,,,,63ba24688ddfd5e20503907d,001,2025-04-30_16h43.57.737,empathy_intonation_perc,2024.1.4,MacIntel,60.24096386,,,,,,,,,,,,,,143,hurcos,,,,,,187.2161,188.5326,0,1,0.7706,,0,105,105,142,1,pseudoword,0,REAL,FALSA
,,,,,,,,,63ba24688ddfd5e20503907d,001,2025-04-30_16h43.57.737,empathy_intonation_perc,2024.1.4,MacIntel,60.24096386,,,,,,,,,,,,,,35,aurora,,,,,,188.5329,189.6815,0,1,0.6028,,0,106,106,34,1,two_way_cognate,1,REAL,FALSA
,,,,,,,,,63ba24688ddfd5e20503907d,001,2025-04-30_16h43.57.737,empathy_intonation_perc,2024.1.4,MacIntel,60.24096386,,,,,,,,,,,,,,139,sasos,,,,,,189.6817,190.9653,0,1,0.7709,,0,107,107,138,1,pseudoword,0,REAL,FALSA
,,,,,,,,,63ba24688ddfd5e20503907d,001,2025-04-30_16h43.57.737,empathy_intonation_perc,2024.1.4,MacIntel,60.24096386,,,,,,,,,,,,,,142,parre,,,,,,190.9655,191.9155,0,1,0.4118,,0,108,108,141,1,pseudoword,0,REAL,FALSA
,,,,,,,,,63ba24688ddfd5e20503907d,001,2025-04-30_16h43.57.737,empathy_intonation_perc,2024.1.4,MacIntel,60.24096386,,,,,,,,,,,,,,44,editor,,,,,,191.9159,193.866,1,0,1.4049,,0,109,109,43,1,two_way_cognate,1,REAL,FALSA
,,,,,,,,,63ba24688ddfd5e20503907d,001,2025-04-30_16h43.57.737,empathy_intonation_perc,2024.1.4,MacIntel,60.24096386,,,,,,,,,,,,,,185,aljizo,,,,,,193.8665,194.6823,1,0,0.271,,0,110,110,184,1,pseudoword,0,REAL,FALSA
,,,,,,,,,63ba24688ddfd5e20503907d,001,2025-04-30_16h43.57.737,empathy_intonation_perc,2024.1.4,MacIntel,60.24096386,,,,,,,,,,,,,,51,listo,,,,,,194.6827,195.316,0,1,0.0871,,0,111,111,50,1,non_cognate,1,REAL,FALSA
,,,,,,,,,63ba24688ddfd5e20503907d,001,2025-04-30_16h43.57.737,empathy_intonation_perc,2024.1.4,MacIntel,60.24096386,,,,,,,,,,,,,,104,estulo,,,,,,195.3165,195.9825,1,0,0.1153,,0,112,112,103,1,pseudoword,0,REAL,FALSA
,,,,,,,,,63ba24688ddfd5e20503907d,001,2025-04-30_16h43.57.737,empathy_intonation_perc,2024.1.4,MacIntel,60.24096386,,,,,,,,,,,,,,86,cuenco,,,,,,195.9827,196.999,1,0,0.4611,,0,113,113,85,1,non_cognate,1,REAL,FALSA
,,,,,,,,,63ba24688ddfd5e20503907d,001,2025-04-30_16h43.57.737,empathy_intonation_perc,2024.1.4,MacIntel,60.24096386,,,,,,,,,,,,,,155,kugis,,,,,,196.9994,198.4163,0,1,0.8873,,0,114,114,154,1,pseudoword,0,REAL,FALSA
,,,,,,,,,63ba24688ddfd5e20503907d,001,2025-04-30_16h43.57.737,empathy_intonation_perc,2024.1.4,MacIntel,60.24096386,,,,,,,,,,,,,,166,anfia,,,,,,198.4168,199.4161,0,1,0.4543,,0,115,115,165,1,pseudoword,0,REAL,FALSA
,,,,,,,,,63ba24688ddfd5e20503907d,001,2025-04-30_16h43.57.737,empathy_intonation_perc,2024.1.4,MacIntel,60.24096386,,,,,,,,,,,,,,91,equipo,,,,,,199.4166,200.6155,1,0,0.6503,,0,116,116,90,1,non_cognate,1,REAL,FALSA
,,,,,,,,,63ba24688ddfd5e20503907d,001,2025-04-30_16h43.57.737,empathy_intonation_perc,2024.1.4,MacIntel,60.24096386,,,,,,,,,,,,,,77,suave,,,,,,200.6158,201.9155,1,0,0.7656,,0,117,117,76,1,non_cognate,1,REAL,FALSA
,,,,,,,,,63ba24688ddfd5e20503907d,001,2025-04-30_16h43.57.737,empathy_intonation_perc,2024.1.4,MacIntel,60.24096386,,,,,,,,,,,,,,24,retina,,,,,,201.9159,203.0323,1,0,0.563,,0,118,118,23,1,three_way_cognate,1,REAL,FALSA
,,,,,,,,,63ba24688ddfd5e20503907d,001,2025-04-30_16h43.57.737,empathy_intonation_perc,2024.1.4,MacIntel,60.24096386,,,,,,,,,,,,,,12,dogma,,,,,,203.0327,204.6817,0,1,1.1173,,0,119,119,11,1,three_way_cognate,1,REAL,FALSA
,,,,,,,,,63ba24688ddfd5e20503907d,001,2025-04-30_16h43.57.737,empathy_intonation_perc,2024.1.4,MacIntel,60.24096386,,,,,,,,,,,,,,3,disco,,,,,,204.682,205.9815,1,0,0.7444,,0,120,120,2,1,three_way_cognate,1,REAL,FALSA
,,,,,,,,,63ba24688ddfd5e20503907d,001,2025-04-30_16h43.57.737,empathy_intonation_perc,2024.1.4,MacIntel,60.24096386,,,,,,,,,,,,,,55,maldad,,,,,,205.9818,207.3989,0,1,0.8914,,0,121,121,54,1,non_cognate,1,REAL,FALSA
,,,,,,,,,63ba24688ddfd5e20503907d,001,2025-04-30_16h43.57.737,empathy_intonation_perc,2024.1.4,MacIntel,60.24096386,,,,,,,,,,,,,,138,tator,,,,,,207.3993,208.6485,1,0,0.7075,,0,122,122,137,1,pseudoword,0,REAL,FALSA
,,,,,,,,,63ba24688ddfd5e20503907d,001,2025-04-30_16h43.57.737,empathy_intonation_perc,2024.1.4,MacIntel,60.24096386,,,,,,,,,,,,,,109,laras,,,,,,208.6488,209.9325,0,1,0.7382,,0,123,123,108,1,pseudoword,0,REAL,FALSA
,,,,,,,,,63ba24688ddfd5e20503907d,001,2025-04-30_16h43.57.737,empathy_intonation_perc,2024.1.4,MacIntel,60.24096386,,,,,,,,,,,,,,191,frasis,,,,,,209.9329,211.0983,0,1,0.6116,,0,124,124,190,1,pseudoword,0,REAL,FALSA
,,,,,,,,,63ba24688ddfd5e20503907d,001,2025-04-30_16h43.57.737,empathy_intonation_perc,2024.1.4,MacIntel,60.24096386,,,,,,,,,,,,,,175,tradía,,,,,,211.0986,212.1824,0,1,0.5381,,0,125,125,174,1,pseudoword,0,REAL,FALSA
,,,,,,,,,63ba24688ddfd5e20503907d,001,2025-04-30_16h43.57.737,empathy_intonation_perc,2024.1.4,MacIntel,60.24096386,,,,,,,,,,,,,,81,sacar,,,,,,212.1827,213.3823,1,0,0.6533,,0,126,126,80,1,non_cognate,1,REAL,FALSA
,,,,,,,,,63ba24688ddfd5e20503907d,001,2025-04-30_16h43.57.737,empathy_intonation_perc,2024.1.4,MacIntel,60.24096386,,,,,,,,,,,,,,133,conso,,,,,,213.3826,214.665,1,0,0.7324,,0,127,127,132,1,pseudoword,0,REAL,FALSA
,,,,,,,,,63ba24688ddfd5e20503907d,001,2025-04-30_16h43.57.737,empathy_intonation_perc,2024.1.4,MacIntel,60.24096386,,,,,,,,,,,,,,23,plural,,,,,,214.6653,215.9157,1,0,0.7044,,0,128,128,22,1,three_way_cognate,1,REAL,FALSA
,,,,,,,,,63ba24688ddfd5e20503907d,001,2025-04-30_16h43.57.737,empathy_intonation_perc,2024.1.4,MacIntel,60.24096386,,,,,,,,,,,,,,147,alla,,,,,,215.9161,217.2319,0,1,0.7712,,0,129,129,146,1,pseudoword,0,REAL,FALSA
,,,,,,,,,63ba24688ddfd5e20503907d,001,2025-04-30_16h43.57.737,empathy_intonation_perc,2024.1.4,MacIntel,60.24096386,,,,,,,,,,,,,,5,extra,,,,,,217.2323,218.3158,1,0,0.5382,,0,130,130,4,1,three_way_cognate,1,REAL,FALSA
,,,,,,,,,63ba24688ddfd5e20503907d,001,2025-04-30_16h43.57.737,empathy_intonation_perc,2024.1.4,MacIntel,60.24096386,,,,,,,,,,,,,,169,pitis,,,,,,218.3162,219.4155,0,1,0.5447,,0,131,131,168,1,pseudoword,0,REAL,FALSA
,,,,,,,,,63ba24688ddfd5e20503907d,001,2025-04-30_16h43.57.737,empathy_intonation_perc,2024.1.4,MacIntel,60.24096386,,,,,,,,,,,,,,93,tapa,,,,,,219.4158,220.6147,1,0,0.6609,,0,132,132,92,1,non_cognate,1,REAL,FALSA
,,,,,,,,,63ba24688ddfd5e20503907d,001,2025-04-30_16h43.57.737,empathy_intonation_perc,2024.1.4,MacIntel,60.24096386,,,,,,,,,,,,,,177,entodo,,,,,,220.615,221.8154,0,1,0.6616,,0,133,133,176,1,pseudoword,0,REAL,FALSA
,,,,,,,,,63ba24688ddfd5e20503907d,001,2025-04-30_16h43.57.737,empathy_intonation_perc,2024.1.4,MacIntel,60.24096386,,,,,,,,,,,,,,161,civas,,,,,,221.8158,223.2981,1,0,0.9517,,0,134,134,160,1,pseudoword,0,REAL,FALSA
,,,,,,,,,63ba24688ddfd5e20503907d,001,2025-04-30_16h43.57.737,empathy_intonation_perc,2024.1.4,MacIntel,60.24096386,,,,,,,,,,,,,,50,sierra,,,,,,223.2984,224.7655,1,0,0.9169,,0,135,135,49,1,non_cognate,1,REAL,FALSA
,,,,,,,,,63ba24688ddfd5e20503907d,001,2025-04-30_16h43.57.737,empathy_intonation_perc,2024.1.4,MacIntel,60.24096386,,,,,,,,,,,,,,17,clan,,,,,,224.7658,226.2489,1,0,0.9534,,0,136,136,16,1,three_way_cognate,1,REAL,FALSA
,,,,,,,,,63ba24688ddfd5e20503907d,001,2025-04-30_16h43.57.737,empathy_intonation_perc,2024.1.4,MacIntel,60.24096386,,,,,,,,,,,,,,151,prías,,,,,,226.2493,227.632,0,1,0.8368,,0,137,137,150,1,pseudoword,0,REAL,FALSA
,,,,,,,,,63ba24688ddfd5e20503907d,001,2025-04-30_16h43.57.737,empathy_intonation_perc,2024.1.4,MacIntel,60.24096386,,,,,,,,,,,,,,29,clamor,,,,,,227.6324,228.9487,0,1,0.7713,,0,138,138,28,1,two_way_cognate,1,REAL,FALSA
,,,,,,,,,63ba24688ddfd5e20503907d,001,2025-04-30_16h43.57.737,empathy_intonation_perc,2024.1.4,MacIntel,60.24096386,,,,,,,,,,,,,,165,chote,,,,,,228.9489,230.0149,0,1,0.5187,,0,139,139,164,1,pseudoword,0,REAL,FALSA
,,,,,,,,,63ba24688ddfd5e20503907d,001,2025-04-30_16h43.57.737,empathy_intonation_perc,2024.1.4,MacIntel,60.24096386,,,,,,,,,,,,,,72,rostro,,,,,,230.0152,230.7327,0,1,0.1718,,0,140,140,71,1,non_cognate,1,REAL,FALSA
,,,,,,,,,63ba24688ddfd5e20503907d,001,2025-04-30_16h43.57.737,empathy_intonation_perc,2024.1.4,MacIntel,60.24096386,,,,,,,,,,,,,,14,aura,,,,,,230.7331,231.2778,0,1,0.0005,,0,141,141,13,1,three_way_cognate,1,REAL,FALSA
,,,,,,,,,63ba24688ddfd5e20503907d,001,2025-04-30_16h43.57.737,empathy_intonation_perc,2024.1.4,MacIntel,60.24096386,,,,,,,,,,,,,,116,grigir,,,,,,231.2782,231.7982,0,1,0.0004,,0,142,142,115,1,pseudoword,0,REAL,FALSA
,,,,,,,,,63ba24688ddfd5e20503907d,001,2025-04-30_16h43.57.737,empathy_intonation_perc,2024.1.4,MacIntel,60.24096386,,,,,,,,,,,,,,101,losco,,,,,,231.7985,232.982,1,0,0.6378,,0,143,143,100,1,pseudoword,0,REAL,FALSA
,,,,,,,,,63ba24688ddfd5e20503907d,001,2025-04-30_16h43.57.737,empathy_intonation_perc,2024.1.4,MacIntel,60.24096386,,,,,,,,,,,,,,79,suelo,,,,,,232.9824,235.0479,0,1,1.5124,,0,144,144,78,1,non_cognate,1,REAL,FALSA
,,,,,,,,,63ba24688ddfd5e20503907d,001,2025-04-30_16h43.57.737,empathy_intonation_perc,2024.1.4,MacIntel,60.24096386,,,,,,,,,,,,,,8,kilo,,,,,,235.0482,236.332,1,0,0.7276,,0,145,145,7,1,three_way_cognate,1,REAL,FALSA
,,,,,,,,,63ba24688ddfd5e20503907d,001,2025-04-30_16h43.57.737,empathy_intonation_perc,2024.1.4,MacIntel,60.24096386,,,,,,,,,,,,,,57,regalo,,,,,,236.3323,237.615,1,0,0.7544,,0,146,146,56,1,non_cognate,1,REAL,FALSA
,,,,,,,,,63ba24688ddfd5e20503907d,001,2025-04-30_16h43.57.737,empathy_intonation_perc,2024.1.4,MacIntel,60.24096386,,,,,,,,,,,,,,188,amplir,,,,,,237.6154,238.7979,0,1,0.6387,,0,147,147,187,1,pseudoword,0,REAL,FALSA
,,,,,,,,,63ba24688ddfd5e20503907d,001,2025-04-30_16h43.57.737,empathy_intonation_perc,2024.1.4,MacIntel,60.24096386,,,,,,,,,,,,,,136,hueas,,,,,,238.7983,240.0323,0,1,0.7228,,0,148,148,135,1,pseudoword,0,REAL,FALSA
,,,,,,,,,63ba24688ddfd5e20503907d,001,2025-04-30_16h43.57.737,empathy_intonation_perc,2024.1.4,MacIntel,60.24096386,,,,,,,,,,,,,,28,ardor,,,,,,240.0327,241.0815,0,1,0.5042,,0,149,149,27,1,two_way_cognate,1,REAL,FALSA
,,,,,,,,,63ba24688ddfd5e20503907d,001,2025-04-30_16h43.57.737,empathy_intonation_perc,2024.1.4,MacIntel,60.24096386,,,,,,,,,,,,,,122,boñaz,,,,,,241.0818,242.2312,0,1,0.6297,,0,150,150,121,1,pseudoword,0,REAL,FALSA
,,,,,,,,,63ba24688ddfd5e20503907d,001,2025-04-30_16h43.57.737,empathy_intonation_perc,2024.1.4,MacIntel,60.24096386,,,,,,,,,,,,,,131,fuar,,,,,,242.2316,243.3481,0,1,0.5707,,0,151,151,130,1,pseudoword,0,REAL,FALSA
,,,,,,,,,63ba24688ddfd5e20503907d,001,2025-04-30_16h43.57.737,empathy_intonation_perc,2024.1.4,MacIntel,60.24096386,,,,,,,,,,,,,,60,siglo,,,,,,243.3485,244.3812,0,1,0.4801,,0,152,152,59,1,non_cognate,1,REAL,FALSA
,,,,,,,,,63ba24688ddfd5e20503907d,001,2025-04-30_16h43.57.737,empathy_intonation_perc,2024.1.4,MacIntel,60.24096386,,,,,,,,,,,,,,153,golla,,,,,,244.3815,245.7312,0,1,0.8206,,0,153,153,152,1,pseudoword,0,REAL,FALSA
,,,,,,,,,63ba24688ddfd5e20503907d,001,2025-04-30_16h43.57.737,empathy_intonation_perc,2024.1.4,MacIntel,60.24096386,,,,,,,,,,,,,,160,fomeó,,,,,,245.7314,247.1484,0,1,0.8952,,0,154,154,159,1,pseudoword,0,REAL,FALSA
,,,,,,,,,63ba24688ddfd5e20503907d,001,2025-04-30_16h43.57.737,empathy_intonation_perc,2024.1.4,MacIntel,60.24096386,,,,,,,,,,,,,,144,diroco,,,,,,247.1487,248.4476,0,1,0.7619,,0,155,155,143,1,pseudoword,0,REAL,FALSA
,,,,,,,,,63ba24688ddfd5e20503907d,001,2025-04-30_16h43.57.737,empathy_intonation_perc,2024.1.4,MacIntel,60.24096386,,,,,,,,,,,,,,85,enorme,,,,,,248.4479,249.6477,0,1,0.6652,,0,156,156,84,1,non_cognate,1,REAL,FALSA
,,,,,,,,,63ba24688ddfd5e20503907d,001,2025-04-30_16h43.57.737,empathy_intonation_perc,2024.1.4,MacIntel,60.24096386,,,,,,,,,,,,,,33,collar,,,,,,249.648,250.6321,1,0,0.4547,,0,157,157,32,1,two_way_cognate,1,REAL,FALSA
,,,,,,,,,63ba24688ddfd5e20503907d,001,2025-04-30_16h43.57.737,empathy_intonation_perc,2024.1.4,MacIntel,60.24096386,,,,,,,,,,,,,,134,molor,,,,,,250.6325,251.5808,1,0,0.4027,,0,158,158,133,1,pseudoword,0,REAL,FALSA
,,,,,,,,,63ba24688ddfd5e20503907d,001,2025-04-30_16h43.57.737,empathy_intonation_perc,2024.1.4,MacIntel,60.24096386,,,,,,,,,,,,,,26,enigma,,,,,,251.581,252.3149,0,1,0.2203,,0,159,159,25,1,two_way_cognate,1,REAL,FALSA
,,,,,,,,,63ba24688ddfd5e20503907d,001,2025-04-30_16h43.57.737,empathy_intonation_perc,2024.1.4,MacIntel,60.24096386,,,,,,,,,,,,,,140,chorde,,,,,,252.3153,253.0976,0,1,0.2361,,0,160,160,139,1,pseudoword,0,REAL,FALSA
,,,,,,,,,63ba24688ddfd5e20503907d,001,2025-04-30_16h43.57.737,empathy_intonation_perc,2024.1.4,MacIntel,60.24096386,,,,,,,,,,,,,,115,lidena,,,,,,253.0979,253.7144,0,1,0.0944,,0,161,161,114,1,pseudoword,0,REAL,FALSA
,,,,,,,,,63ba24688ddfd5e20503907d,001,2025-04-30_16h43.57.737,empathy_intonation_perc,2024.1.4,MacIntel,60.24096386,,,,,,,,,,,,,,128,pelí,,,,,,253.7147,254.2981,1,0,0.0671,,0,162,162,127,1,pseudoword,0,REAL,FALSA
,,,,,,,,,63ba24688ddfd5e20503907d,001,2025-04-30_16h43.57.737,empathy_intonation_perc,2024.1.4,MacIntel,60.24096386,,,,,,,,,,,,,,42,rumor,,,,,,254.2984,254.8433,0,1,0.0005,,0,163,163,41,1,two_way_cognate,1,REAL,FALSA
,,,,,,,,,63ba24688ddfd5e20503907d,001,2025-04-30_16h43.57.737,empathy_intonation_perc,2024.1.4,MacIntel,60.24096386,,,,,,,,,,,,,,48,pelvis,,,,,,254.8436,255.3809,1,0,0.0203,,0,164,164,47,1,two_way_cognate,1,REAL,FALSA
,,,,,,,,,63ba24688ddfd5e20503907d,001,2025-04-30_16h43.57.737,empathy_intonation_perc,2024.1.4,MacIntel,60.24096386,,,,,,,,,,,,,,182,desaro,,,,,,255.3814,255.9285,0,1,0.0006,,0,165,165,181,1,pseudoword,0,REAL,FALSA
,,,,,,,,,63ba24688ddfd5e20503907d,001,2025-04-30_16h43.57.737,empathy_intonation_perc,2024.1.4,MacIntel,60.24096386,,,,,,,,,,,,,,49,teñir,,,,,,255.9289,256.5142,0,1,0.0655,,0,166,166,48,1,non_cognate,1,REAL,FALSA
,,,,,,,,,63ba24688ddfd5e20503907d,001,2025-04-30_16h43.57.737,empathy_intonation_perc,2024.1.4,MacIntel,60.24096386,,,,,,,,,,,,,,83,hálito,,,,,,256.5146,263.2483,0,1,6.1963,,0,167,167,82,1,non_cognate,1,REAL,FALSA
,,,,,,,,,63ba24688ddfd5e20503907d,001,2025-04-30_16h43.57.737,empathy_intonation_perc,2024.1.4,MacIntel,60.24096386,,,,,,,,,,,,,,170,diabo,,,,,,263.2486,264.4651,1,0,0.6691,,0,168,168,169,1,pseudoword,0,REAL,FALSA
,,,,,,,,,63ba24688ddfd5e20503907d,001,2025-04-30_16h43.57.737,empathy_intonation_perc,2024.1.4,MacIntel,60.24096386,,,,,,,,,,,,,,108,jauda,,,,,,264.4654,265.5982,0,1,0.5884,,0,169,169,107,1,pseudoword,0,REAL,FALSA
,,,,,,,,,63ba24688ddfd5e20503907d,001,2025-04-30_16h43.57.737,empathy_intonation_perc,2024.1.4,MacIntel,60.24096386,,,,,,,,,,,,,,43,honor,,,,,,265.5986,266.7978,1,0,0.6467,,0,170,170,42,1,two_way_cognate,1,REAL,FALSA
,,,,,,,,,63ba24688ddfd5e20503907d,001,2025-04-30_16h43.57.737,empathy_intonation_perc,2024.1.4,MacIntel,60.24096386,,,,,,,,,,,,,,103,vueras,,,,,,266.7984,267.9308,0,1,0.5814,,0,171,171,102,1,pseudoword,0,REAL,FALSA
,,,,,,,,,63ba24688ddfd5e20503907d,001,2025-04-30_16h43.57.737,empathy_intonation_perc,2024.1.4,MacIntel,60.24096386,,,,,,,,,,,,,,159,trcia,,,,,,267.9313,269.1645,0,1,0.6807,,0,172,172,158,1,pseudoword,0,REAL,FALSA
,,,,,,,,,63ba24688ddfd5e20503907d,001,2025-04-30_16h43.57.737,empathy_intonation_perc,2024.1.4,MacIntel,60.24096386,,,,,,,,,,,,,,107,plago,,,,,,269.1651,270.4483,0,1,0.7388,,0,173,173,106,1,pseudoword,0,REAL,FALSA
,,,,,,,,,63ba24688ddfd5e20503907d,001,2025-04-30_16h43.57.737,empathy_intonation_perc,2024.1.4,MacIntel,60.24096386,,,,,,,,,,,,,,184,huenos,,,,,,270.4488,271.7649,0,1,0.7718,,0,174,174,183,1,pseudoword,0,REAL,FALSA
,,,,,,,,,63ba24688ddfd5e20503907d,001,2025-04-30_16h43.57.737,empathy_intonation_perc,2024.1.4,MacIntel,60.24096386,,,,,,,,,,,,,,157,seled,,,,,,271.7652,272.4471,0,1,0.1357,,0,175,175,156,1,pseudoword,0,REAL,FALSA
,,,,,,,,,63ba24688ddfd5e20503907d,001,2025-04-30_16h43.57.737,empathy_intonation_perc,2024.1.4,MacIntel,60.24096386,,,,,,,,,,,,,,45,total,,,,,,272.4475,273.2477,0,1,0.2594,,0,176,176,44,1,two_way_cognate,1,REAL,FALSA
,,,,,,,,,63ba24688ddfd5e20503907d,001,2025-04-30_16h43.57.737,empathy_intonation_perc,2024.1.4,MacIntel,60.24096386,,,,,,,,,,,,,,74,ala,,,,,,273.2483,273.8484,1,0,0.0651,,0,177,177,73,1,non_cognate,1,REAL,FALSA
,,,,,,,,,63ba24688ddfd5e20503907d,001,2025-04-30_16h43.57.737,empathy_intonation_perc,2024.1.4,MacIntel,60.24096386,,,,,,,,,,,,,,4,flora,,,,,,273.8487,274.3941,0,1,0.0006,,0,178,178,3,1,three_way_cognate,1,REAL,FALSA
,,,,,,,,,63ba24688ddfd5e20503907d,001,2025-04-30_16h43.57.737,empathy_intonation_perc,2024.1.4,MacIntel,60.24096386,,,,,,,,,,,,,,75,patada,,,,,,274.3945,274.9312,1,0,0.0195,,0,179,179,74,1,non_cognate,1,REAL,FALSA
,,,,,,,,,63ba24688ddfd5e20503907d,001,2025-04-30_16h43.57.737,empathy_intonation_perc,2024.1.4,MacIntel,60.24096386,,,,,,,,,,,,,,62,pegar,,,,,,274.9315,275.5817,1,0,0.1274,,0,180,180,61,1,non_cognate,1,REAL,FALSA
,,,,,,,,,63ba24688ddfd5e20503907d,001,2025-04-30_16h43.57.737,empathy_intonation_perc,2024.1.4,MacIntel,60.24096386,,,,,,,,,,,,,,25,vigor,,,,,,275.5821,276.2474,0,1,0.1151,,0,181,181,24,1,two_way_cognate,1,REAL,FALSA
,,,,,,,,,63ba24688ddfd5e20503907d,001,2025-04-30_16h43.57.737,empathy_intonation_perc,2024.1.4,MacIntel,60.24096386,,,,,,,,,,,,,,19,mafia,,,,,,276.2479,276.8007,0,1,0.0079,,0,182,182,18,1,three_way_cognate,1,REAL,FALSA
,,,,,,,,,63ba24688ddfd5e20503907d,001,2025-04-30_16h43.57.737,empathy_intonation_perc,2024.1.4,MacIntel,60.24096386,,,,,,,,,,,,,,163,llzan,,,,,,276.8009,277.3654,0,1,0.0191,,0,183,183,162,1,pseudoword,0,REAL,FALSA
,,,,,,,,,63ba24688ddfd5e20503907d,001,2025-04-30_16h43.57.737,empathy_intonation_perc,2024.1.4,MacIntel,60.24096386,,,,,,,,,,,,,,53,punta,,,,,,277.3659,277.9481,0,1,0.0457,,0,184,184,52,1,non_cognate,1,REAL,FALSA
,,,,,,,,,63ba24688ddfd5e20503907d,001,2025-04-30_16h43.57.737,empathy_intonation_perc,2024.1.4,MacIntel,60.24096386,,,,,,,,,,,,,,146,gió,,,,,,277.9484,278.5806,0,1,0.1023,,0,185,185,145,1,pseudoword,0,REAL,FALSA
,,,,,,,,,63ba24688ddfd5e20503907d,001,2025-04-30_16h43.57.737,empathy_intonation_perc,2024.1.4,MacIntel,60.24096386,,,,,,,,,,,,,,47,color,,,,,,278.5809,279.1806,0,1,0.0666,,0,186,186,46,1,two_way_cognate,1,REAL,FALSA
,,,,,,,,,63ba24688ddfd5e20503907d,001,2025-04-30_16h43.57.737,empathy_intonation_perc,2024.1.4,MacIntel,60.24096386,,,,,,,,,,,,,,59,feo,,,,,,279.181,279.8138,0,1,0.1003,,0,187,187,58,1,non_cognate,1,REAL,FALSA
,,,,,,,,,63ba24688ddfd5e20503907d,001,2025-04-30_16h43.57.737,empathy_intonation_perc,2024.1.4,MacIntel,60.24096386,,,,,,,,,,,,,,56,pico,,,,,,279.8141,280.3472,1,0,0.0005,,0,188,188,55,1,non_cognate,1,REAL,FALSA
,,,,,,,,,63ba24688ddfd5e20503907d,001,2025-04-30_16h43.57.737,empathy_intonation_perc,2024.1.4,MacIntel,60.24096386,,,,,,,,,,,,,,61,aduana,,,,,,280.3475,280.9146,1,0,0.0323,,0,189,189,60,1,non_cognate,1,REAL,FALSA
,,,,,,,,,63ba24688ddfd5e20503907d,001,2025-04-30_16h43.57.737,empathy_intonation_perc,2024.1.4,MacIntel,60.24096386,,,,,,,,,,,,,,58,colcha,,,,,,280.9148,281.598,1,0,0.1502,,0,190,190,57,1,non_cognate,1,REAL,FALSA
,,,,,,,,,63ba24688ddfd5e20503907d,001,2025-04-30_16h43.57.737,empathy_intonation_perc,2024.1.4,MacIntel,60.24096386,,,,,,,,,,,,,,10,drama,,,,,,281.5983,282.1478,1,0,0.0144,,0,191,191,9,1,three_way_cognate,1,REAL,FALSA
