lextale_instructions.started,lextale_instructions.stopped,lextale_instructions_loop.thisRepN,lextale_instructions_loop.thisTrialN,lextale_instructions_loop.thisN,lextale_instructions_loop.thisIndex,lextale_instructions_loop.ran,instructions_text,continue_text,participant,session,date,expName,psychopyVersion,OS,frameRate,lextale_practice.started,lextale_practice.stopped,key_resp_lextale_practice.keys,key_resp_lextale_practice.corr,key_resp_lextale_practice.rt,key_resp_lextale_practice.duration,lextale_practice_feedback.started,lextale_practice_feedback.stopped,lextale_practice_trials.thisRepN,lextale_practice_trials.thisTrialN,lextale_practice_trials.thisN,lextale_practice_trials.thisIndex,lextale_practice_trials.ran,stim,word,correct_response,prac_button_real,prac_button_false,lextale_check.started,lextale_check.stopped,lextale_trial.started,lextale_trial.stopped,key_resp_lextale_trial.keys,key_resp_lextale_trial.corr,key_resp_lextale_trial.rt,key_resp_lextale_trial.duration,lextail_trials.thisRepN,lextail_trials.thisTrialN,lextail_trials.thisN,lextail_trials.thisIndex,lextail_trials.ran,type,correct_reponse,button_real,button_false
0.003,8.091,0,0,0,0,1,"Este es un test de vocabulario en español. 
  
  A continuación vas a ver 90 secuencias de letras que parecen 'españolas'.
  
  Solo algunas de ellas son palabras de verdad.",(presiona la barra espaciadora para continuar),63eaa34e4d5bdf6b859a1149,001,2025-04-30_23h04.50.931,empathy_intonation_perc,2024.1.4,MacIntel,58.82352941,,,,,,,,,,,,,,,,,,,,,,,,,,,,,,,,,,,
8.091,18.757,0,1,1,1,1,"Por favor, señala las palabras que tú conoces (aquellas que estás convencido que son palabras españolas, incluso aunque no seas capaz de dar el significado preciso).",(presiona la barra espaciadora para continuar),63eaa34e4d5bdf6b859a1149,001,2025-04-30_23h04.50.931,empathy_intonation_perc,2024.1.4,MacIntel,58.82352941,,,,,,,,,,,,,,,,,,,,,,,,,,,,,,,,,,,
18.757,40.559,0,2,2,2,1,Pero cuidado: los errores se penalizan. Por eso no tiene sentido tratar de incrementar tu puntuación marcando como reales palabras que nunca has visto.,(presiona la barra espaciadora para continuar),63eaa34e4d5bdf6b859a1149,001,2025-04-30_23h04.50.931,empathy_intonation_perc,2024.1.4,MacIntel,58.82352941,,,,,,,,,,,,,,,,,,,,,,,,,,,,,,,,,,,
40.56,49.076,0,3,3,3,1,"Presiona la tecla 1 si piensas que es una palabra real y la tecla 
  0 si piensas que es una palabra falsa. 
  
  Vamos a practicar un poco...",(presiona la barra espaciadora para continuar),63eaa34e4d5bdf6b859a1149,001,2025-04-30_23h04.50.931,empathy_intonation_perc,2024.1.4,MacIntel,58.82352941,,,,,,,,,,,,,,,,,,,,,,,,,,,,,,,,,,,
,,,,,,,,,63eaa34e4d5bdf6b859a1149,001,2025-04-30_23h04.50.931,empathy_intonation_perc,2024.1.4,MacIntel,58.82352941,49.094,50.439,1,0,0.824,,50.439,51.455,0,0,0,0,1,0,depiste,0,REAL,FALSA,,,,,,,,,,,,,,,,,
,,,,,,,,,63eaa34e4d5bdf6b859a1149,001,2025-04-30_23h04.50.931,empathy_intonation_perc,2024.1.4,MacIntel,58.82352941,51.455,53.151,1,1,1.049,,53.151,54.142,0,1,1,1,1,0,sí,1,REAL,FALSA,,,,,,,,,,,,,,,,,
,,,,,,,,,63eaa34e4d5bdf6b859a1149,001,2025-04-30_23h04.50.931,empathy_intonation_perc,2024.1.4,MacIntel,58.82352941,54.143,56.926,0,1,2.253,,56.926,57.927,0,2,2,2,1,0,coné,0,REAL,FALSA,,,,,,,,,,,,,,,,,
,,,,,,,,,63eaa34e4d5bdf6b859a1149,001,2025-04-30_23h04.50.931,empathy_intonation_perc,2024.1.4,MacIntel,58.82352941,57.927,59.443,0,1,0.982,,59.444,60.442,0,3,3,3,1,0,calpar,0,REAL,FALSA,,,,,,,,,,,,,,,,,
,,,,,,,,,63eaa34e4d5bdf6b859a1149,001,2025-04-30_23h04.50.931,empathy_intonation_perc,2024.1.4,MacIntel,58.82352941,60.443,61.743,0,1,0.765,,61.743,62.743,0,4,4,4,1,0,joten,0,REAL,FALSA,,,,,,,,,,,,,,,,,
,,,,,,,,,63eaa34e4d5bdf6b859a1149,001,2025-04-30_23h04.50.931,empathy_intonation_perc,2024.1.4,MacIntel,58.82352941,62.744,64.426,0,0,1.146,,64.427,65.427,0,5,5,5,1,0,sacapuntas,1,REAL,FALSA,,,,,,,,,,,,,,,,,
,,,,,,,,,63eaa34e4d5bdf6b859a1149,001,2025-04-30_23h04.50.931,empathy_intonation_perc,2024.1.4,MacIntel,58.82352941,65.427,66.81,0,1,0.847,,66.81,67.809,0,6,6,6,1,0,priba,0,REAL,FALSA,,,,,,,,,,,,,,,,,
,,,,,,,,,63eaa34e4d5bdf6b859a1149,001,2025-04-30_23h04.50.931,empathy_intonation_perc,2024.1.4,MacIntel,58.82352941,67.81,69.393,0,1,1.068,,69.393,70.393,0,7,7,7,1,0,pelasula,0,REAL,FALSA,,,,,,,,,,,,,,,,,
,,,,,,,,,63eaa34e4d5bdf6b859a1149,001,2025-04-30_23h04.50.931,empathy_intonation_perc,2024.1.4,MacIntel,58.82352941,70.393,71.494,1,1,0.576,,71.494,72.493,0,8,8,8,1,0,bien,1,REAL,FALSA,,,,,,,,,,,,,,,,,
,,,,,,,,,63eaa34e4d5bdf6b859a1149,001,2025-04-30_23h04.50.931,empathy_intonation_perc,2024.1.4,MacIntel,58.82352941,72.494,73.66,1,1,0.631,,73.66,74.66,0,9,9,9,1,0,casa,1,REAL,FALSA,,,,,,,,,,,,,,,,,
,,,,,,,,,63eaa34e4d5bdf6b859a1149,001,2025-04-30_23h04.50.931,empathy_intonation_perc,2024.1.4,MacIntel,58.82352941,74.661,75.993,1,0,0.805,,75.993,76.994,0,10,10,10,1,0,lejo,0,REAL,FALSA,,,,,,,,,,,,,,,,,
,,,,,,,,,63eaa34e4d5bdf6b859a1149,001,2025-04-30_23h04.50.931,empathy_intonation_perc,2024.1.4,MacIntel,58.82352941,76.995,78.644,0,1,1.116,,78.644,79.643,0,11,11,11,1,0,pretantas,0,REAL,FALSA,,,,,,,,,,,,,,,,,
,,,,,,,,,63eaa34e4d5bdf6b859a1149,001,2025-04-30_23h04.50.931,empathy_intonation_perc,2024.1.4,MacIntel,58.82352941,,,,,,,,,,,,,,,,,,,79.645,85.86,,,,,,,,,,,,,,,
,,,,,,,,,63eaa34e4d5bdf6b859a1149,001,2025-04-30_23h04.50.931,empathy_intonation_perc,2024.1.4,MacIntel,58.82352941,,,,,,,,,,,,,,15,test,,,,,,85.874,87.761,1,0,1.365,,0,0,0,14,1,three_way_cognate,1,REAL,FALSA
,,,,,,,,,63eaa34e4d5bdf6b859a1149,001,2025-04-30_23h04.50.931,empathy_intonation_perc,2024.1.4,MacIntel,58.82352941,,,,,,,,,,,,,,155,kugis,,,,,,87.762,88.978,0,1,0.681,,0,1,1,154,1,pseudoword,0,REAL,FALSA
,,,,,,,,,63eaa34e4d5bdf6b859a1149,001,2025-04-30_23h04.50.931,empathy_intonation_perc,2024.1.4,MacIntel,58.82352941,,,,,,,,,,,,,,12,dogma,,,,,,88.978,90.645,0,1,1.138,,0,2,2,11,1,three_way_cognate,1,REAL,FALSA
,,,,,,,,,63eaa34e4d5bdf6b859a1149,001,2025-04-30_23h04.50.931,empathy_intonation_perc,2024.1.4,MacIntel,58.82352941,,,,,,,,,,,,,,72,rostro,,,,,,90.646,92.011,0,1,0.836,,0,3,3,71,1,non_cognate,1,REAL,FALSA
,,,,,,,,,63eaa34e4d5bdf6b859a1149,001,2025-04-30_23h04.50.931,empathy_intonation_perc,2024.1.4,MacIntel,58.82352941,,,,,,,,,,,,,,137,trugo,,,,,,92.012,93.161,0,1,0.613,,0,4,4,136,1,pseudoword,0,REAL,FALSA
,,,,,,,,,63eaa34e4d5bdf6b859a1149,001,2025-04-30_23h04.50.931,empathy_intonation_perc,2024.1.4,MacIntel,58.82352941,,,,,,,,,,,,,,26,enigma,,,,,,93.162,94.778,1,0,1.08,,0,5,5,25,1,two_way_cognate,1,REAL,FALSA
,,,,,,,,,63eaa34e4d5bdf6b859a1149,001,2025-04-30_23h04.50.931,empathy_intonation_perc,2024.1.4,MacIntel,58.82352941,,,,,,,,,,,,,,166,anfia,,,,,,94.779,96.095,0,1,0.786,,0,6,6,165,1,pseudoword,0,REAL,FALSA
,,,,,,,,,63eaa34e4d5bdf6b859a1149,001,2025-04-30_23h04.50.931,empathy_intonation_perc,2024.1.4,MacIntel,58.82352941,,,,,,,,,,,,,,171,gotro,,,,,,96.095,97.345,0,1,0.715,,0,7,7,170,1,pseudoword,0,REAL,FALSA
,,,,,,,,,63eaa34e4d5bdf6b859a1149,001,2025-04-30_23h04.50.931,empathy_intonation_perc,2024.1.4,MacIntel,58.82352941,,,,,,,,,,,,,,115,lidena,,,,,,97.346,98.712,0,1,0.832,,0,8,8,114,1,pseudoword,0,REAL,FALSA
,,,,,,,,,63eaa34e4d5bdf6b859a1149,001,2025-04-30_23h04.50.931,empathy_intonation_perc,2024.1.4,MacIntel,58.82352941,,,,,,,,,,,,,,6,horror,,,,,,98.712,100.078,1,0,0.832,,0,9,9,5,1,three_way_cognate,1,REAL,FALSA
,,,,,,,,,63eaa34e4d5bdf6b859a1149,001,2025-04-30_23h04.50.931,empathy_intonation_perc,2024.1.4,MacIntel,58.82352941,,,,,,,,,,,,,,83,hálito,,,,,,100.078,102.079,0,1,1.479,,0,10,10,82,1,non_cognate,1,REAL,FALSA
,,,,,,,,,63eaa34e4d5bdf6b859a1149,001,2025-04-30_23h04.50.931,empathy_intonation_perc,2024.1.4,MacIntel,58.82352941,,,,,,,,,,,,,,181,gravés,,,,,,102.079,103.728,0,1,1.118,,0,11,11,180,1,pseudoword,0,REAL,FALSA
,,,,,,,,,63eaa34e4d5bdf6b859a1149,001,2025-04-30_23h04.50.931,empathy_intonation_perc,2024.1.4,MacIntel,58.82352941,,,,,,,,,,,,,,2,tumor,,,,,,103.729,105.012,1,0,0.749,,0,12,12,1,1,three_way_cognate,1,REAL,FALSA
,,,,,,,,,63eaa34e4d5bdf6b859a1149,001,2025-04-30_23h04.50.931,empathy_intonation_perc,2024.1.4,MacIntel,58.82352941,,,,,,,,,,,,,,98,martir,,,,,,105.012,106.729,1,0,1.197,,0,13,13,97,1,pseudoword,0,REAL,FALSA
,,,,,,,,,63eaa34e4d5bdf6b859a1149,001,2025-04-30_23h04.50.931,empathy_intonation_perc,2024.1.4,MacIntel,58.82352941,,,,,,,,,,,,,,117,morrá,,,,,,106.729,108.211,0,1,0.946,,0,14,14,116,1,pseudoword,0,REAL,FALSA
,,,,,,,,,63eaa34e4d5bdf6b859a1149,001,2025-04-30_23h04.50.931,empathy_intonation_perc,2024.1.4,MacIntel,58.82352941,,,,,,,,,,,,,,63,hilo,,,,,,108.212,109.462,0,1,0.73,,0,15,15,62,1,non_cognate,1,REAL,FALSA
,,,,,,,,,63eaa34e4d5bdf6b859a1149,001,2025-04-30_23h04.50.931,empathy_intonation_perc,2024.1.4,MacIntel,58.82352941,,,,,,,,,,,,,,160,fomeó,,,,,,109.463,110.696,0,1,0.701,,0,16,16,159,1,pseudoword,0,REAL,FALSA
,,,,,,,,,63eaa34e4d5bdf6b859a1149,001,2025-04-30_23h04.50.931,empathy_intonation_perc,2024.1.4,MacIntel,58.82352941,,,,,,,,,,,,,,124,lobe,,,,,,110.696,112.079,0,1,0.846,,0,17,17,123,1,pseudoword,0,REAL,FALSA
,,,,,,,,,63eaa34e4d5bdf6b859a1149,001,2025-04-30_23h04.50.931,empathy_intonation_perc,2024.1.4,MacIntel,58.82352941,,,,,,,,,,,,,,87,muleta,,,,,,112.079,113.529,1,0,0.934,,0,18,18,86,1,non_cognate,1,REAL,FALSA
,,,,,,,,,63eaa34e4d5bdf6b859a1149,001,2025-04-30_23h04.50.931,empathy_intonation_perc,2024.1.4,MacIntel,58.82352941,,,,,,,,,,,,,,184,huenos,,,,,,113.529,115.362,0,1,1.311,,0,19,19,183,1,pseudoword,0,REAL,FALSA
,,,,,,,,,63eaa34e4d5bdf6b859a1149,001,2025-04-30_23h04.50.931,empathy_intonation_perc,2024.1.4,MacIntel,58.82352941,,,,,,,,,,,,,,17,clan,,,,,,115.363,116.996,1,0,1.097,,0,20,20,16,1,three_way_cognate,1,REAL,FALSA
,,,,,,,,,63eaa34e4d5bdf6b859a1149,001,2025-04-30_23h04.50.931,empathy_intonation_perc,2024.1.4,MacIntel,58.82352941,,,,,,,,,,,,,,168,cobén,,,,,,116.996,118.646,0,1,1.131,,0,21,21,167,1,pseudoword,0,REAL,FALSA
,,,,,,,,,63eaa34e4d5bdf6b859a1149,001,2025-04-30_23h04.50.931,empathy_intonation_perc,2024.1.4,MacIntel,58.82352941,,,,,,,,,,,,,,103,vueras,,,,,,118.646,120.463,0,1,1.299,,0,22,22,102,1,pseudoword,0,REAL,FALSA
,,,,,,,,,63eaa34e4d5bdf6b859a1149,001,2025-04-30_23h04.50.931,empathy_intonation_perc,2024.1.4,MacIntel,58.82352941,,,,,,,,,,,,,,44,editor,,,,,,120.463,121.746,1,0,0.767,,0,23,23,43,1,two_way_cognate,1,REAL,FALSA
,,,,,,,,,63eaa34e4d5bdf6b859a1149,001,2025-04-30_23h04.50.931,empathy_intonation_perc,2024.1.4,MacIntel,58.82352941,,,,,,,,,,,,,,107,plago,,,,,,121.746,123.28,0,1,1.018,,0,24,24,106,1,pseudoword,0,REAL,FALSA
,,,,,,,,,63eaa34e4d5bdf6b859a1149,001,2025-04-30_23h04.50.931,empathy_intonation_perc,2024.1.4,MacIntel,58.82352941,,,,,,,,,,,,,,178,inichó,,,,,,123.28,124.531,0,1,0.721,,0,25,25,177,1,pseudoword,0,REAL,FALSA
,,,,,,,,,63eaa34e4d5bdf6b859a1149,001,2025-04-30_23h04.50.931,empathy_intonation_perc,2024.1.4,MacIntel,58.82352941,,,,,,,,,,,,,,18,altar,,,,,,124.531,125.913,1,0,0.847,,0,26,26,17,1,three_way_cognate,1,REAL,FALSA
,,,,,,,,,63eaa34e4d5bdf6b859a1149,001,2025-04-30_23h04.50.931,empathy_intonation_perc,2024.1.4,MacIntel,58.82352941,,,,,,,,,,,,,,23,plural,,,,,,125.913,127.23,1,0,0.802,,0,27,27,22,1,three_way_cognate,1,REAL,FALSA
,,,,,,,,,63eaa34e4d5bdf6b859a1149,001,2025-04-30_23h04.50.931,empathy_intonation_perc,2024.1.4,MacIntel,58.82352941,,,,,,,,,,,,,,66,aleta,,,,,,127.23,130.196,0,1,2.449,,0,28,28,65,1,non_cognate,1,REAL,FALSA
,,,,,,,,,63eaa34e4d5bdf6b859a1149,001,2025-04-30_23h04.50.931,empathy_intonation_perc,2024.1.4,MacIntel,58.82352941,,,,,,,,,,,,,,186,rizate,,,,,,130.196,131.597,0,1,0.886,,0,29,29,185,1,pseudoword,0,REAL,FALSA
,,,,,,,,,63eaa34e4d5bdf6b859a1149,001,2025-04-30_23h04.50.931,empathy_intonation_perc,2024.1.4,MacIntel,58.82352941,,,,,,,,,,,,,,130,dubo,,,,,,131.597,133.08,1,0,0.947,,0,30,30,129,1,pseudoword,0,REAL,FALSA
,,,,,,,,,63eaa34e4d5bdf6b859a1149,001,2025-04-30_23h04.50.931,empathy_intonation_perc,2024.1.4,MacIntel,58.82352941,,,,,,,,,,,,,,39,casual,,,,,,133.081,134.246,1,0,0.634,,0,31,31,38,1,two_way_cognate,1,REAL,FALSA
,,,,,,,,,63eaa34e4d5bdf6b859a1149,001,2025-04-30_23h04.50.931,empathy_intonation_perc,2024.1.4,MacIntel,58.82352941,,,,,,,,,,,,,,14,aura,,,,,,134.246,135.497,1,0,0.73,,0,32,32,13,1,three_way_cognate,1,REAL,FALSA
,,,,,,,,,63eaa34e4d5bdf6b859a1149,001,2025-04-30_23h04.50.931,empathy_intonation_perc,2024.1.4,MacIntel,58.82352941,,,,,,,,,,,,,,34,actor,,,,,,135.498,136.63,1,0,0.598,,0,33,33,33,1,two_way_cognate,1,REAL,FALSA
,,,,,,,,,63eaa34e4d5bdf6b859a1149,001,2025-04-30_23h04.50.931,empathy_intonation_perc,2024.1.4,MacIntel,58.82352941,,,,,,,,,,,,,,31,civil,,,,,,136.631,137.797,1,0,0.63,,0,34,34,30,1,two_way_cognate,1,REAL,FALSA
,,,,,,,,,63eaa34e4d5bdf6b859a1149,001,2025-04-30_23h04.50.931,empathy_intonation_perc,2024.1.4,MacIntel,58.82352941,,,,,,,,,,,,,,127,vien,,,,,,137.798,139.897,1,0,1.562,,0,35,35,126,1,pseudoword,0,REAL,FALSA
,,,,,,,,,63eaa34e4d5bdf6b859a1149,001,2025-04-30_23h04.50.931,empathy_intonation_perc,2024.1.4,MacIntel,58.82352941,,,,,,,,,,,,,,46,mortal,,,,,,139.898,141.397,1,0,0.962,,0,36,36,45,1,two_way_cognate,1,REAL,FALSA
,,,,,,,,,63eaa34e4d5bdf6b859a1149,001,2025-04-30_23h04.50.931,empathy_intonation_perc,2024.1.4,MacIntel,58.82352941,,,,,,,,,,,,,,29,clamor,,,,,,141.398,142.897,0,1,0.965,,0,37,37,28,1,two_way_cognate,1,REAL,FALSA
,,,,,,,,,63eaa34e4d5bdf6b859a1149,001,2025-04-30_23h04.50.931,empathy_intonation_perc,2024.1.4,MacIntel,58.82352941,,,,,,,,,,,,,,38,halo,,,,,,142.899,145.531,0,1,2.097,,0,38,38,37,1,two_way_cognate,1,REAL,FALSA
,,,,,,,,,63eaa34e4d5bdf6b859a1149,001,2025-04-30_23h04.50.931,empathy_intonation_perc,2024.1.4,MacIntel,58.82352941,,,,,,,,,,,,,,27,piano,,,,,,145.532,146.681,1,0,0.613,,0,39,39,26,1,two_way_cognate,1,REAL,FALSA
,,,,,,,,,63eaa34e4d5bdf6b859a1149,001,2025-04-30_23h04.50.931,empathy_intonation_perc,2024.1.4,MacIntel,58.82352941,,,,,,,,,,,,,,157,seled,,,,,,146.681,147.881,0,1,0.682,,0,40,40,156,1,pseudoword,0,REAL,FALSA
,,,,,,,,,63eaa34e4d5bdf6b859a1149,001,2025-04-30_23h04.50.931,empathy_intonation_perc,2024.1.4,MacIntel,58.82352941,,,,,,,,,,,,,,105,peniz,,,,,,147.881,149.214,0,1,0.814,,0,41,41,104,1,pseudoword,0,REAL,FALSA
,,,,,,,,,63eaa34e4d5bdf6b859a1149,001,2025-04-30_23h04.50.931,empathy_intonation_perc,2024.1.4,MacIntel,58.82352941,,,,,,,,,,,,,,22,mango,,,,,,149.215,150.731,1,0,0.982,,0,42,42,21,1,three_way_cognate,1,REAL,FALSA
,,,,,,,,,63eaa34e4d5bdf6b859a1149,001,2025-04-30_23h04.50.931,empathy_intonation_perc,2024.1.4,MacIntel,58.82352941,,,,,,,,,,,,,,141,virios,,,,,,150.731,151.998,0,1,0.748,,0,43,43,140,1,pseudoword,0,REAL,FALSA
,,,,,,,,,63eaa34e4d5bdf6b859a1149,001,2025-04-30_23h04.50.931,empathy_intonation_perc,2024.1.4,MacIntel,58.82352941,,,,,,,,,,,,,,143,hurcos,,,,,,151.998,153.448,0,1,0.931,,0,44,44,142,1,pseudoword,0,REAL,FALSA
,,,,,,,,,63eaa34e4d5bdf6b859a1149,001,2025-04-30_23h04.50.931,empathy_intonation_perc,2024.1.4,MacIntel,58.82352941,,,,,,,,,,,,,,108,jauda,,,,,,153.448,154.681,0,1,0.721,,0,45,45,107,1,pseudoword,0,REAL,FALSA
,,,,,,,,,63eaa34e4d5bdf6b859a1149,001,2025-04-30_23h04.50.931,empathy_intonation_perc,2024.1.4,MacIntel,58.82352941,,,,,,,,,,,,,,158,babrá,,,,,,154.682,155.915,0,1,0.697,,0,46,46,157,1,pseudoword,0,REAL,FALSA
,,,,,,,,,63eaa34e4d5bdf6b859a1149,001,2025-04-30_23h04.50.931,empathy_intonation_perc,2024.1.4,MacIntel,58.82352941,,,,,,,,,,,,,,93,tapa,,,,,,155.915,157.315,1,0,0.863,,0,47,47,92,1,non_cognate,1,REAL,FALSA
,,,,,,,,,63eaa34e4d5bdf6b859a1149,001,2025-04-30_23h04.50.931,empathy_intonation_perc,2024.1.4,MacIntel,58.82352941,,,,,,,,,,,,,,187,nomata,,,,,,157.315,158.715,0,1,0.881,,0,48,48,186,1,pseudoword,0,REAL,FALSA
,,,,,,,,,63eaa34e4d5bdf6b859a1149,001,2025-04-30_23h04.50.931,empathy_intonation_perc,2024.1.4,MacIntel,58.82352941,,,,,,,,,,,,,,62,pegar,,,,,,158.715,160.648,0,1,1.414,,0,49,49,61,1,non_cognate,1,REAL,FALSA
,,,,,,,,,63eaa34e4d5bdf6b859a1149,001,2025-04-30_23h04.50.931,empathy_intonation_perc,2024.1.4,MacIntel,58.82352941,,,,,,,,,,,,,,13,plan,,,,,,160.649,161.814,1,0,0.635,,0,50,50,12,1,three_way_cognate,1,REAL,FALSA
,,,,,,,,,63eaa34e4d5bdf6b859a1149,001,2025-04-30_23h04.50.931,empathy_intonation_perc,2024.1.4,MacIntel,58.82352941,,,,,,,,,,,,,,88,percha,,,,,,161.814,163.582,0,1,1.252,,0,51,51,87,1,non_cognate,1,REAL,FALSA
,,,,,,,,,63eaa34e4d5bdf6b859a1149,001,2025-04-30_23h04.50.931,empathy_intonation_perc,2024.1.4,MacIntel,58.82352941,,,,,,,,,,,,,,149,emén,,,,,,163.582,164.832,0,1,0.731,,0,52,52,148,1,pseudoword,0,REAL,FALSA
,,,,,,,,,63eaa34e4d5bdf6b859a1149,001,2025-04-30_23h04.50.931,empathy_intonation_perc,2024.1.4,MacIntel,58.82352941,,,,,,,,,,,,,,162,cengo,,,,,,164.832,165.948,0,1,0.598,,0,53,53,161,1,pseudoword,0,REAL,FALSA
,,,,,,,,,63eaa34e4d5bdf6b859a1149,001,2025-04-30_23h04.50.931,empathy_intonation_perc,2024.1.4,MacIntel,58.82352941,,,,,,,,,,,,,,61,aduana,,,,,,165.949,167.215,0,1,0.733,,0,54,54,60,1,non_cognate,1,REAL,FALSA
,,,,,,,,,63eaa34e4d5bdf6b859a1149,001,2025-04-30_23h04.50.931,empathy_intonation_perc,2024.1.4,MacIntel,58.82352941,,,,,,,,,,,,,,86,cuenco,,,,,,167.216,169.099,1,0,1.348,,0,55,55,85,1,non_cognate,1,REAL,FALSA
,,,,,,,,,63eaa34e4d5bdf6b859a1149,001,2025-04-30_23h04.50.931,empathy_intonation_perc,2024.1.4,MacIntel,58.82352941,,,,,,,,,,,,,,59,feo,,,,,,169.099,170.331,1,0,0.715,,0,56,56,58,1,non_cognate,1,REAL,FALSA
,,,,,,,,,63eaa34e4d5bdf6b859a1149,001,2025-04-30_23h04.50.931,empathy_intonation_perc,2024.1.4,MacIntel,58.82352941,,,,,,,,,,,,,,75,patada,,,,,,170.332,172.048,0,1,1.203,,0,57,57,74,1,non_cognate,1,REAL,FALSA
,,,,,,,,,63eaa34e4d5bdf6b859a1149,001,2025-04-30_23h04.50.931,empathy_intonation_perc,2024.1.4,MacIntel,58.82352941,,,,,,,,,,,,,,148,gino,,,,,,172.049,173.249,0,1,0.685,,0,58,58,147,1,pseudoword,0,REAL,FALSA
,,,,,,,,,63eaa34e4d5bdf6b859a1149,001,2025-04-30_23h04.50.931,empathy_intonation_perc,2024.1.4,MacIntel,58.82352941,,,,,,,,,,,,,,20,trauma,,,,,,173.249,174.482,1,0,0.715,,0,59,59,19,1,three_way_cognate,1,REAL,FALSA
,,,,,,,,,63eaa34e4d5bdf6b859a1149,001,2025-04-30_23h04.50.931,empathy_intonation_perc,2024.1.4,MacIntel,58.82352941,,,,,,,,,,,,,,114,dibrea,,,,,,174.483,175.698,0,1,0.679,,0,60,60,113,1,pseudoword,0,REAL,FALSA
,,,,,,,,,63eaa34e4d5bdf6b859a1149,001,2025-04-30_23h04.50.931,empathy_intonation_perc,2024.1.4,MacIntel,58.82352941,,,,,,,,,,,,,,1,moral,,,,,,175.699,176.882,1,0,0.664,,0,61,61,0,1,three_way_cognate,1,REAL,FALSA
,,,,,,,,,63eaa34e4d5bdf6b859a1149,001,2025-04-30_23h04.50.931,empathy_intonation_perc,2024.1.4,MacIntel,58.82352941,,,,,,,,,,,,,,99,bugor,,,,,,176.883,178.233,0,1,0.814,,0,62,62,98,1,pseudoword,0,REAL,FALSA
,,,,,,,,,63eaa34e4d5bdf6b859a1149,001,2025-04-30_23h04.50.931,empathy_intonation_perc,2024.1.4,MacIntel,58.82352941,,,,,,,,,,,,,,41,pasta,,,,,,178.233,179.816,1,0,1.048,,0,63,63,40,1,two_way_cognate,1,REAL,FALSA
,,,,,,,,,63eaa34e4d5bdf6b859a1149,001,2025-04-30_23h04.50.931,empathy_intonation_perc,2024.1.4,MacIntel,58.82352941,,,,,,,,,,,,,,82,brillo,,,,,,179.816,181.066,0,1,0.738,,0,64,64,81,1,non_cognate,1,REAL,FALSA
,,,,,,,,,63eaa34e4d5bdf6b859a1149,001,2025-04-30_23h04.50.931,empathy_intonation_perc,2024.1.4,MacIntel,58.82352941,,,,,,,,,,,,,,122,boñaz,,,,,,181.067,182.299,0,1,0.697,,0,65,65,121,1,pseudoword,0,REAL,FALSA
,,,,,,,,,63eaa34e4d5bdf6b859a1149,001,2025-04-30_23h04.50.931,empathy_intonation_perc,2024.1.4,MacIntel,58.82352941,,,,,,,,,,,,,,40,pelvis,,,,,,182.3,183.95,0,1,1.116,,0,66,66,39,1,two_way_cognate,1,REAL,FALSA
,,,,,,,,,63eaa34e4d5bdf6b859a1149,001,2025-04-30_23h04.50.931,empathy_intonation_perc,2024.1.4,MacIntel,58.82352941,,,,,,,,,,,,,,170,diabo,,,,,,183.95,185.583,0,1,1.102,,0,67,67,169,1,pseudoword,0,REAL,FALSA
,,,,,,,,,63eaa34e4d5bdf6b859a1149,001,2025-04-30_23h04.50.931,empathy_intonation_perc,2024.1.4,MacIntel,58.82352941,,,,,,,,,,,,,,169,pitis,,,,,,185.583,186.7,0,1,0.598,,0,68,68,168,1,pseudoword,0,REAL,FALSA
,,,,,,,,,63eaa34e4d5bdf6b859a1149,001,2025-04-30_23h04.50.931,empathy_intonation_perc,2024.1.4,MacIntel,58.82352941,,,,,,,,,,,,,,5,extra,,,,,,186.7,188.183,1,0,0.964,,0,69,69,4,1,three_way_cognate,1,REAL,FALSA
,,,,,,,,,63eaa34e4d5bdf6b859a1149,001,2025-04-30_23h04.50.931,empathy_intonation_perc,2024.1.4,MacIntel,58.82352941,,,,,,,,,,,,,,37,torso,,,,,,188.184,189.616,1,0,0.902,,0,70,70,36,1,two_way_cognate,1,REAL,FALSA
,,,,,,,,,63eaa34e4d5bdf6b859a1149,001,2025-04-30_23h04.50.931,empathy_intonation_perc,2024.1.4,MacIntel,58.82352941,,,,,,,,,,,,,,47,color,,,,,,189.617,190.733,1,0,0.586,,0,71,71,46,1,two_way_cognate,1,REAL,FALSA
,,,,,,,,,63eaa34e4d5bdf6b859a1149,001,2025-04-30_23h04.50.931,empathy_intonation_perc,2024.1.4,MacIntel,58.82352941,,,,,,,,,,,,,,52,blando,,,,,,190.734,192.433,0,1,1.166,,0,72,72,51,1,non_cognate,1,REAL,FALSA
,,,,,,,,,63eaa34e4d5bdf6b859a1149,001,2025-04-30_23h04.50.931,empathy_intonation_perc,2024.1.4,MacIntel,58.82352941,,,,,,,,,,,,,,76,chocar,,,,,,192.434,194.116,0,1,1.148,,0,73,73,75,1,non_cognate,1,REAL,FALSA
,,,,,,,,,63eaa34e4d5bdf6b859a1149,001,2025-04-30_23h04.50.931,empathy_intonation_perc,2024.1.4,MacIntel,58.82352941,,,,,,,,,,,,,,121,barbs,,,,,,194.117,195.284,0,1,0.633,,0,74,74,120,1,pseudoword,0,REAL,FALSA
,,,,,,,,,63eaa34e4d5bdf6b859a1149,001,2025-04-30_23h04.50.931,empathy_intonation_perc,2024.1.4,MacIntel,58.82352941,,,,,,,,,,,,,,36,viable,,,,,,195.284,197.734,0,1,1.922,,0,75,75,35,1,two_way_cognate,1,REAL,FALSA
,,,,,,,,,63eaa34e4d5bdf6b859a1149,001,2025-04-30_23h04.50.931,empathy_intonation_perc,2024.1.4,MacIntel,58.82352941,,,,,,,,,,,,,,119,esís,,,,,,197.735,199.117,0,1,0.849,,0,76,76,118,1,pseudoword,0,REAL,FALSA
,,,,,,,,,63eaa34e4d5bdf6b859a1149,001,2025-04-30_23h04.50.931,empathy_intonation_perc,2024.1.4,MacIntel,58.82352941,,,,,,,,,,,,,,77,suave,,,,,,199.118,200.383,1,0,0.732,,0,77,77,76,1,non_cognate,1,REAL,FALSA
,,,,,,,,,63eaa34e4d5bdf6b859a1149,001,2025-04-30_23h04.50.931,empathy_intonation_perc,2024.1.4,MacIntel,58.82352941,,,,,,,,,,,,,,92,flecha,,,,,,200.383,201.734,1,0,0.831,,0,78,78,91,1,non_cognate,1,REAL,FALSA
,,,,,,,,,63eaa34e4d5bdf6b859a1149,001,2025-04-30_23h04.50.931,empathy_intonation_perc,2024.1.4,MacIntel,58.82352941,,,,,,,,,,,,,,16,chat,,,,,,201.735,203.534,0,1,1.266,,0,79,79,15,1,three_way_cognate,1,REAL,FALSA
,,,,,,,,,63eaa34e4d5bdf6b859a1149,001,2025-04-30_23h04.50.931,empathy_intonation_perc,2024.1.4,MacIntel,58.82352941,,,,,,,,,,,,,,111,monue,,,,,,203.534,204.817,0,1,0.767,,0,80,80,110,1,pseudoword,0,REAL,FALSA
,,,,,,,,,63eaa34e4d5bdf6b859a1149,001,2025-04-30_23h04.50.931,empathy_intonation_perc,2024.1.4,MacIntel,58.82352941,,,,,,,,,,,,,,153,golla,,,,,,204.818,205.984,0,1,0.636,,0,81,81,152,1,pseudoword,0,REAL,FALSA
,,,,,,,,,63eaa34e4d5bdf6b859a1149,001,2025-04-30_23h04.50.931,empathy_intonation_perc,2024.1.4,MacIntel,58.82352941,,,,,,,,,,,,,,146,gió,,,,,,205.985,207.217,0,1,0.697,,0,82,82,145,1,pseudoword,0,REAL,FALSA
,,,,,,,,,63eaa34e4d5bdf6b859a1149,001,2025-04-30_23h04.50.931,empathy_intonation_perc,2024.1.4,MacIntel,58.82352941,,,,,,,,,,,,,,185,aljizo,,,,,,207.218,208.601,0,1,0.854,,0,83,83,184,1,pseudoword,0,REAL,FALSA
,,,,,,,,,63eaa34e4d5bdf6b859a1149,001,2025-04-30_23h04.50.931,empathy_intonation_perc,2024.1.4,MacIntel,58.82352941,,,,,,,,,,,,,,56,pico,,,,,,208.601,209.784,1,0,0.664,,0,84,84,55,1,non_cognate,1,REAL,FALSA
,,,,,,,,,63eaa34e4d5bdf6b859a1149,001,2025-04-30_23h04.50.931,empathy_intonation_perc,2024.1.4,MacIntel,58.82352941,,,,,,,,,,,,,,144,diroco,,,,,,209.785,211.101,0,1,0.78,,0,85,85,143,1,pseudoword,0,REAL,FALSA
,,,,,,,,,63eaa34e4d5bdf6b859a1149,001,2025-04-30_23h04.50.931,empathy_intonation_perc,2024.1.4,MacIntel,58.82352941,,,,,,,,,,,,,,32,animal,,,,,,211.101,212.201,1,0,0.582,,0,86,86,31,1,two_way_cognate,1,REAL,FALSA
,,,,,,,,,63eaa34e4d5bdf6b859a1149,001,2025-04-30_23h04.50.931,empathy_intonation_perc,2024.1.4,MacIntel,58.82352941,,,,,,,,,,,,,,28,ardor,,,,,,212.202,213.484,0,1,0.755,,0,87,87,27,1,two_way_cognate,1,REAL,FALSA
,,,,,,,,,63eaa34e4d5bdf6b859a1149,001,2025-04-30_23h04.50.931,empathy_intonation_perc,2024.1.4,MacIntel,58.82352941,,,,,,,,,,,,,,81,sacar,,,,,,213.485,214.684,1,0,0.671,,0,88,88,80,1,non_cognate,1,REAL,FALSA
,,,,,,,,,63eaa34e4d5bdf6b859a1149,001,2025-04-30_23h04.50.931,empathy_intonation_perc,2024.1.4,MacIntel,58.82352941,,,,,,,,,,,,,,165,chote,,,,,,214.685,215.885,0,1,0.663,,0,89,89,164,1,pseudoword,0,REAL,FALSA
,,,,,,,,,63eaa34e4d5bdf6b859a1149,001,2025-04-30_23h04.50.931,empathy_intonation_perc,2024.1.4,MacIntel,58.82352941,,,,,,,,,,,,,,42,rumor,,,,,,215.885,217.668,0,1,1.262,,0,90,90,41,1,two_way_cognate,1,REAL,FALSA
,,,,,,,,,63eaa34e4d5bdf6b859a1149,001,2025-04-30_23h04.50.931,empathy_intonation_perc,2024.1.4,MacIntel,58.82352941,,,,,,,,,,,,,,156,ozoso,,,,,,217.669,219.301,0,1,1.097,,0,91,91,155,1,pseudoword,0,REAL,FALSA
,,,,,,,,,63eaa34e4d5bdf6b859a1149,001,2025-04-30_23h04.50.931,empathy_intonation_perc,2024.1.4,MacIntel,58.82352941,,,,,,,,,,,,,,132,nocó,,,,,,219.302,220.618,0,1,0.783,,0,92,92,131,1,pseudoword,0,REAL,FALSA
,,,,,,,,,63eaa34e4d5bdf6b859a1149,001,2025-04-30_23h04.50.931,empathy_intonation_perc,2024.1.4,MacIntel,58.82352941,,,,,,,,,,,,,,151,prías,,,,,,220.619,222.186,0,1,1.039,,0,93,93,150,1,pseudoword,0,REAL,FALSA
,,,,,,,,,63eaa34e4d5bdf6b859a1149,001,2025-04-30_23h04.50.931,empathy_intonation_perc,2024.1.4,MacIntel,58.82352941,,,,,,,,,,,,,,131,fuar,,,,,,222.187,223.401,0,1,0.685,,0,94,94,130,1,pseudoword,0,REAL,FALSA
,,,,,,,,,63eaa34e4d5bdf6b859a1149,001,2025-04-30_23h04.50.931,empathy_intonation_perc,2024.1.4,MacIntel,58.82352941,,,,,,,,,,,,,,80,cuenco,,,,,,223.401,225.185,0,1,1.269,,0,95,95,79,1,non_cognate,1,REAL,FALSA
,,,,,,,,,63eaa34e4d5bdf6b859a1149,001,2025-04-30_23h04.50.931,empathy_intonation_perc,2024.1.4,MacIntel,58.82352941,,,,,,,,,,,,,,67,llamar,,,,,,225.187,226.352,1,0,0.631,,0,96,96,66,1,non_cognate,1,REAL,FALSA
,,,,,,,,,63eaa34e4d5bdf6b859a1149,001,2025-04-30_23h04.50.931,empathy_intonation_perc,2024.1.4,MacIntel,58.82352941,,,,,,,,,,,,,,136,hueas,,,,,,226.353,227.669,0,1,0.782,,0,97,97,135,1,pseudoword,0,REAL,FALSA
,,,,,,,,,63eaa34e4d5bdf6b859a1149,001,2025-04-30_23h04.50.931,empathy_intonation_perc,2024.1.4,MacIntel,58.82352941,,,,,,,,,,,,,,104,estulo,,,,,,227.669,229.002,0,1,0.797,,0,98,98,103,1,pseudoword,0,REAL,FALSA
,,,,,,,,,63eaa34e4d5bdf6b859a1149,001,2025-04-30_23h04.50.931,empathy_intonation_perc,2024.1.4,MacIntel,58.82352941,,,,,,,,,,,,,,65,guerra,,,,,,229.003,230.253,1,0,0.721,,0,99,99,64,1,non_cognate,1,REAL,FALSA
,,,,,,,,,63eaa34e4d5bdf6b859a1149,001,2025-04-30_23h04.50.931,empathy_intonation_perc,2024.1.4,MacIntel,58.82352941,,,,,,,,,,,,,,49,teñir,,,,,,230.253,231.719,0,1,0.93,,0,100,100,48,1,non_cognate,1,REAL,FALSA
,,,,,,,,,63eaa34e4d5bdf6b859a1149,001,2025-04-30_23h04.50.931,empathy_intonation_perc,2024.1.4,MacIntel,58.82352941,,,,,,,,,,,,,,73,llevar,,,,,,231.719,232.819,1,0,0.581,,0,101,101,72,1,non_cognate,1,REAL,FALSA
,,,,,,,,,63eaa34e4d5bdf6b859a1149,001,2025-04-30_23h04.50.931,empathy_intonation_perc,2024.1.4,MacIntel,58.82352941,,,,,,,,,,,,,,10,drama,,,,,,232.819,234.052,1,0,0.715,,0,102,102,9,1,three_way_cognate,1,REAL,FALSA
,,,,,,,,,63eaa34e4d5bdf6b859a1149,001,2025-04-30_23h04.50.931,empathy_intonation_perc,2024.1.4,MacIntel,58.82352941,,,,,,,,,,,,,,116,grigir,,,,,,234.053,235.552,0,1,0.962,,0,103,103,115,1,pseudoword,0,REAL,FALSA
,,,,,,,,,63eaa34e4d5bdf6b859a1149,001,2025-04-30_23h04.50.931,empathy_intonation_perc,2024.1.4,MacIntel,58.82352941,,,,,,,,,,,,,,48,pelvis,,,,,,235.553,236.936,0,1,0.853,,0,104,104,47,1,two_way_cognate,1,REAL,FALSA
,,,,,,,,,63eaa34e4d5bdf6b859a1149,001,2025-04-30_23h04.50.931,empathy_intonation_perc,2024.1.4,MacIntel,58.82352941,,,,,,,,,,,,,,173,mibro,,,,,,236.936,238.186,0,1,0.733,,0,105,105,172,1,pseudoword,0,REAL,FALSA
,,,,,,,,,63eaa34e4d5bdf6b859a1149,001,2025-04-30_23h04.50.931,empathy_intonation_perc,2024.1.4,MacIntel,58.82352941,,,,,,,,,,,,,,159,trcia,,,,,,238.186,239.307,0,1,0.605,,0,106,106,158,1,pseudoword,0,REAL,FALSA
,,,,,,,,,63eaa34e4d5bdf6b859a1149,001,2025-04-30_23h04.50.931,empathy_intonation_perc,2024.1.4,MacIntel,58.82352941,,,,,,,,,,,,,,110,densó,,,,,,239.307,240.436,0,1,0.598,,0,107,107,109,1,pseudoword,0,REAL,FALSA
,,,,,,,,,63eaa34e4d5bdf6b859a1149,001,2025-04-30_23h04.50.931,empathy_intonation_perc,2024.1.4,MacIntel,58.82352941,,,,,,,,,,,,,,176,gripar,,,,,,240.436,242.153,0,1,1.198,,0,108,108,175,1,pseudoword,0,REAL,FALSA
,,,,,,,,,63eaa34e4d5bdf6b859a1149,001,2025-04-30_23h04.50.931,empathy_intonation_perc,2024.1.4,MacIntel,58.82352941,,,,,,,,,,,,,,100,épinas,,,,,,242.153,243.286,0,1,0.619,,0,109,109,99,1,pseudoword,0,REAL,FALSA
,,,,,,,,,63eaa34e4d5bdf6b859a1149,001,2025-04-30_23h04.50.931,empathy_intonation_perc,2024.1.4,MacIntel,58.82352941,,,,,,,,,,,,,,133,conso,,,,,,243.287,244.619,0,1,0.8,,0,110,110,132,1,pseudoword,0,REAL,FALSA
,,,,,,,,,63eaa34e4d5bdf6b859a1149,001,2025-04-30_23h04.50.931,empathy_intonation_perc,2024.1.4,MacIntel,58.82352941,,,,,,,,,,,,,,140,chorde,,,,,,244.62,245.77,0,1,0.615,,0,111,111,139,1,pseudoword,0,REAL,FALSA
,,,,,,,,,63eaa34e4d5bdf6b859a1149,001,2025-04-30_23h04.50.931,empathy_intonation_perc,2024.1.4,MacIntel,58.82352941,,,,,,,,,,,,,,50,sierra,,,,,,245.77,246.92,1,0,0.614,,0,112,112,49,1,non_cognate,1,REAL,FALSA
,,,,,,,,,63eaa34e4d5bdf6b859a1149,001,2025-04-30_23h04.50.931,empathy_intonation_perc,2024.1.4,MacIntel,58.82352941,,,,,,,,,,,,,,71,torta,,,,,,246.92,248.736,0,1,1.301,,0,113,113,70,1,non_cognate,1,REAL,FALSA
,,,,,,,,,63eaa34e4d5bdf6b859a1149,001,2025-04-30_23h04.50.931,empathy_intonation_perc,2024.1.4,MacIntel,58.82352941,,,,,,,,,,,,,,120,mauja,,,,,,248.737,249.903,0,1,0.631,,0,114,114,119,1,pseudoword,0,REAL,FALSA
,,,,,,,,,63eaa34e4d5bdf6b859a1149,001,2025-04-30_23h04.50.931,empathy_intonation_perc,2024.1.4,MacIntel,58.82352941,,,,,,,,,,,,,,129,vinzó,,,,,,249.904,251.136,0,1,0.697,,0,115,115,128,1,pseudoword,0,REAL,FALSA
,,,,,,,,,63eaa34e4d5bdf6b859a1149,001,2025-04-30_23h04.50.931,empathy_intonation_perc,2024.1.4,MacIntel,58.82352941,,,,,,,,,,,,,,172,dogue,,,,,,251.136,252.336,0,1,0.681,,0,116,116,171,1,pseudoword,0,REAL,FALSA
,,,,,,,,,63eaa34e4d5bdf6b859a1149,001,2025-04-30_23h04.50.931,empathy_intonation_perc,2024.1.4,MacIntel,58.82352941,,,,,,,,,,,,,,102,coyo,,,,,,252.337,253.537,0,1,0.67,,0,117,117,101,1,pseudoword,0,REAL,FALSA
,,,,,,,,,63eaa34e4d5bdf6b859a1149,001,2025-04-30_23h04.50.931,empathy_intonation_perc,2024.1.4,MacIntel,58.82352941,,,,,,,,,,,,,,177,entodo,,,,,,253.537,256.037,1,0,1.978,,0,118,118,176,1,pseudoword,0,REAL,FALSA
,,,,,,,,,63eaa34e4d5bdf6b859a1149,001,2025-04-30_23h04.50.931,empathy_intonation_perc,2024.1.4,MacIntel,58.82352941,,,,,,,,,,,,,,43,honor,,,,,,256.037,257.186,1,0,0.635,,0,119,119,42,1,two_way_cognate,1,REAL,FALSA
,,,,,,,,,63eaa34e4d5bdf6b859a1149,001,2025-04-30_23h04.50.931,empathy_intonation_perc,2024.1.4,MacIntel,58.82352941,,,,,,,,,,,,,,95,listo,,,,,,257.187,258.336,1,0,0.633,,0,120,120,94,1,non_cognate,1,REAL,FALSA
,,,,,,,,,63eaa34e4d5bdf6b859a1149,001,2025-04-30_23h04.50.931,empathy_intonation_perc,2024.1.4,MacIntel,58.82352941,,,,,,,,,,,,,,21,hotel,,,,,,258.337,259.354,1,0,0.5,,0,121,121,20,1,three_way_cognate,1,REAL,FALSA
,,,,,,,,,63eaa34e4d5bdf6b859a1149,001,2025-04-30_23h04.50.931,empathy_intonation_perc,2024.1.4,MacIntel,58.82352941,,,,,,,,,,,,,,188,amplir,,,,,,259.354,261.004,0,1,1.132,,0,122,122,187,1,pseudoword,0,REAL,FALSA
,,,,,,,,,63eaa34e4d5bdf6b859a1149,001,2025-04-30_23h04.50.931,empathy_intonation_perc,2024.1.4,MacIntel,58.82352941,,,,,,,,,,,,,,164,tecia,,,,,,261.004,262.337,0,1,0.814,,0,123,123,163,1,pseudoword,0,REAL,FALSA
,,,,,,,,,63eaa34e4d5bdf6b859a1149,001,2025-04-30_23h04.50.931,empathy_intonation_perc,2024.1.4,MacIntel,58.82352941,,,,,,,,,,,,,,135,panté,,,,,,262.338,263.437,0,1,0.565,,0,124,124,134,1,pseudoword,0,REAL,FALSA
,,,,,,,,,63eaa34e4d5bdf6b859a1149,001,2025-04-30_23h04.50.931,empathy_intonation_perc,2024.1.4,MacIntel,58.82352941,,,,,,,,,,,,,,134,molor,,,,,,263.438,264.587,0,1,0.617,,0,125,125,133,1,pseudoword,0,REAL,FALSA
,,,,,,,,,63eaa34e4d5bdf6b859a1149,001,2025-04-30_23h04.50.931,empathy_intonation_perc,2024.1.4,MacIntel,58.82352941,,,,,,,,,,,,,,7,albino,,,,,,264.588,266.004,1,0,0.883,,0,126,126,6,1,three_way_cognate,1,REAL,FALSA
,,,,,,,,,63eaa34e4d5bdf6b859a1149,001,2025-04-30_23h04.50.931,empathy_intonation_perc,2024.1.4,MacIntel,58.82352941,,,,,,,,,,,,,,3,disco,,,,,,266.005,267.337,1,0,0.798,,0,127,127,2,1,three_way_cognate,1,REAL,FALSA
,,,,,,,,,63eaa34e4d5bdf6b859a1149,001,2025-04-30_23h04.50.931,empathy_intonation_perc,2024.1.4,MacIntel,58.82352941,,,,,,,,,,,,,,123,arane,,,,,,267.337,268.487,0,1,0.631,,0,128,128,122,1,pseudoword,0,REAL,FALSA
,,,,,,,,,63eaa34e4d5bdf6b859a1149,001,2025-04-30_23h04.50.931,empathy_intonation_perc,2024.1.4,MacIntel,58.82352941,,,,,,,,,,,,,,139,sasos,,,,,,268.488,269.738,0,1,0.714,,0,129,129,138,1,pseudoword,0,REAL,FALSA
,,,,,,,,,63eaa34e4d5bdf6b859a1149,001,2025-04-30_23h04.50.931,empathy_intonation_perc,2024.1.4,MacIntel,58.82352941,,,,,,,,,,,,,,96,caro,,,,,,269.738,270.938,1,0,0.664,,0,130,130,95,1,non_cognate,1,REAL,FALSA
,,,,,,,,,63eaa34e4d5bdf6b859a1149,001,2025-04-30_23h04.50.931,empathy_intonation_perc,2024.1.4,MacIntel,58.82352941,,,,,,,,,,,,,,175,tradía,,,,,,270.938,272.404,0,1,0.949,,0,131,131,174,1,pseudoword,0,REAL,FALSA
,,,,,,,,,63eaa34e4d5bdf6b859a1149,001,2025-04-30_23h04.50.931,empathy_intonation_perc,2024.1.4,MacIntel,58.82352941,,,,,,,,,,,,,,109,laras,,,,,,272.405,273.821,0,1,0.885,,0,132,132,108,1,pseudoword,0,REAL,FALSA
,,,,,,,,,63eaa34e4d5bdf6b859a1149,001,2025-04-30_23h04.50.931,empathy_intonation_perc,2024.1.4,MacIntel,58.82352941,,,,,,,,,,,,,,33,collar,,,,,,273.822,275.271,0,1,0.915,,0,133,133,32,1,two_way_cognate,1,REAL,FALSA
,,,,,,,,,63eaa34e4d5bdf6b859a1149,001,2025-04-30_23h04.50.931,empathy_intonation_perc,2024.1.4,MacIntel,58.82352941,,,,,,,,,,,,,,125,ceme,,,,,,275.272,276.405,0,1,0.596,,0,134,134,124,1,pseudoword,0,REAL,FALSA
,,,,,,,,,63eaa34e4d5bdf6b859a1149,001,2025-04-30_23h04.50.931,empathy_intonation_perc,2024.1.4,MacIntel,58.82352941,,,,,,,,,,,,,,78,rendir,,,,,,276.405,277.638,0,1,0.698,,0,135,135,77,1,non_cognate,1,REAL,FALSA
,,,,,,,,,63eaa34e4d5bdf6b859a1149,001,2025-04-30_23h04.50.931,empathy_intonation_perc,2024.1.4,MacIntel,58.82352941,,,,,,,,,,,,,,174,pabea,,,,,,277.639,278.738,0,1,0.564,,0,136,136,173,1,pseudoword,0,REAL,FALSA
,,,,,,,,,63eaa34e4d5bdf6b859a1149,001,2025-04-30_23h04.50.931,empathy_intonation_perc,2024.1.4,MacIntel,58.82352941,,,,,,,,,,,,,,192,próces,,,,,,278.739,279.938,0,1,0.668,,0,137,137,191,1,pseudoword,0,REAL,FALSA
,,,,,,,,,63eaa34e4d5bdf6b859a1149,001,2025-04-30_23h04.50.931,empathy_intonation_perc,2024.1.4,MacIntel,58.82352941,,,,,,,,,,,,,,70,ánimo,,,,,,279.939,281.988,1,0,1.512,,0,138,138,69,1,non_cognate,1,REAL,FALSA
,,,,,,,,,63eaa34e4d5bdf6b859a1149,001,2025-04-30_23h04.50.931,empathy_intonation_perc,2024.1.4,MacIntel,58.82352941,,,,,,,,,,,,,,30,fiscal,,,,,,281.989,283.272,1,0,0.751,,0,139,139,29,1,two_way_cognate,1,REAL,FALSA
,,,,,,,,,63eaa34e4d5bdf6b859a1149,001,2025-04-30_23h04.50.931,empathy_intonation_perc,2024.1.4,MacIntel,58.82352941,,,,,,,,,,,,,,89,muñeca,,,,,,283.272,285.022,1,0,1.234,,0,140,140,88,1,non_cognate,1,REAL,FALSA
,,,,,,,,,63eaa34e4d5bdf6b859a1149,001,2025-04-30_23h04.50.931,empathy_intonation_perc,2024.1.4,MacIntel,58.82352941,,,,,,,,,,,,,,161,civas,,,,,,285.022,286.355,0,1,0.814,,0,141,141,160,1,pseudoword,0,REAL,FALSA
,,,,,,,,,63eaa34e4d5bdf6b859a1149,001,2025-04-30_23h04.50.931,empathy_intonation_perc,2024.1.4,MacIntel,58.82352941,,,,,,,,,,,,,,145,rúo,,,,,,286.356,287.705,0,1,0.813,,0,142,142,144,1,pseudoword,0,REAL,FALSA
,,,,,,,,,63eaa34e4d5bdf6b859a1149,001,2025-04-30_23h04.50.931,empathy_intonation_perc,2024.1.4,MacIntel,58.82352941,,,,,,,,,,,,,,180,pupica,,,,,,287.706,289.272,0,1,1.037,,0,143,143,179,1,pseudoword,0,REAL,FALSA
,,,,,,,,,63eaa34e4d5bdf6b859a1149,001,2025-04-30_23h04.50.931,empathy_intonation_perc,2024.1.4,MacIntel,58.82352941,,,,,,,,,,,,,,150,cricó,,,,,,289.273,290.605,0,1,0.801,,0,144,144,149,1,pseudoword,0,REAL,FALSA
,,,,,,,,,63eaa34e4d5bdf6b859a1149,001,2025-04-30_23h04.50.931,empathy_intonation_perc,2024.1.4,MacIntel,58.82352941,,,,,,,,,,,,,,69,tiza,,,,,,290.606,292.606,1,0,1.467,,0,145,145,68,1,non_cognate,1,REAL,FALSA
,,,,,,,,,63eaa34e4d5bdf6b859a1149,001,2025-04-30_23h04.50.931,empathy_intonation_perc,2024.1.4,MacIntel,58.82352941,,,,,,,,,,,,,,167,dobbo,,,,,,292.606,293.689,0,1,0.554,,0,146,146,166,1,pseudoword,0,REAL,FALSA
,,,,,,,,,63eaa34e4d5bdf6b859a1149,001,2025-04-30_23h04.50.931,empathy_intonation_perc,2024.1.4,MacIntel,58.82352941,,,,,,,,,,,,,,90,venado,,,,,,293.689,294.906,0,1,0.698,,0,147,147,89,1,non_cognate,1,REAL,FALSA
,,,,,,,,,63eaa34e4d5bdf6b859a1149,001,2025-04-30_23h04.50.931,empathy_intonation_perc,2024.1.4,MacIntel,58.82352941,,,,,,,,,,,,,,79,suelo,,,,,,294.906,296.806,1,0,1.365,,0,148,148,78,1,non_cognate,1,REAL,FALSA
,,,,,,,,,63eaa34e4d5bdf6b859a1149,001,2025-04-30_23h04.50.931,empathy_intonation_perc,2024.1.4,MacIntel,58.82352941,,,,,,,,,,,,,,91,equipo,,,,,,296.806,297.939,1,0,0.619,,0,149,149,90,1,non_cognate,1,REAL,FALSA
,,,,,,,,,63eaa34e4d5bdf6b859a1149,001,2025-04-30_23h04.50.931,empathy_intonation_perc,2024.1.4,MacIntel,58.82352941,,,,,,,,,,,,,,8,kilo,,,,,,297.94,299.206,1,0,0.731,,0,150,150,7,1,three_way_cognate,1,REAL,FALSA
,,,,,,,,,63eaa34e4d5bdf6b859a1149,001,2025-04-30_23h04.50.931,empathy_intonation_perc,2024.1.4,MacIntel,58.82352941,,,,,,,,,,,,,,54,tapón,,,,,,299.206,300.656,1,0,0.932,,0,151,151,53,1,non_cognate,1,REAL,FALSA
,,,,,,,,,63eaa34e4d5bdf6b859a1149,001,2025-04-30_23h04.50.931,empathy_intonation_perc,2024.1.4,MacIntel,58.82352941,,,,,,,,,,,,,,112,samón,,,,,,300.657,301.889,0,1,0.696,,0,152,152,111,1,pseudoword,0,REAL,FALSA
,,,,,,,,,63eaa34e4d5bdf6b859a1149,001,2025-04-30_23h04.50.931,empathy_intonation_perc,2024.1.4,MacIntel,58.82352941,,,,,,,,,,,,,,142,parre,,,,,,301.89,303.19,0,1,0.768,,0,153,153,141,1,pseudoword,0,REAL,FALSA
,,,,,,,,,63eaa34e4d5bdf6b859a1149,001,2025-04-30_23h04.50.931,empathy_intonation_perc,2024.1.4,MacIntel,58.82352941,,,,,,,,,,,,,,24,retina,,,,,,303.19,304.84,0,1,1.118,,0,154,154,23,1,three_way_cognate,1,REAL,FALSA
,,,,,,,,,63eaa34e4d5bdf6b859a1149,001,2025-04-30_23h04.50.931,empathy_intonation_perc,2024.1.4,MacIntel,58.82352941,,,,,,,,,,,,,,45,total,,,,,,304.84,306.223,1,0,0.846,,0,155,155,44,1,two_way_cognate,1,REAL,FALSA
,,,,,,,,,63eaa34e4d5bdf6b859a1149,001,2025-04-30_23h04.50.931,empathy_intonation_perc,2024.1.4,MacIntel,58.82352941,,,,,,,,,,,,,,147,alla,,,,,,306.223,307.923,1,0,1.163,,0,156,156,146,1,pseudoword,0,REAL,FALSA
,,,,,,,,,63eaa34e4d5bdf6b859a1149,001,2025-04-30_23h04.50.931,empathy_intonation_perc,2024.1.4,MacIntel,58.82352941,,,,,,,,,,,,,,57,regalo,,,,,,307.923,309.123,1,0,0.681,,0,157,157,56,1,non_cognate,1,REAL,FALSA
,,,,,,,,,63eaa34e4d5bdf6b859a1149,001,2025-04-30_23h04.50.931,empathy_intonation_perc,2024.1.4,MacIntel,58.82352941,,,,,,,,,,,,,,189,medium,,,,,,309.124,310.173,1,0,0.515,,0,158,158,188,1,pseudoword,0,REAL,FALSA
,,,,,,,,,63eaa34e4d5bdf6b859a1149,001,2025-04-30_23h04.50.931,empathy_intonation_perc,2024.1.4,MacIntel,58.82352941,,,,,,,,,,,,,,106,diebro,,,,,,310.174,311.775,0,1,1.073,,0,159,159,105,1,pseudoword,0,REAL,FALSA
,,,,,,,,,63eaa34e4d5bdf6b859a1149,001,2025-04-30_23h04.50.931,empathy_intonation_perc,2024.1.4,MacIntel,58.82352941,,,,,,,,,,,,,,25,vigor,,,,,,311.775,312.94,0,1,0.63,,0,160,160,24,1,two_way_cognate,1,REAL,FALSA
,,,,,,,,,63eaa34e4d5bdf6b859a1149,001,2025-04-30_23h04.50.931,empathy_intonation_perc,2024.1.4,MacIntel,58.82352941,,,,,,,,,,,,,,182,desaro,,,,,,312.94,314.24,0,1,0.78,,0,161,161,181,1,pseudoword,0,REAL,FALSA
,,,,,,,,,63eaa34e4d5bdf6b859a1149,001,2025-04-30_23h04.50.931,empathy_intonation_perc,2024.1.4,MacIntel,58.82352941,,,,,,,,,,,,,,64,rizado,,,,,,314.241,315.624,0,1,0.849,,0,162,162,63,1,non_cognate,1,REAL,FALSA
,,,,,,,,,63eaa34e4d5bdf6b859a1149,001,2025-04-30_23h04.50.931,empathy_intonation_perc,2024.1.4,MacIntel,58.82352941,,,,,,,,,,,,,,68,puñal,,,,,,315.624,317.624,1,0,1.485,,0,163,163,67,1,non_cognate,1,REAL,FALSA
,,,,,,,,,63eaa34e4d5bdf6b859a1149,001,2025-04-30_23h04.50.931,empathy_intonation_perc,2024.1.4,MacIntel,58.82352941,,,,,,,,,,,,,,118,bará,,,,,,317.624,318.79,0,1,0.633,,0,164,164,117,1,pseudoword,0,REAL,FALSA
,,,,,,,,,63eaa34e4d5bdf6b859a1149,001,2025-04-30_23h04.50.931,empathy_intonation_perc,2024.1.4,MacIntel,58.82352941,,,,,,,,,,,,,,55,maldad,,,,,,318.791,320.007,0,1,0.685,,0,165,165,54,1,non_cognate,1,REAL,FALSA
,,,,,,,,,63eaa34e4d5bdf6b859a1149,001,2025-04-30_23h04.50.931,empathy_intonation_perc,2024.1.4,MacIntel,58.82352941,,,,,,,,,,,,,,85,enorme,,,,,,320.008,321.174,1,0,0.631,,0,166,166,84,1,non_cognate,1,REAL,FALSA
,,,,,,,,,63eaa34e4d5bdf6b859a1149,001,2025-04-30_23h04.50.931,empathy_intonation_perc,2024.1.4,MacIntel,58.82352941,,,,,,,,,,,,,,35,aurora,,,,,,321.174,322.607,1,0,0.917,,0,167,167,34,1,two_way_cognate,1,REAL,FALSA
,,,,,,,,,63eaa34e4d5bdf6b859a1149,001,2025-04-30_23h04.50.931,empathy_intonation_perc,2024.1.4,MacIntel,58.82352941,,,,,,,,,,,,,,19,mafia,,,,,,322.608,324.291,1,0,1.148,,0,168,168,18,1,three_way_cognate,1,REAL,FALSA
,,,,,,,,,63eaa34e4d5bdf6b859a1149,001,2025-04-30_23h04.50.931,empathy_intonation_perc,2024.1.4,MacIntel,58.82352941,,,,,,,,,,,,,,94,forro,,,,,,324.291,325.807,0,1,0.998,,0,169,169,93,1,non_cognate,1,REAL,FALSA
,,,,,,,,,63eaa34e4d5bdf6b859a1149,001,2025-04-30_23h04.50.931,empathy_intonation_perc,2024.1.4,MacIntel,58.82352941,,,,,,,,,,,,,,152,prave,,,,,,325.808,326.941,0,1,0.598,,0,170,170,151,1,pseudoword,0,REAL,FALSA
,,,,,,,,,63eaa34e4d5bdf6b859a1149,001,2025-04-30_23h04.50.931,empathy_intonation_perc,2024.1.4,MacIntel,58.82352941,,,,,,,,,,,,,,60,siglo,,,,,,326.942,327.958,0,1,0.485,,0,171,171,59,1,non_cognate,1,REAL,FALSA
,,,,,,,,,63eaa34e4d5bdf6b859a1149,001,2025-04-30_23h04.50.931,empathy_intonation_perc,2024.1.4,MacIntel,58.82352941,,,,,,,,,,,,,,101,losco,,,,,,327.958,330.291,0,1,1.8,,0,172,172,100,1,pseudoword,0,REAL,FALSA
,,,,,,,,,63eaa34e4d5bdf6b859a1149,001,2025-04-30_23h04.50.931,empathy_intonation_perc,2024.1.4,MacIntel,58.82352941,,,,,,,,,,,,,,84,aviso,,,,,,330.292,331.524,1,0,0.699,,0,173,173,83,1,non_cognate,1,REAL,FALSA
,,,,,,,,,63eaa34e4d5bdf6b859a1149,001,2025-04-30_23h04.50.931,empathy_intonation_perc,2024.1.4,MacIntel,58.82352941,,,,,,,,,,,,,,154,harvé,,,,,,331.525,332.891,0,1,0.835,,0,174,174,153,1,pseudoword,0,REAL,FALSA
,,,,,,,,,63eaa34e4d5bdf6b859a1149,001,2025-04-30_23h04.50.931,empathy_intonation_perc,2024.1.4,MacIntel,58.82352941,,,,,,,,,,,,,,128,pelí,,,,,,332.892,334.624,1,0,1.204,,0,175,175,127,1,pseudoword,0,REAL,FALSA
,,,,,,,,,63eaa34e4d5bdf6b859a1149,001,2025-04-30_23h04.50.931,empathy_intonation_perc,2024.1.4,MacIntel,58.82352941,,,,,,,,,,,,,,97,nocita,,,,,,334.624,336.125,0,1,0.982,,0,176,176,96,1,pseudoword,0,REAL,FALSA
,,,,,,,,,63eaa34e4d5bdf6b859a1149,001,2025-04-30_23h04.50.931,empathy_intonation_perc,2024.1.4,MacIntel,58.82352941,,,,,,,,,,,,,,51,listo,,,,,,336.125,337.291,1,0,0.63,,0,177,177,50,1,non_cognate,1,REAL,FALSA
,,,,,,,,,63eaa34e4d5bdf6b859a1149,001,2025-04-30_23h04.50.931,empathy_intonation_perc,2024.1.4,MacIntel,58.82352941,,,,,,,,,,,,,,183,edioso,,,,,,337.292,338.958,0,1,1.132,,0,178,178,182,1,pseudoword,0,REAL,FALSA
,,,,,,,,,63eaa34e4d5bdf6b859a1149,001,2025-04-30_23h04.50.931,empathy_intonation_perc,2024.1.4,MacIntel,58.82352941,,,,,,,,,,,,,,11,golf,,,,,,338.958,340.958,1,0,1.481,,0,179,179,10,1,three_way_cognate,1,REAL,FALSA
,,,,,,,,,63eaa34e4d5bdf6b859a1149,001,2025-04-30_23h04.50.931,empathy_intonation_perc,2024.1.4,MacIntel,58.82352941,,,,,,,,,,,,,,53,punta,,,,,,340.959,342.192,1,0,0.697,,0,180,180,52,1,non_cognate,1,REAL,FALSA
,,,,,,,,,63eaa34e4d5bdf6b859a1149,001,2025-04-30_23h04.50.931,empathy_intonation_perc,2024.1.4,MacIntel,58.82352941,,,,,,,,,,,,,,126,tobre,,,,,,342.192,343.658,0,1,0.947,,0,181,181,125,1,pseudoword,0,REAL,FALSA
,,,,,,,,,63eaa34e4d5bdf6b859a1149,001,2025-04-30_23h04.50.931,empathy_intonation_perc,2024.1.4,MacIntel,58.82352941,,,,,,,,,,,,,,138,tator,,,,,,343.658,344.891,0,1,0.696,,0,182,182,137,1,pseudoword,0,REAL,FALSA
,,,,,,,,,63eaa34e4d5bdf6b859a1149,001,2025-04-30_23h04.50.931,empathy_intonation_perc,2024.1.4,MacIntel,58.82352941,,,,,,,,,,,,,,191,frasis,,,,,,344.892,346.859,0,1,1.448,,0,183,183,190,1,pseudoword,0,REAL,FALSA
,,,,,,,,,63eaa34e4d5bdf6b859a1149,001,2025-04-30_23h04.50.931,empathy_intonation_perc,2024.1.4,MacIntel,58.82352941,,,,,,,,,,,,,,4,flora,,,,,,346.859,348.092,1,0,0.696,,0,184,184,3,1,three_way_cognate,1,REAL,FALSA
,,,,,,,,,63eaa34e4d5bdf6b859a1149,001,2025-04-30_23h04.50.931,empathy_intonation_perc,2024.1.4,MacIntel,58.82352941,,,,,,,,,,,,,,74,ala,,,,,,348.093,349.509,0,1,0.886,,0,185,185,73,1,non_cognate,1,REAL,FALSA
,,,,,,,,,63eaa34e4d5bdf6b859a1149,001,2025-04-30_23h04.50.931,empathy_intonation_perc,2024.1.4,MacIntel,58.82352941,,,,,,,,,,,,,,179,suelet,,,,,,349.509,350.876,0,1,0.846,,0,186,186,178,1,pseudoword,0,REAL,FALSA
,,,,,,,,,63eaa34e4d5bdf6b859a1149,001,2025-04-30_23h04.50.931,empathy_intonation_perc,2024.1.4,MacIntel,58.82352941,,,,,,,,,,,,,,163,llzan,,,,,,350.876,352.359,0,1,0.948,,0,187,187,162,1,pseudoword,0,REAL,FALSA
,,,,,,,,,63eaa34e4d5bdf6b859a1149,001,2025-04-30_23h04.50.931,empathy_intonation_perc,2024.1.4,MacIntel,58.82352941,,,,,,,,,,,,,,190,asumie,,,,,,352.36,353.626,0,1,0.738,,0,188,188,189,1,pseudoword,0,REAL,FALSA
,,,,,,,,,63eaa34e4d5bdf6b859a1149,001,2025-04-30_23h04.50.931,empathy_intonation_perc,2024.1.4,MacIntel,58.82352941,,,,,,,,,,,,,,9,portal,,,,,,353.626,354.875,1,0,0.731,,0,189,189,8,1,three_way_cognate,1,REAL,FALSA
,,,,,,,,,63eaa34e4d5bdf6b859a1149,001,2025-04-30_23h04.50.931,empathy_intonation_perc,2024.1.4,MacIntel,58.82352941,,,,,,,,,,,,,,58,colcha,,,,,,354.876,356.342,0,1,0.947,,0,190,190,57,1,non_cognate,1,REAL,FALSA
,,,,,,,,,63eaa34e4d5bdf6b859a1149,001,2025-04-30_23h04.50.931,empathy_intonation_perc,2024.1.4,MacIntel,58.82352941,,,,,,,,,,,,,,113,nasce,,,,,,356.342,358.043,0,1,1.188,,0,191,191,112,1,pseudoword,0,REAL,FALSA
