lextale_instructions.started,lextale_instructions.stopped,lextale_instructions_loop.thisRepN,lextale_instructions_loop.thisTrialN,lextale_instructions_loop.thisN,lextale_instructions_loop.thisIndex,lextale_instructions_loop.ran,instructions_text,continue_text,participant,session,date,expName,psychopyVersion,OS,frameRate,lextale_practice.started,lextale_practice.stopped,key_resp_lextale_practice.keys,key_resp_lextale_practice.corr,key_resp_lextale_practice.rt,key_resp_lextale_practice.duration,lextale_practice_feedback.started,lextale_practice_feedback.stopped,lextale_practice_trials.thisRepN,lextale_practice_trials.thisTrialN,lextale_practice_trials.thisN,lextale_practice_trials.thisIndex,lextale_practice_trials.ran,stim,word,correct_response,prac_button_real,prac_button_false,lextale_check.started,lextale_check.stopped,lextale_trial.started,lextale_trial.stopped,key_resp_lextale_trial.keys,key_resp_lextale_trial.corr,key_resp_lextale_trial.rt,key_resp_lextale_trial.duration,lextail_trials.thisRepN,lextail_trials.thisTrialN,lextail_trials.thisN,lextail_trials.thisIndex,lextail_trials.ran,type,correct_reponse,button_real,button_false
0.0029,10.3705,0,0,0,0,1,"Este es un test de vocabulario en español. 
  
  A continuación vas a ver 90 secuencias de letras que parecen 'españolas'.
  
  Solo algunas de ellas son palabras de verdad.",(presiona la barra espaciadora para continuar),677fb6d0512e28a81c78000c,001,2025-04-30_10h10.25.704,empathy_intonation_perc,2024.1.4,Win32,60.24096386,,,,,,,,,,,,,,,,,,,,,,,,,,,,,,,,,,,
10.3709,12.9035,0,1,1,1,1,"Por favor, señala las palabras que tú conoces (aquellas que estás convencido que son palabras españolas, incluso aunque no seas capaz de dar el significado preciso).",(presiona la barra espaciadora para continuar),677fb6d0512e28a81c78000c,001,2025-04-30_10h10.25.704,empathy_intonation_perc,2024.1.4,Win32,60.24096386,,,,,,,,,,,,,,,,,,,,,,,,,,,,,,,,,,,
12.9039,18.8536,0,2,2,2,1,Pero cuidado: los errores se penalizan. Por eso no tiene sentido tratar de incrementar tu puntuación marcando como reales palabras que nunca has visto.,(presiona la barra espaciadora para continuar),677fb6d0512e28a81c78000c,001,2025-04-30_10h10.25.704,empathy_intonation_perc,2024.1.4,Win32,60.24096386,,,,,,,,,,,,,,,,,,,,,,,,,,,,,,,,,,,
18.8538,23.3035,0,3,3,3,1,"Presiona la tecla 1 si piensas que es una palabra real y la tecla 
  0 si piensas que es una palabra falsa. 
  
  Vamos a practicar un poco...",(presiona la barra espaciadora para continuar),677fb6d0512e28a81c78000c,001,2025-04-30_10h10.25.704,empathy_intonation_perc,2024.1.4,Win32,60.24096386,,,,,,,,,,,,,,,,,,,,,,,,,,,,,,,,,,,
,,,,,,,,,677fb6d0512e28a81c78000c,001,2025-04-30_10h10.25.704,empathy_intonation_perc,2024.1.4,Win32,60.24096386,23.3051,27.3039,1,0,3.4653,,27.3041,28.3037,0,0,0,0,1,0,depiste,0,REAL,FALSA,,,,,,,,,,,,,,,,,
,,,,,,,,,677fb6d0512e28a81c78000c,001,2025-04-30_10h10.25.704,empathy_intonation_perc,2024.1.4,Win32,60.24096386,28.3039,30.7371,1,1,1.8975,,30.7371,31.7369,0,1,1,1,1,0,sí,1,REAL,FALSA,,,,,,,,,,,,,,,,,
,,,,,,,,,677fb6d0512e28a81c78000c,001,2025-04-30_10h10.25.704,empathy_intonation_perc,2024.1.4,Win32,60.24096386,31.7373,34.2373,0,1,1.9728,,34.2373,35.2372,0,2,2,2,1,0,coné,0,REAL,FALSA,,,,,,,,,,,,,,,,,
,,,,,,,,,677fb6d0512e28a81c78000c,001,2025-04-30_10h10.25.704,empathy_intonation_perc,2024.1.4,Win32,60.24096386,35.2375,36.704,1,0,0.9302,,36.7041,37.7037,0,3,3,3,1,0,calpar,0,REAL,FALSA,,,,,,,,,,,,,,,,,
,,,,,,,,,677fb6d0512e28a81c78000c,001,2025-04-30_10h10.25.704,empathy_intonation_perc,2024.1.4,Win32,60.24096386,37.7038,39.3371,0,1,1.1012,,39.3372,40.3372,0,4,4,4,1,0,joten,0,REAL,FALSA,,,,,,,,,,,,,,,,,
,,,,,,,,,677fb6d0512e28a81c78000c,001,2025-04-30_10h10.25.704,empathy_intonation_perc,2024.1.4,Win32,60.24096386,40.3377,42.0204,1,1,1.1478,,42.0204,43.0207,0,5,5,5,1,0,sacapuntas,1,REAL,FALSA,,,,,,,,,,,,,,,,,
,,,,,,,,,677fb6d0512e28a81c78000c,001,2025-04-30_10h10.25.704,empathy_intonation_perc,2024.1.4,Win32,60.24096386,43.0209,44.9538,0,1,1.3965,,44.9539,45.954,0,6,6,6,1,0,priba,0,REAL,FALSA,,,,,,,,,,,,,,,,,
,,,,,,,,,677fb6d0512e28a81c78000c,001,2025-04-30_10h10.25.704,empathy_intonation_perc,2024.1.4,Win32,60.24096386,45.9543,47.4871,1,0,0.9983,,47.4871,48.4872,0,7,7,7,1,0,pelasula,0,REAL,FALSA,,,,,,,,,,,,,,,,,
,,,,,,,,,677fb6d0512e28a81c78000c,001,2025-04-30_10h10.25.704,empathy_intonation_perc,2024.1.4,Win32,60.24096386,48.4874,49.854,1,1,0.8321,,49.854,50.8535,0,8,8,8,1,0,bien,1,REAL,FALSA,,,,,,,,,,,,,,,,,
,,,,,,,,,677fb6d0512e28a81c78000c,001,2025-04-30_10h10.25.704,empathy_intonation_perc,2024.1.4,Win32,60.24096386,50.8537,52.0703,1,1,0.6984,,52.0704,53.0703,0,9,9,9,1,0,casa,1,REAL,FALSA,,,,,,,,,,,,,,,,,
,,,,,,,,,677fb6d0512e28a81c78000c,001,2025-04-30_10h10.25.704,empathy_intonation_perc,2024.1.4,Win32,60.24096386,53.0705,54.6872,1,0,1.0943,,54.6872,55.6871,0,10,10,10,1,0,lejo,0,REAL,FALSA,,,,,,,,,,,,,,,,,
,,,,,,,,,677fb6d0512e28a81c78000c,001,2025-04-30_10h10.25.704,empathy_intonation_perc,2024.1.4,Win32,60.24096386,55.6873,57.087,1,0,0.8664,,57.087,58.0869,0,11,11,11,1,0,pretantas,0,REAL,FALSA,,,,,,,,,,,,,,,,,
,,,,,,,,,677fb6d0512e28a81c78000c,001,2025-04-30_10h10.25.704,empathy_intonation_perc,2024.1.4,Win32,60.24096386,,,,,,,,,,,,,,,,,,,58.087,61.7206,,,,,,,,,,,,,,,
,,,,,,,,,677fb6d0512e28a81c78000c,001,2025-04-30_10h10.25.704,empathy_intonation_perc,2024.1.4,Win32,60.24096386,,,,,,,,,,,,,,146,gió,,,,,,61.7259,63.9205,0,1,1.6643,,0,0,0,145,1,pseudoword,0,REAL,FALSA
,,,,,,,,,677fb6d0512e28a81c78000c,001,2025-04-30_10h10.25.704,empathy_intonation_perc,2024.1.4,Win32,60.24096386,,,,,,,,,,,,,,75,patada,,,,,,63.9208,66.9205,1,0,2.4637,,0,1,1,74,1,non_cognate,1,REAL,FALSA
,,,,,,,,,677fb6d0512e28a81c78000c,001,2025-04-30_10h10.25.704,empathy_intonation_perc,2024.1.4,Win32,60.24096386,,,,,,,,,,,,,,174,pabea,,,,,,66.9207,69.604,0,1,2.148,,0,2,2,173,1,pseudoword,0,REAL,FALSA
,,,,,,,,,677fb6d0512e28a81c78000c,001,2025-04-30_10h10.25.704,empathy_intonation_perc,2024.1.4,Win32,60.24096386,,,,,,,,,,,,,,30,fiscal,,,,,,69.6043,70.737,1,0,0.6236,,0,3,3,29,1,two_way_cognate,1,REAL,FALSA
,,,,,,,,,677fb6d0512e28a81c78000c,001,2025-04-30_10h10.25.704,empathy_intonation_perc,2024.1.4,Win32,60.24096386,,,,,,,,,,,,,,107,plago,,,,,,70.7373,71.8373,1,0,0.5683,,0,4,4,106,1,pseudoword,0,REAL,FALSA
,,,,,,,,,677fb6d0512e28a81c78000c,001,2025-04-30_10h10.25.704,empathy_intonation_perc,2024.1.4,Win32,60.24096386,,,,,,,,,,,,,,112,samón,,,,,,71.8375,73.2872,1,0,0.9168,,0,5,5,111,1,pseudoword,0,REAL,FALSA
,,,,,,,,,677fb6d0512e28a81c78000c,001,2025-04-30_10h10.25.704,empathy_intonation_perc,2024.1.4,Win32,60.24096386,,,,,,,,,,,,,,27,piano,,,,,,73.2874,79.2039,1,0,5.3847,,0,6,6,26,1,two_way_cognate,1,REAL,FALSA
,,,,,,,,,677fb6d0512e28a81c78000c,001,2025-04-30_10h10.25.704,empathy_intonation_perc,2024.1.4,Win32,60.24096386,,,,,,,,,,,,,,61,aduana,,,,,,79.204,81.4704,0,1,1.7526,,0,7,7,60,1,non_cognate,1,REAL,FALSA
,,,,,,,,,677fb6d0512e28a81c78000c,001,2025-04-30_10h10.25.704,empathy_intonation_perc,2024.1.4,Win32,60.24096386,,,,,,,,,,,,,,110,densó,,,,,,81.4706,84.9204,0,1,2.9248,,0,8,8,109,1,pseudoword,0,REAL,FALSA
,,,,,,,,,677fb6d0512e28a81c78000c,001,2025-04-30_10h10.25.704,empathy_intonation_perc,2024.1.4,Win32,60.24096386,,,,,,,,,,,,,,18,altar,,,,,,84.9207,85.921,1,0,0.4916,,0,9,9,17,1,three_way_cognate,1,REAL,FALSA
,,,,,,,,,677fb6d0512e28a81c78000c,001,2025-04-30_10h10.25.704,empathy_intonation_perc,2024.1.4,Win32,60.24096386,,,,,,,,,,,,,,7,albino,,,,,,85.9212,86.9875,1,0,0.5424,,0,10,10,6,1,three_way_cognate,1,REAL,FALSA
,,,,,,,,,677fb6d0512e28a81c78000c,001,2025-04-30_10h10.25.704,empathy_intonation_perc,2024.1.4,Win32,60.24096386,,,,,,,,,,,,,,120,mauja,,,,,,86.9877,88.6208,0,1,1.1013,,0,11,11,119,1,pseudoword,0,REAL,FALSA
,,,,,,,,,677fb6d0512e28a81c78000c,001,2025-04-30_10h10.25.704,empathy_intonation_perc,2024.1.4,Win32,60.24096386,,,,,,,,,,,,,,172,dogue,,,,,,88.621,90.0038,0,1,0.8489,,0,12,12,171,1,pseudoword,0,REAL,FALSA
,,,,,,,,,677fb6d0512e28a81c78000c,001,2025-04-30_10h10.25.704,empathy_intonation_perc,2024.1.4,Win32,60.24096386,,,,,,,,,,,,,,155,kugis,,,,,,90.0041,91.5538,0,1,1.0144,,0,13,13,154,1,pseudoword,0,REAL,FALSA
,,,,,,,,,677fb6d0512e28a81c78000c,001,2025-04-30_10h10.25.704,empathy_intonation_perc,2024.1.4,Win32,60.24096386,,,,,,,,,,,,,,105,peniz,,,,,,91.5541,93.6704,1,0,1.5853,,0,14,14,104,1,pseudoword,0,REAL,FALSA
,,,,,,,,,677fb6d0512e28a81c78000c,001,2025-04-30_10h10.25.704,empathy_intonation_perc,2024.1.4,Win32,60.24096386,,,,,,,,,,,,,,51,listo,,,,,,93.6707,94.7705,1,0,0.5672,,0,15,15,50,1,non_cognate,1,REAL,FALSA
,,,,,,,,,677fb6d0512e28a81c78000c,001,2025-04-30_10h10.25.704,empathy_intonation_perc,2024.1.4,Win32,60.24096386,,,,,,,,,,,,,,26,enigma,,,,,,94.7707,95.8708,1,0,0.565,,0,16,16,25,1,two_way_cognate,1,REAL,FALSA
,,,,,,,,,677fb6d0512e28a81c78000c,001,2025-04-30_10h10.25.704,empathy_intonation_perc,2024.1.4,Win32,60.24096386,,,,,,,,,,,,,,34,actor,,,,,,95.871,96.9041,1,0,0.5,,0,17,17,33,1,two_way_cognate,1,REAL,FALSA
,,,,,,,,,677fb6d0512e28a81c78000c,001,2025-04-30_10h10.25.704,empathy_intonation_perc,2024.1.4,Win32,60.24096386,,,,,,,,,,,,,,128,pelí,,,,,,96.9043,98.454,1,0,1.0218,,0,18,18,127,1,pseudoword,0,REAL,FALSA
,,,,,,,,,677fb6d0512e28a81c78000c,001,2025-04-30_10h10.25.704,empathy_intonation_perc,2024.1.4,Win32,60.24096386,,,,,,,,,,,,,,144,diroco,,,,,,98.4542,100.1373,1,0,1.1621,,0,19,19,143,1,pseudoword,0,REAL,FALSA
,,,,,,,,,677fb6d0512e28a81c78000c,001,2025-04-30_10h10.25.704,empathy_intonation_perc,2024.1.4,Win32,60.24096386,,,,,,,,,,,,,,89,muñeca,,,,,,100.1375,101.3539,1,0,0.6803,,0,20,20,88,1,non_cognate,1,REAL,FALSA
,,,,,,,,,677fb6d0512e28a81c78000c,001,2025-04-30_10h10.25.704,empathy_intonation_perc,2024.1.4,Win32,60.24096386,,,,,,,,,,,,,,96,caro,,,,,,101.3541,102.3208,1,0,0.4395,,0,21,21,95,1,non_cognate,1,REAL,FALSA
,,,,,,,,,677fb6d0512e28a81c78000c,001,2025-04-30_10h10.25.704,empathy_intonation_perc,2024.1.4,Win32,60.24096386,,,,,,,,,,,,,,154,harvé,,,,,,102.3209,103.6872,0,1,0.833,,0,22,22,153,1,pseudoword,0,REAL,FALSA
,,,,,,,,,677fb6d0512e28a81c78000c,001,2025-04-30_10h10.25.704,empathy_intonation_perc,2024.1.4,Win32,60.24096386,,,,,,,,,,,,,,109,laras,,,,,,103.6874,104.7705,1,0,0.5498,,0,23,23,108,1,pseudoword,0,REAL,FALSA
,,,,,,,,,677fb6d0512e28a81c78000c,001,2025-04-30_10h10.25.704,empathy_intonation_perc,2024.1.4,Win32,60.24096386,,,,,,,,,,,,,,168,cobén,,,,,,104.7706,106.0707,1,0,0.7823,,0,24,24,167,1,pseudoword,0,REAL,FALSA
,,,,,,,,,677fb6d0512e28a81c78000c,001,2025-04-30_10h10.25.704,empathy_intonation_perc,2024.1.4,Win32,60.24096386,,,,,,,,,,,,,,40,pelvis,,,,,,106.071,107.3538,1,0,0.7566,,0,25,25,39,1,two_way_cognate,1,REAL,FALSA
,,,,,,,,,677fb6d0512e28a81c78000c,001,2025-04-30_10h10.25.704,empathy_intonation_perc,2024.1.4,Win32,60.24096386,,,,,,,,,,,,,,150,cricó,,,,,,107.354,109.1375,0,1,1.2503,,0,26,26,149,1,pseudoword,0,REAL,FALSA
,,,,,,,,,677fb6d0512e28a81c78000c,001,2025-04-30_10h10.25.704,empathy_intonation_perc,2024.1.4,Win32,60.24096386,,,,,,,,,,,,,,186,rizate,,,,,,109.1378,110.6541,0,1,0.99,,0,27,27,185,1,pseudoword,0,REAL,FALSA
,,,,,,,,,677fb6d0512e28a81c78000c,001,2025-04-30_10h10.25.704,empathy_intonation_perc,2024.1.4,Win32,60.24096386,,,,,,,,,,,,,,74,ala,,,,,,110.6544,112.221,0,1,1.0308,,0,28,28,73,1,non_cognate,1,REAL,FALSA
,,,,,,,,,677fb6d0512e28a81c78000c,001,2025-04-30_10h10.25.704,empathy_intonation_perc,2024.1.4,Win32,60.24096386,,,,,,,,,,,,,,167,dobbo,,,,,,112.2213,113.7541,0,1,0.9965,,0,29,29,166,1,pseudoword,0,REAL,FALSA
,,,,,,,,,677fb6d0512e28a81c78000c,001,2025-04-30_10h10.25.704,empathy_intonation_perc,2024.1.4,Win32,60.24096386,,,,,,,,,,,,,,11,golf,,,,,,113.7543,115.1712,1,0,0.8782,,0,30,30,10,1,three_way_cognate,1,REAL,FALSA
,,,,,,,,,677fb6d0512e28a81c78000c,001,2025-04-30_10h10.25.704,empathy_intonation_perc,2024.1.4,Win32,60.24096386,,,,,,,,,,,,,,53,punta,,,,,,115.1714,116.5205,1,0,0.82,,0,31,31,52,1,non_cognate,1,REAL,FALSA
,,,,,,,,,677fb6d0512e28a81c78000c,001,2025-04-30_10h10.25.704,empathy_intonation_perc,2024.1.4,Win32,60.24096386,,,,,,,,,,,,,,164,tecia,,,,,,116.5207,118.0877,1,0,1.0561,,0,32,32,163,1,pseudoword,0,REAL,FALSA
,,,,,,,,,677fb6d0512e28a81c78000c,001,2025-04-30_10h10.25.704,empathy_intonation_perc,2024.1.4,Win32,60.24096386,,,,,,,,,,,,,,134,molor,,,,,,118.0879,119.0871,1,0,0.4732,,0,33,33,133,1,pseudoword,0,REAL,FALSA
,,,,,,,,,677fb6d0512e28a81c78000c,001,2025-04-30_10h10.25.704,empathy_intonation_perc,2024.1.4,Win32,60.24096386,,,,,,,,,,,,,,108,jauda,,,,,,119.0873,120.0873,1,0,0.4867,,0,34,34,107,1,pseudoword,0,REAL,FALSA
,,,,,,,,,677fb6d0512e28a81c78000c,001,2025-04-30_10h10.25.704,empathy_intonation_perc,2024.1.4,Win32,60.24096386,,,,,,,,,,,,,,183,edioso,,,,,,120.0875,121.3041,1,0,0.6818,,0,35,35,182,1,pseudoword,0,REAL,FALSA
,,,,,,,,,677fb6d0512e28a81c78000c,001,2025-04-30_10h10.25.704,empathy_intonation_perc,2024.1.4,Win32,60.24096386,,,,,,,,,,,,,,12,dogma,,,,,,121.3045,122.6376,1,0,0.799,,0,36,36,11,1,three_way_cognate,1,REAL,FALSA
,,,,,,,,,677fb6d0512e28a81c78000c,001,2025-04-30_10h10.25.704,empathy_intonation_perc,2024.1.4,Win32,60.24096386,,,,,,,,,,,,,,16,chat,,,,,,122.6381,127.454,1,0,4.2841,,0,37,37,15,1,three_way_cognate,1,REAL,FALSA
,,,,,,,,,677fb6d0512e28a81c78000c,001,2025-04-30_10h10.25.704,empathy_intonation_perc,2024.1.4,Win32,60.24096386,,,,,,,,,,,,,,91,equipo,,,,,,127.4542,128.5376,1,0,0.5426,,0,38,38,90,1,non_cognate,1,REAL,FALSA
,,,,,,,,,677fb6d0512e28a81c78000c,001,2025-04-30_10h10.25.704,empathy_intonation_perc,2024.1.4,Win32,60.24096386,,,,,,,,,,,,,,84,aviso,,,,,,128.5378,129.721,1,0,0.6534,,0,39,39,83,1,non_cognate,1,REAL,FALSA
,,,,,,,,,677fb6d0512e28a81c78000c,001,2025-04-30_10h10.25.704,empathy_intonation_perc,2024.1.4,Win32,60.24096386,,,,,,,,,,,,,,170,diabo,,,,,,129.7211,130.771,1,0,0.5145,,0,40,40,169,1,pseudoword,0,REAL,FALSA
,,,,,,,,,677fb6d0512e28a81c78000c,001,2025-04-30_10h10.25.704,empathy_intonation_perc,2024.1.4,Win32,60.24096386,,,,,,,,,,,,,,85,enorme,,,,,,130.7714,131.8207,1,0,0.52,,0,41,41,84,1,non_cognate,1,REAL,FALSA
,,,,,,,,,677fb6d0512e28a81c78000c,001,2025-04-30_10h10.25.704,empathy_intonation_perc,2024.1.4,Win32,60.24096386,,,,,,,,,,,,,,161,civas,,,,,,131.8209,132.7872,1,0,0.435,,0,42,42,160,1,pseudoword,0,REAL,FALSA
,,,,,,,,,677fb6d0512e28a81c78000c,001,2025-04-30_10h10.25.704,empathy_intonation_perc,2024.1.4,Win32,60.24096386,,,,,,,,,,,,,,185,aljizo,,,,,,132.7874,134.3209,1,0,1.0171,,0,43,43,184,1,pseudoword,0,REAL,FALSA
,,,,,,,,,677fb6d0512e28a81c78000c,001,2025-04-30_10h10.25.704,empathy_intonation_perc,2024.1.4,Win32,60.24096386,,,,,,,,,,,,,,87,muleta,,,,,,134.3211,135.454,1,0,0.6,,0,44,44,86,1,non_cognate,1,REAL,FALSA
,,,,,,,,,677fb6d0512e28a81c78000c,001,2025-04-30_10h10.25.704,empathy_intonation_perc,2024.1.4,Win32,60.24096386,,,,,,,,,,,,,,111,monue,,,,,,135.4543,136.8873,0,1,0.8976,,0,45,45,110,1,pseudoword,0,REAL,FALSA
,,,,,,,,,677fb6d0512e28a81c78000c,001,2025-04-30_10h10.25.704,empathy_intonation_perc,2024.1.4,Win32,60.24096386,,,,,,,,,,,,,,184,huenos,,,,,,136.8879,138.1872,1,0,0.7656,,0,46,46,183,1,pseudoword,0,REAL,FALSA
,,,,,,,,,677fb6d0512e28a81c78000c,001,2025-04-30_10h10.25.704,empathy_intonation_perc,2024.1.4,Win32,60.24096386,,,,,,,,,,,,,,152,prave,,,,,,138.1876,139.9708,0,1,1.275,,0,47,47,151,1,pseudoword,0,REAL,FALSA
,,,,,,,,,677fb6d0512e28a81c78000c,001,2025-04-30_10h10.25.704,empathy_intonation_perc,2024.1.4,Win32,60.24096386,,,,,,,,,,,,,,114,dibrea,,,,,,139.971,141.2875,1,0,0.7804,,0,48,48,113,1,pseudoword,0,REAL,FALSA
,,,,,,,,,677fb6d0512e28a81c78000c,001,2025-04-30_10h10.25.704,empathy_intonation_perc,2024.1.4,Win32,60.24096386,,,,,,,,,,,,,,149,emén,,,,,,141.2877,143.0207,1,0,1.2046,,0,49,49,148,1,pseudoword,0,REAL,FALSA
,,,,,,,,,677fb6d0512e28a81c78000c,001,2025-04-30_10h10.25.704,empathy_intonation_perc,2024.1.4,Win32,60.24096386,,,,,,,,,,,,,,28,ardor,,,,,,143.0209,144.1707,1,0,0.6208,,0,50,50,27,1,two_way_cognate,1,REAL,FALSA
,,,,,,,,,677fb6d0512e28a81c78000c,001,2025-04-30_10h10.25.704,empathy_intonation_perc,2024.1.4,Win32,60.24096386,,,,,,,,,,,,,,98,martir,,,,,,144.1708,145.2873,1,0,0.5816,,0,51,51,97,1,pseudoword,0,REAL,FALSA
,,,,,,,,,677fb6d0512e28a81c78000c,001,2025-04-30_10h10.25.704,empathy_intonation_perc,2024.1.4,Win32,60.24096386,,,,,,,,,,,,,,162,cengo,,,,,,145.2875,146.8376,1,0,1.012,,0,52,52,161,1,pseudoword,0,REAL,FALSA
,,,,,,,,,677fb6d0512e28a81c78000c,001,2025-04-30_10h10.25.704,empathy_intonation_perc,2024.1.4,Win32,60.24096386,,,,,,,,,,,,,,33,collar,,,,,,146.8378,147.9206,1,0,0.5558,,0,53,53,32,1,two_way_cognate,1,REAL,FALSA
,,,,,,,,,677fb6d0512e28a81c78000c,001,2025-04-30_10h10.25.704,empathy_intonation_perc,2024.1.4,Win32,60.24096386,,,,,,,,,,,,,,178,inichó,,,,,,147.9208,149.7041,0,1,1.2731,,0,54,54,177,1,pseudoword,0,REAL,FALSA
,,,,,,,,,677fb6d0512e28a81c78000c,001,2025-04-30_10h10.25.704,empathy_intonation_perc,2024.1.4,Win32,60.24096386,,,,,,,,,,,,,,17,clan,,,,,,149.7043,150.8873,1,0,0.6508,,0,55,55,16,1,three_way_cognate,1,REAL,FALSA
,,,,,,,,,677fb6d0512e28a81c78000c,001,2025-04-30_10h10.25.704,empathy_intonation_perc,2024.1.4,Win32,60.24096386,,,,,,,,,,,,,,6,horror,,,,,,150.8876,152.0044,1,0,0.5819,,0,56,56,5,1,three_way_cognate,1,REAL,FALSA
,,,,,,,,,677fb6d0512e28a81c78000c,001,2025-04-30_10h10.25.704,empathy_intonation_perc,2024.1.4,Win32,60.24096386,,,,,,,,,,,,,,127,vien,,,,,,152.0047,153.0543,1,0,0.5155,,0,57,57,126,1,pseudoword,0,REAL,FALSA
,,,,,,,,,677fb6d0512e28a81c78000c,001,2025-04-30_10h10.25.704,empathy_intonation_perc,2024.1.4,Win32,60.24096386,,,,,,,,,,,,,,192,próces,,,,,,153.0545,154.2208,1,0,0.6307,,0,58,58,191,1,pseudoword,0,REAL,FALSA
,,,,,,,,,677fb6d0512e28a81c78000c,001,2025-04-30_10h10.25.704,empathy_intonation_perc,2024.1.4,Win32,60.24096386,,,,,,,,,,,,,,106,diebro,,,,,,154.2213,155.3875,1,0,0.6345,,0,59,59,105,1,pseudoword,0,REAL,FALSA
,,,,,,,,,677fb6d0512e28a81c78000c,001,2025-04-30_10h10.25.704,empathy_intonation_perc,2024.1.4,Win32,60.24096386,,,,,,,,,,,,,,46,mortal,,,,,,155.3877,156.5042,1,0,0.603,,0,60,60,45,1,two_way_cognate,1,REAL,FALSA
,,,,,,,,,677fb6d0512e28a81c78000c,001,2025-04-30_10h10.25.704,empathy_intonation_perc,2024.1.4,Win32,60.24096386,,,,,,,,,,,,,,76,chocar,,,,,,156.5044,157.4709,1,0,0.4481,,0,61,61,75,1,non_cognate,1,REAL,FALSA
,,,,,,,,,677fb6d0512e28a81c78000c,001,2025-04-30_10h10.25.704,empathy_intonation_perc,2024.1.4,Win32,60.24096386,,,,,,,,,,,,,,126,tobre,,,,,,157.4711,158.4376,1,0,0.4407,,0,62,62,125,1,pseudoword,0,REAL,FALSA
,,,,,,,,,677fb6d0512e28a81c78000c,001,2025-04-30_10h10.25.704,empathy_intonation_perc,2024.1.4,Win32,60.24096386,,,,,,,,,,,,,,173,mibro,,,,,,158.4378,159.3712,1,0,0.3993,,0,63,63,172,1,pseudoword,0,REAL,FALSA
,,,,,,,,,677fb6d0512e28a81c78000c,001,2025-04-30_10h10.25.704,empathy_intonation_perc,2024.1.4,Win32,60.24096386,,,,,,,,,,,,,,92,flecha,,,,,,159.3715,160.2709,1,0,0.3661,,0,64,64,91,1,non_cognate,1,REAL,FALSA
,,,,,,,,,677fb6d0512e28a81c78000c,001,2025-04-30_10h10.25.704,empathy_intonation_perc,2024.1.4,Win32,60.24096386,,,,,,,,,,,,,,14,aura,,,,,,160.271,161.9374,1,0,1.1371,,0,65,65,13,1,three_way_cognate,1,REAL,FALSA
,,,,,,,,,677fb6d0512e28a81c78000c,001,2025-04-30_10h10.25.704,empathy_intonation_perc,2024.1.4,Win32,60.24096386,,,,,,,,,,,,,,24,retina,,,,,,161.9378,163.1209,1,0,0.648,,0,66,66,23,1,three_way_cognate,1,REAL,FALSA
,,,,,,,,,677fb6d0512e28a81c78000c,001,2025-04-30_10h10.25.704,empathy_intonation_perc,2024.1.4,Win32,60.24096386,,,,,,,,,,,,,,82,brillo,,,,,,163.1211,164.5376,1,0,0.8831,,0,67,67,81,1,non_cognate,1,REAL,FALSA
,,,,,,,,,677fb6d0512e28a81c78000c,001,2025-04-30_10h10.25.704,empathy_intonation_perc,2024.1.4,Win32,60.24096386,,,,,,,,,,,,,,83,hálito,,,,,,164.5378,165.7373,1,0,0.6723,,0,68,68,82,1,non_cognate,1,REAL,FALSA
,,,,,,,,,677fb6d0512e28a81c78000c,001,2025-04-30_10h10.25.704,empathy_intonation_perc,2024.1.4,Win32,60.24096386,,,,,,,,,,,,,,141,virios,,,,,,165.7377,166.8542,1,0,0.5896,,0,69,69,140,1,pseudoword,0,REAL,FALSA
,,,,,,,,,677fb6d0512e28a81c78000c,001,2025-04-30_10h10.25.704,empathy_intonation_perc,2024.1.4,Win32,60.24096386,,,,,,,,,,,,,,77,suave,,,,,,166.8544,168.3875,1,0,1.0006,,0,70,70,76,1,non_cognate,1,REAL,FALSA
,,,,,,,,,677fb6d0512e28a81c78000c,001,2025-04-30_10h10.25.704,empathy_intonation_perc,2024.1.4,Win32,60.24096386,,,,,,,,,,,,,,1,moral,,,,,,168.3877,169.5045,1,0,0.5985,,0,71,71,0,1,three_way_cognate,1,REAL,FALSA
,,,,,,,,,677fb6d0512e28a81c78000c,001,2025-04-30_10h10.25.704,empathy_intonation_perc,2024.1.4,Win32,60.24096386,,,,,,,,,,,,,,43,honor,,,,,,169.5047,170.6708,1,0,0.6377,,0,72,72,42,1,two_way_cognate,1,REAL,FALSA
,,,,,,,,,677fb6d0512e28a81c78000c,001,2025-04-30_10h10.25.704,empathy_intonation_perc,2024.1.4,Win32,60.24096386,,,,,,,,,,,,,,151,prías,,,,,,170.6709,171.8375,1,0,0.6414,,0,73,73,150,1,pseudoword,0,REAL,FALSA
,,,,,,,,,677fb6d0512e28a81c78000c,001,2025-04-30_10h10.25.704,empathy_intonation_perc,2024.1.4,Win32,60.24096386,,,,,,,,,,,,,,63,hilo,,,,,,171.8378,173.2708,1,0,0.899,,0,74,74,62,1,non_cognate,1,REAL,FALSA
,,,,,,,,,677fb6d0512e28a81c78000c,001,2025-04-30_10h10.25.704,empathy_intonation_perc,2024.1.4,Win32,60.24096386,,,,,,,,,,,,,,21,hotel,,,,,,173.271,174.3875,1,0,0.5928,,0,75,75,20,1,three_way_cognate,1,REAL,FALSA
,,,,,,,,,677fb6d0512e28a81c78000c,001,2025-04-30_10h10.25.704,empathy_intonation_perc,2024.1.4,Win32,60.24096386,,,,,,,,,,,,,,166,anfia,,,,,,174.3876,175.8877,1,0,0.9835,,0,76,76,165,1,pseudoword,0,REAL,FALSA
,,,,,,,,,677fb6d0512e28a81c78000c,001,2025-04-30_10h10.25.704,empathy_intonation_perc,2024.1.4,Win32,60.24096386,,,,,,,,,,,,,,66,aleta,,,,,,175.888,178.5208,0,1,2.0982,,0,77,77,65,1,non_cognate,1,REAL,FALSA
,,,,,,,,,677fb6d0512e28a81c78000c,001,2025-04-30_10h10.25.704,empathy_intonation_perc,2024.1.4,Win32,60.24096386,,,,,,,,,,,,,,71,torta,,,,,,178.5211,179.8712,1,0,0.8201,,0,78,78,70,1,non_cognate,1,REAL,FALSA
,,,,,,,,,677fb6d0512e28a81c78000c,001,2025-04-30_10h10.25.704,empathy_intonation_perc,2024.1.4,Win32,60.24096386,,,,,,,,,,,,,,103,vueras,,,,,,179.8714,181.1376,1,0,0.7331,,0,79,79,102,1,pseudoword,0,REAL,FALSA
,,,,,,,,,677fb6d0512e28a81c78000c,001,2025-04-30_10h10.25.704,empathy_intonation_perc,2024.1.4,Win32,60.24096386,,,,,,,,,,,,,,9,portal,,,,,,181.1378,182.1377,1,0,0.4862,,0,80,80,8,1,three_way_cognate,1,REAL,FALSA
,,,,,,,,,677fb6d0512e28a81c78000c,001,2025-04-30_10h10.25.704,empathy_intonation_perc,2024.1.4,Win32,60.24096386,,,,,,,,,,,,,,48,pelvis,,,,,,182.1378,183.4544,1,0,0.7803,,0,81,81,47,1,two_way_cognate,1,REAL,FALSA
,,,,,,,,,677fb6d0512e28a81c78000c,001,2025-04-30_10h10.25.704,empathy_intonation_perc,2024.1.4,Win32,60.24096386,,,,,,,,,,,,,,4,flora,,,,,,183.4548,184.6712,1,0,0.6854,,0,82,82,3,1,three_way_cognate,1,REAL,FALSA
,,,,,,,,,677fb6d0512e28a81c78000c,001,2025-04-30_10h10.25.704,empathy_intonation_perc,2024.1.4,Win32,60.24096386,,,,,,,,,,,,,,125,ceme,,,,,,184.6715,186.3379,0,1,1.1342,,0,83,83,124,1,pseudoword,0,REAL,FALSA
,,,,,,,,,677fb6d0512e28a81c78000c,001,2025-04-30_10h10.25.704,empathy_intonation_perc,2024.1.4,Win32,60.24096386,,,,,,,,,,,,,,15,test,,,,,,186.3381,187.5879,1,0,0.7157,,0,84,84,14,1,three_way_cognate,1,REAL,FALSA
,,,,,,,,,677fb6d0512e28a81c78000c,001,2025-04-30_10h10.25.704,empathy_intonation_perc,2024.1.4,Win32,60.24096386,,,,,,,,,,,,,,100,épinas,,,,,,187.5881,189.1543,1,0,1.0383,,0,85,85,99,1,pseudoword,0,REAL,FALSA
,,,,,,,,,677fb6d0512e28a81c78000c,001,2025-04-30_10h10.25.704,empathy_intonation_perc,2024.1.4,Win32,60.24096386,,,,,,,,,,,,,,190,asumie,,,,,,189.1544,190.9876,0,1,1.323,,0,86,86,189,1,pseudoword,0,REAL,FALSA
,,,,,,,,,677fb6d0512e28a81c78000c,001,2025-04-30_10h10.25.704,empathy_intonation_perc,2024.1.4,Win32,60.24096386,,,,,,,,,,,,,,25,vigor,,,,,,190.9877,191.971,1,0,0.4697,,0,87,87,24,1,two_way_cognate,1,REAL,FALSA
,,,,,,,,,677fb6d0512e28a81c78000c,001,2025-04-30_10h10.25.704,empathy_intonation_perc,2024.1.4,Win32,60.24096386,,,,,,,,,,,,,,180,pupica,,,,,,191.9712,193.1045,1,0,0.6211,,0,88,88,179,1,pseudoword,0,REAL,FALSA
,,,,,,,,,677fb6d0512e28a81c78000c,001,2025-04-30_10h10.25.704,empathy_intonation_perc,2024.1.4,Win32,60.24096386,,,,,,,,,,,,,,132,nocó,,,,,,193.1047,194.6043,0,1,0.9694,,0,89,89,131,1,pseudoword,0,REAL,FALSA
,,,,,,,,,677fb6d0512e28a81c78000c,001,2025-04-30_10h10.25.704,empathy_intonation_perc,2024.1.4,Win32,60.24096386,,,,,,,,,,,,,,22,mango,,,,,,194.6046,195.6545,1,0,0.5186,,0,90,90,21,1,three_way_cognate,1,REAL,FALSA
,,,,,,,,,677fb6d0512e28a81c78000c,001,2025-04-30_10h10.25.704,empathy_intonation_perc,2024.1.4,Win32,60.24096386,,,,,,,,,,,,,,56,pico,,,,,,195.6547,196.7043,1,0,0.5166,,0,91,91,55,1,non_cognate,1,REAL,FALSA
,,,,,,,,,677fb6d0512e28a81c78000c,001,2025-04-30_10h10.25.704,empathy_intonation_perc,2024.1.4,Win32,60.24096386,,,,,,,,,,,,,,165,chote,,,,,,196.7046,197.9211,1,0,0.6827,,0,92,92,164,1,pseudoword,0,REAL,FALSA
,,,,,,,,,677fb6d0512e28a81c78000c,001,2025-04-30_10h10.25.704,empathy_intonation_perc,2024.1.4,Win32,60.24096386,,,,,,,,,,,,,,69,tiza,,,,,,197.9214,199.1375,1,0,0.6887,,0,93,93,68,1,non_cognate,1,REAL,FALSA
,,,,,,,,,677fb6d0512e28a81c78000c,001,2025-04-30_10h10.25.704,empathy_intonation_perc,2024.1.4,Win32,60.24096386,,,,,,,,,,,,,,130,dubo,,,,,,199.1377,200.921,0,1,1.256,,0,94,94,129,1,pseudoword,0,REAL,FALSA
,,,,,,,,,677fb6d0512e28a81c78000c,001,2025-04-30_10h10.25.704,empathy_intonation_perc,2024.1.4,Win32,60.24096386,,,,,,,,,,,,,,177,entodo,,,,,,200.9212,202.0709,1,0,0.6143,,0,95,95,176,1,pseudoword,0,REAL,FALSA
,,,,,,,,,677fb6d0512e28a81c78000c,001,2025-04-30_10h10.25.704,empathy_intonation_perc,2024.1.4,Win32,60.24096386,,,,,,,,,,,,,,131,fuar,,,,,,202.0713,203.8044,1,0,1.2152,,0,96,96,130,1,pseudoword,0,REAL,FALSA
,,,,,,,,,677fb6d0512e28a81c78000c,001,2025-04-30_10h10.25.704,empathy_intonation_perc,2024.1.4,Win32,60.24096386,,,,,,,,,,,,,,37,torso,,,,,,203.8047,204.8714,1,0,0.5475,,0,97,97,36,1,two_way_cognate,1,REAL,FALSA
,,,,,,,,,677fb6d0512e28a81c78000c,001,2025-04-30_10h10.25.704,empathy_intonation_perc,2024.1.4,Win32,60.24096386,,,,,,,,,,,,,,136,hueas,,,,,,204.8716,206.5379,0,1,1.1319,,0,98,98,135,1,pseudoword,0,REAL,FALSA
,,,,,,,,,677fb6d0512e28a81c78000c,001,2025-04-30_10h10.25.704,empathy_intonation_perc,2024.1.4,Win32,60.24096386,,,,,,,,,,,,,,62,pegar,,,,,,206.5382,207.6378,1,0,0.5647,,0,99,99,61,1,non_cognate,1,REAL,FALSA
,,,,,,,,,677fb6d0512e28a81c78000c,001,2025-04-30_10h10.25.704,empathy_intonation_perc,2024.1.4,Win32,60.24096386,,,,,,,,,,,,,,58,colcha,,,,,,207.6379,208.6876,1,0,0.5366,,0,100,100,57,1,non_cognate,1,REAL,FALSA
,,,,,,,,,677fb6d0512e28a81c78000c,001,2025-04-30_10h10.25.704,empathy_intonation_perc,2024.1.4,Win32,60.24096386,,,,,,,,,,,,,,5,extra,,,,,,208.6879,209.6711,1,0,0.4498,,0,101,101,4,1,three_way_cognate,1,REAL,FALSA
,,,,,,,,,677fb6d0512e28a81c78000c,001,2025-04-30_10h10.25.704,empathy_intonation_perc,2024.1.4,Win32,60.24096386,,,,,,,,,,,,,,171,gotro,,,,,,209.6713,210.6377,1,0,0.4511,,0,102,102,170,1,pseudoword,0,REAL,FALSA
,,,,,,,,,677fb6d0512e28a81c78000c,001,2025-04-30_10h10.25.704,empathy_intonation_perc,2024.1.4,Win32,60.24096386,,,,,,,,,,,,,,101,losco,,,,,,210.6379,211.6878,1,0,0.5156,,0,103,103,100,1,pseudoword,0,REAL,FALSA
,,,,,,,,,677fb6d0512e28a81c78000c,001,2025-04-30_10h10.25.704,empathy_intonation_perc,2024.1.4,Win32,60.24096386,,,,,,,,,,,,,,64,rizado,,,,,,211.6885,213.2878,1,0,1.0711,,0,104,104,63,1,non_cognate,1,REAL,FALSA
,,,,,,,,,677fb6d0512e28a81c78000c,001,2025-04-30_10h10.25.704,empathy_intonation_perc,2024.1.4,Win32,60.24096386,,,,,,,,,,,,,,41,pasta,,,,,,213.2881,214.4213,1,0,0.6078,,0,105,105,40,1,two_way_cognate,1,REAL,FALSA
,,,,,,,,,677fb6d0512e28a81c78000c,001,2025-04-30_10h10.25.704,empathy_intonation_perc,2024.1.4,Win32,60.24096386,,,,,,,,,,,,,,142,parre,,,,,,214.4215,215.6709,1,0,0.722,,0,106,106,141,1,pseudoword,0,REAL,FALSA
,,,,,,,,,677fb6d0512e28a81c78000c,001,2025-04-30_10h10.25.704,empathy_intonation_perc,2024.1.4,Win32,60.24096386,,,,,,,,,,,,,,73,llevar,,,,,,215.6711,217.0379,1,0,0.8481,,0,107,107,72,1,non_cognate,1,REAL,FALSA
,,,,,,,,,677fb6d0512e28a81c78000c,001,2025-04-30_10h10.25.704,empathy_intonation_perc,2024.1.4,Win32,60.24096386,,,,,,,,,,,,,,3,disco,,,,,,217.0382,218.1048,1,0,0.5314,,0,108,108,2,1,three_way_cognate,1,REAL,FALSA
,,,,,,,,,677fb6d0512e28a81c78000c,001,2025-04-30_10h10.25.704,empathy_intonation_perc,2024.1.4,Win32,60.24096386,,,,,,,,,,,,,,78,rendir,,,,,,218.105,219.1378,1,0,0.5049,,0,109,109,77,1,non_cognate,1,REAL,FALSA
,,,,,,,,,677fb6d0512e28a81c78000c,001,2025-04-30_10h10.25.704,empathy_intonation_perc,2024.1.4,Win32,60.24096386,,,,,,,,,,,,,,19,mafia,,,,,,219.1381,220.1882,1,0,0.5235,,0,110,110,18,1,three_way_cognate,1,REAL,FALSA
,,,,,,,,,677fb6d0512e28a81c78000c,001,2025-04-30_10h10.25.704,empathy_intonation_perc,2024.1.4,Win32,60.24096386,,,,,,,,,,,,,,57,regalo,,,,,,220.1884,221.4045,1,0,0.6908,,0,111,111,56,1,non_cognate,1,REAL,FALSA
,,,,,,,,,677fb6d0512e28a81c78000c,001,2025-04-30_10h10.25.704,empathy_intonation_perc,2024.1.4,Win32,60.24096386,,,,,,,,,,,,,,38,halo,,,,,,221.4047,222.5543,1,0,0.6223,,0,112,112,37,1,two_way_cognate,1,REAL,FALSA
,,,,,,,,,677fb6d0512e28a81c78000c,001,2025-04-30_10h10.25.704,empathy_intonation_perc,2024.1.4,Win32,60.24096386,,,,,,,,,,,,,,36,viable,,,,,,222.5546,223.9713,1,0,0.8879,,0,113,113,35,1,two_way_cognate,1,REAL,FALSA
,,,,,,,,,677fb6d0512e28a81c78000c,001,2025-04-30_10h10.25.704,empathy_intonation_perc,2024.1.4,Win32,60.24096386,,,,,,,,,,,,,,157,seled,,,,,,223.9716,225.7214,0,1,1.2233,,0,114,114,156,1,pseudoword,0,REAL,FALSA
,,,,,,,,,677fb6d0512e28a81c78000c,001,2025-04-30_10h10.25.704,empathy_intonation_perc,2024.1.4,Win32,60.24096386,,,,,,,,,,,,,,39,casual,,,,,,225.7215,226.9544,1,0,0.7044,,0,115,115,38,1,two_way_cognate,1,REAL,FALSA
,,,,,,,,,677fb6d0512e28a81c78000c,001,2025-04-30_10h10.25.704,empathy_intonation_perc,2024.1.4,Win32,60.24096386,,,,,,,,,,,,,,97,nocita,,,,,,226.9546,228.2045,1,0,0.724,,0,116,116,96,1,pseudoword,0,REAL,FALSA
,,,,,,,,,677fb6d0512e28a81c78000c,001,2025-04-30_10h10.25.704,empathy_intonation_perc,2024.1.4,Win32,60.24096386,,,,,,,,,,,,,,94,forro,,,,,,228.2048,229.6213,1,0,0.8871,,0,117,117,93,1,non_cognate,1,REAL,FALSA
,,,,,,,,,677fb6d0512e28a81c78000c,001,2025-04-30_10h10.25.704,empathy_intonation_perc,2024.1.4,Win32,60.24096386,,,,,,,,,,,,,,143,hurcos,,,,,,229.6216,230.7547,1,0,0.5992,,0,118,118,142,1,pseudoword,0,REAL,FALSA
,,,,,,,,,677fb6d0512e28a81c78000c,001,2025-04-30_10h10.25.704,empathy_intonation_perc,2024.1.4,Win32,60.24096386,,,,,,,,,,,,,,133,conso,,,,,,230.7549,231.7543,1,0,0.4755,,0,119,119,132,1,pseudoword,0,REAL,FALSA
,,,,,,,,,677fb6d0512e28a81c78000c,001,2025-04-30_10h10.25.704,empathy_intonation_perc,2024.1.4,Win32,60.24096386,,,,,,,,,,,,,,90,venado,,,,,,231.7545,232.7045,1,0,0.4392,,0,120,120,89,1,non_cognate,1,REAL,FALSA
,,,,,,,,,677fb6d0512e28a81c78000c,001,2025-04-30_10h10.25.704,empathy_intonation_perc,2024.1.4,Win32,60.24096386,,,,,,,,,,,,,,81,sacar,,,,,,232.7048,233.8543,1,0,0.6257,,0,121,121,80,1,non_cognate,1,REAL,FALSA
,,,,,,,,,677fb6d0512e28a81c78000c,001,2025-04-30_10h10.25.704,empathy_intonation_perc,2024.1.4,Win32,60.24096386,,,,,,,,,,,,,,88,percha,,,,,,233.8546,234.9378,1,0,0.5512,,0,122,122,87,1,non_cognate,1,REAL,FALSA
,,,,,,,,,677fb6d0512e28a81c78000c,001,2025-04-30_10h10.25.704,empathy_intonation_perc,2024.1.4,Win32,60.24096386,,,,,,,,,,,,,,163,llzan,,,,,,234.938,237.3378,0,1,1.8653,,0,123,123,162,1,pseudoword,0,REAL,FALSA
,,,,,,,,,677fb6d0512e28a81c78000c,001,2025-04-30_10h10.25.704,empathy_intonation_perc,2024.1.4,Win32,60.24096386,,,,,,,,,,,,,,182,desaro,,,,,,237.338,238.9712,1,0,1.101,,0,124,124,181,1,pseudoword,0,REAL,FALSA
,,,,,,,,,677fb6d0512e28a81c78000c,001,2025-04-30_10h10.25.704,empathy_intonation_perc,2024.1.4,Win32,60.24096386,,,,,,,,,,,,,,20,trauma,,,,,,238.9714,240.4214,1,0,0.9166,,0,125,125,19,1,three_way_cognate,1,REAL,FALSA
,,,,,,,,,677fb6d0512e28a81c78000c,001,2025-04-30_10h10.25.704,empathy_intonation_perc,2024.1.4,Win32,60.24096386,,,,,,,,,,,,,,47,color,,,,,,240.4217,241.5213,1,0,0.5682,,0,126,126,46,1,two_way_cognate,1,REAL,FALSA
,,,,,,,,,677fb6d0512e28a81c78000c,001,2025-04-30_10h10.25.704,empathy_intonation_perc,2024.1.4,Win32,60.24096386,,,,,,,,,,,,,,116,grigir,,,,,,241.5216,242.6879,1,0,0.6406,,0,127,127,115,1,pseudoword,0,REAL,FALSA
,,,,,,,,,677fb6d0512e28a81c78000c,001,2025-04-30_10h10.25.704,empathy_intonation_perc,2024.1.4,Win32,60.24096386,,,,,,,,,,,,,,102,coyo,,,,,,242.6881,243.9713,1,0,0.752,,0,128,128,101,1,pseudoword,0,REAL,FALSA
,,,,,,,,,677fb6d0512e28a81c78000c,001,2025-04-30_10h10.25.704,empathy_intonation_perc,2024.1.4,Win32,60.24096386,,,,,,,,,,,,,,35,aurora,,,,,,243.9715,245.7714,1,0,1.268,,0,129,129,34,1,two_way_cognate,1,REAL,FALSA
,,,,,,,,,677fb6d0512e28a81c78000c,001,2025-04-30_10h10.25.704,empathy_intonation_perc,2024.1.4,Win32,60.24096386,,,,,,,,,,,,,,113,nasce,,,,,,245.7718,247.2712,1,0,0.9739,,0,130,130,112,1,pseudoword,0,REAL,FALSA
,,,,,,,,,677fb6d0512e28a81c78000c,001,2025-04-30_10h10.25.704,empathy_intonation_perc,2024.1.4,Win32,60.24096386,,,,,,,,,,,,,,29,clamor,,,,,,247.2714,248.3544,1,0,0.5576,,0,131,131,28,1,two_way_cognate,1,REAL,FALSA
,,,,,,,,,677fb6d0512e28a81c78000c,001,2025-04-30_10h10.25.704,empathy_intonation_perc,2024.1.4,Win32,60.24096386,,,,,,,,,,,,,,188,amplir,,,,,,248.3546,249.6378,1,0,0.7536,,0,132,132,187,1,pseudoword,0,REAL,FALSA
,,,,,,,,,677fb6d0512e28a81c78000c,001,2025-04-30_10h10.25.704,empathy_intonation_perc,2024.1.4,Win32,60.24096386,,,,,,,,,,,,,,176,gripar,,,,,,249.638,251.0213,1,0,0.8524,,0,133,133,175,1,pseudoword,0,REAL,FALSA
,,,,,,,,,677fb6d0512e28a81c78000c,001,2025-04-30_10h10.25.704,empathy_intonation_perc,2024.1.4,Win32,60.24096386,,,,,,,,,,,,,,49,teñir,,,,,,251.0215,252.2879,1,0,0.7309,,0,134,134,48,1,non_cognate,1,REAL,FALSA
,,,,,,,,,677fb6d0512e28a81c78000c,001,2025-04-30_10h10.25.704,empathy_intonation_perc,2024.1.4,Win32,60.24096386,,,,,,,,,,,,,,175,tradía,,,,,,252.2883,253.8713,1,0,1.0503,,0,135,135,174,1,pseudoword,0,REAL,FALSA
,,,,,,,,,677fb6d0512e28a81c78000c,001,2025-04-30_10h10.25.704,empathy_intonation_perc,2024.1.4,Win32,60.24096386,,,,,,,,,,,,,,44,editor,,,,,,253.8715,254.9712,1,0,0.5699,,0,136,136,43,1,two_way_cognate,1,REAL,FALSA
,,,,,,,,,677fb6d0512e28a81c78000c,001,2025-04-30_10h10.25.704,empathy_intonation_perc,2024.1.4,Win32,60.24096386,,,,,,,,,,,,,,117,morrá,,,,,,254.9714,256.3545,1,0,0.851,,0,137,137,116,1,pseudoword,0,REAL,FALSA
,,,,,,,,,677fb6d0512e28a81c78000c,001,2025-04-30_10h10.25.704,empathy_intonation_perc,2024.1.4,Win32,60.24096386,,,,,,,,,,,,,,68,puñal,,,,,,256.3547,257.5048,1,0,0.6261,,0,138,138,67,1,non_cognate,1,REAL,FALSA
,,,,,,,,,677fb6d0512e28a81c78000c,001,2025-04-30_10h10.25.704,empathy_intonation_perc,2024.1.4,Win32,60.24096386,,,,,,,,,,,,,,60,siglo,,,,,,257.5049,259.0546,0,1,1.0145,,0,139,139,59,1,non_cognate,1,REAL,FALSA
,,,,,,,,,677fb6d0512e28a81c78000c,001,2025-04-30_10h10.25.704,empathy_intonation_perc,2024.1.4,Win32,60.24096386,,,,,,,,,,,,,,59,feo,,,,,,259.0549,260.338,0,1,0.7571,,0,140,140,58,1,non_cognate,1,REAL,FALSA
,,,,,,,,,677fb6d0512e28a81c78000c,001,2025-04-30_10h10.25.704,empathy_intonation_perc,2024.1.4,Win32,60.24096386,,,,,,,,,,,,,,181,gravés,,,,,,260.3382,261.4212,1,0,0.5577,,0,141,141,180,1,pseudoword,0,REAL,FALSA
,,,,,,,,,677fb6d0512e28a81c78000c,001,2025-04-30_10h10.25.704,empathy_intonation_perc,2024.1.4,Win32,60.24096386,,,,,,,,,,,,,,147,alla,,,,,,261.4214,262.4379,1,0,0.4826,,0,142,142,146,1,pseudoword,0,REAL,FALSA
,,,,,,,,,677fb6d0512e28a81c78000c,001,2025-04-30_10h10.25.704,empathy_intonation_perc,2024.1.4,Win32,60.24096386,,,,,,,,,,,,,,156,ozoso,,,,,,262.4381,265.4545,0,1,2.4978,,0,143,143,155,1,pseudoword,0,REAL,FALSA
,,,,,,,,,677fb6d0512e28a81c78000c,001,2025-04-30_10h10.25.704,empathy_intonation_perc,2024.1.4,Win32,60.24096386,,,,,,,,,,,,,,99,bugor,,,,,,265.4548,266.6712,1,0,0.6779,,0,144,144,98,1,pseudoword,0,REAL,FALSA
,,,,,,,,,677fb6d0512e28a81c78000c,001,2025-04-30_10h10.25.704,empathy_intonation_perc,2024.1.4,Win32,60.24096386,,,,,,,,,,,,,,2,tumor,,,,,,266.6714,268.0547,1,0,0.846,,0,145,145,1,1,three_way_cognate,1,REAL,FALSA
,,,,,,,,,677fb6d0512e28a81c78000c,001,2025-04-30_10h10.25.704,empathy_intonation_perc,2024.1.4,Win32,60.24096386,,,,,,,,,,,,,,70,ánimo,,,,,,268.0548,269.3546,1,0,0.7646,,0,146,146,69,1,non_cognate,1,REAL,FALSA
,,,,,,,,,677fb6d0512e28a81c78000c,001,2025-04-30_10h10.25.704,empathy_intonation_perc,2024.1.4,Win32,60.24096386,,,,,,,,,,,,,,10,drama,,,,,,269.3549,270.4046,1,0,0.5164,,0,147,147,9,1,three_way_cognate,1,REAL,FALSA
,,,,,,,,,677fb6d0512e28a81c78000c,001,2025-04-30_10h10.25.704,empathy_intonation_perc,2024.1.4,Win32,60.24096386,,,,,,,,,,,,,,135,panté,,,,,,270.4048,271.6047,1,0,0.6662,,0,148,148,134,1,pseudoword,0,REAL,FALSA
,,,,,,,,,677fb6d0512e28a81c78000c,001,2025-04-30_10h10.25.704,empathy_intonation_perc,2024.1.4,Win32,60.24096386,,,,,,,,,,,,,,191,frasis,,,,,,271.6051,272.6712,1,0,0.5326,,0,149,149,190,1,pseudoword,0,REAL,FALSA
,,,,,,,,,677fb6d0512e28a81c78000c,001,2025-04-30_10h10.25.704,empathy_intonation_perc,2024.1.4,Win32,60.24096386,,,,,,,,,,,,,,119,esís,,,,,,272.6714,273.9881,1,0,0.7881,,0,150,150,118,1,pseudoword,0,REAL,FALSA
,,,,,,,,,677fb6d0512e28a81c78000c,001,2025-04-30_10h10.25.704,empathy_intonation_perc,2024.1.4,Win32,60.24096386,,,,,,,,,,,,,,153,golla,,,,,,273.9883,275.3047,1,0,0.789,,0,151,151,152,1,pseudoword,0,REAL,FALSA
,,,,,,,,,677fb6d0512e28a81c78000c,001,2025-04-30_10h10.25.704,empathy_intonation_perc,2024.1.4,Win32,60.24096386,,,,,,,,,,,,,,145,rúo,,,,,,275.3048,276.8714,1,0,1.034,,0,152,152,144,1,pseudoword,0,REAL,FALSA
,,,,,,,,,677fb6d0512e28a81c78000c,001,2025-04-30_10h10.25.704,empathy_intonation_perc,2024.1.4,Win32,60.24096386,,,,,,,,,,,,,,169,pitis,,,,,,276.8717,278.7213,1,0,1.3157,,0,153,153,168,1,pseudoword,0,REAL,FALSA
,,,,,,,,,677fb6d0512e28a81c78000c,001,2025-04-30_10h10.25.704,empathy_intonation_perc,2024.1.4,Win32,60.24096386,,,,,,,,,,,,,,95,listo,,,,,,278.7215,279.9047,1,0,0.6489,,0,154,154,94,1,non_cognate,1,REAL,FALSA
,,,,,,,,,677fb6d0512e28a81c78000c,001,2025-04-30_10h10.25.704,empathy_intonation_perc,2024.1.4,Win32,60.24096386,,,,,,,,,,,,,,23,plural,,,,,,279.9049,281.2883,1,0,0.8486,,0,155,155,22,1,three_way_cognate,1,REAL,FALSA
,,,,,,,,,677fb6d0512e28a81c78000c,001,2025-04-30_10h10.25.704,empathy_intonation_perc,2024.1.4,Win32,60.24096386,,,,,,,,,,,,,,124,lobe,,,,,,281.2885,282.6546,1,0,0.8397,,0,156,156,123,1,pseudoword,0,REAL,FALSA
,,,,,,,,,677fb6d0512e28a81c78000c,001,2025-04-30_10h10.25.704,empathy_intonation_perc,2024.1.4,Win32,60.24096386,,,,,,,,,,,,,,50,sierra,,,,,,282.6549,283.6881,1,0,0.4987,,0,157,157,49,1,non_cognate,1,REAL,FALSA
,,,,,,,,,677fb6d0512e28a81c78000c,001,2025-04-30_10h10.25.704,empathy_intonation_perc,2024.1.4,Win32,60.24096386,,,,,,,,,,,,,,189,medium,,,,,,283.6883,284.738,1,0,0.518,,0,158,158,188,1,pseudoword,0,REAL,FALSA
,,,,,,,,,677fb6d0512e28a81c78000c,001,2025-04-30_10h10.25.704,empathy_intonation_perc,2024.1.4,Win32,60.24096386,,,,,,,,,,,,,,65,guerra,,,,,,284.7382,285.7881,1,0,0.5171,,0,159,159,64,1,non_cognate,1,REAL,FALSA
,,,,,,,,,677fb6d0512e28a81c78000c,001,2025-04-30_10h10.25.704,empathy_intonation_perc,2024.1.4,Win32,60.24096386,,,,,,,,,,,,,,54,tapón,,,,,,285.7884,287.1048,1,0,0.7834,,0,160,160,53,1,non_cognate,1,REAL,FALSA
,,,,,,,,,677fb6d0512e28a81c78000c,001,2025-04-30_10h10.25.704,empathy_intonation_perc,2024.1.4,Win32,60.24096386,,,,,,,,,,,,,,31,civil,,,,,,287.1051,288.2046,1,0,0.5716,,0,161,161,30,1,two_way_cognate,1,REAL,FALSA
,,,,,,,,,677fb6d0512e28a81c78000c,001,2025-04-30_10h10.25.704,empathy_intonation_perc,2024.1.4,Win32,60.24096386,,,,,,,,,,,,,,139,sasos,,,,,,288.2048,289.4215,1,0,0.6917,,0,162,162,138,1,pseudoword,0,REAL,FALSA
,,,,,,,,,677fb6d0512e28a81c78000c,001,2025-04-30_10h10.25.704,empathy_intonation_perc,2024.1.4,Win32,60.24096386,,,,,,,,,,,,,,80,cuenco,,,,,,289.4218,290.6713,1,0,0.723,,0,163,163,79,1,non_cognate,1,REAL,FALSA
,,,,,,,,,677fb6d0512e28a81c78000c,001,2025-04-30_10h10.25.704,empathy_intonation_perc,2024.1.4,Win32,60.24096386,,,,,,,,,,,,,,138,tator,,,,,,290.6716,291.6216,1,0,0.4166,,0,164,164,137,1,pseudoword,0,REAL,FALSA
,,,,,,,,,677fb6d0512e28a81c78000c,001,2025-04-30_10h10.25.704,empathy_intonation_perc,2024.1.4,Win32,60.24096386,,,,,,,,,,,,,,104,estulo,,,,,,291.6217,292.5716,1,0,0.4174,,0,165,165,103,1,pseudoword,0,REAL,FALSA
,,,,,,,,,677fb6d0512e28a81c78000c,001,2025-04-30_10h10.25.704,empathy_intonation_perc,2024.1.4,Win32,60.24096386,,,,,,,,,,,,,,179,suelet,,,,,,292.5718,294.0381,0,1,0.9358,,0,166,166,178,1,pseudoword,0,REAL,FALSA
,,,,,,,,,677fb6d0512e28a81c78000c,001,2025-04-30_10h10.25.704,empathy_intonation_perc,2024.1.4,Win32,60.24096386,,,,,,,,,,,,,,72,rostro,,,,,,294.0386,295.0881,1,0,0.5179,,0,167,167,71,1,non_cognate,1,REAL,FALSA
,,,,,,,,,677fb6d0512e28a81c78000c,001,2025-04-30_10h10.25.704,empathy_intonation_perc,2024.1.4,Win32,60.24096386,,,,,,,,,,,,,,187,nomata,,,,,,295.0885,296.6881,1,0,1.0708,,0,168,168,186,1,pseudoword,0,REAL,FALSA
,,,,,,,,,677fb6d0512e28a81c78000c,001,2025-04-30_10h10.25.704,empathy_intonation_perc,2024.1.4,Win32,60.24096386,,,,,,,,,,,,,,86,cuenco,,,,,,296.6885,297.8546,1,0,0.6332,,0,169,169,85,1,non_cognate,1,REAL,FALSA
,,,,,,,,,677fb6d0512e28a81c78000c,001,2025-04-30_10h10.25.704,empathy_intonation_perc,2024.1.4,Win32,60.24096386,,,,,,,,,,,,,,42,rumor,,,,,,297.8548,299.0048,1,0,0.6195,,0,170,170,41,1,two_way_cognate,1,REAL,FALSA
,,,,,,,,,677fb6d0512e28a81c78000c,001,2025-04-30_10h10.25.704,empathy_intonation_perc,2024.1.4,Win32,60.24096386,,,,,,,,,,,,,,140,chorde,,,,,,299.0051,300.4549,0,1,0.9168,,0,171,171,139,1,pseudoword,0,REAL,FALSA
,,,,,,,,,677fb6d0512e28a81c78000c,001,2025-04-30_10h10.25.704,empathy_intonation_perc,2024.1.4,Win32,60.24096386,,,,,,,,,,,,,,115,lidena,,,,,,300.4551,301.6215,1,0,0.6327,,0,172,172,114,1,pseudoword,0,REAL,FALSA
,,,,,,,,,677fb6d0512e28a81c78000c,001,2025-04-30_10h10.25.704,empathy_intonation_perc,2024.1.4,Win32,60.24096386,,,,,,,,,,,,,,79,suelo,,,,,,301.6218,302.8715,1,0,0.719,,0,173,173,78,1,non_cognate,1,REAL,FALSA
,,,,,,,,,677fb6d0512e28a81c78000c,001,2025-04-30_10h10.25.704,empathy_intonation_perc,2024.1.4,Win32,60.24096386,,,,,,,,,,,,,,32,animal,,,,,,302.8718,303.8884,1,0,0.4892,,0,174,174,31,1,two_way_cognate,1,REAL,FALSA
,,,,,,,,,677fb6d0512e28a81c78000c,001,2025-04-30_10h10.25.704,empathy_intonation_perc,2024.1.4,Win32,60.24096386,,,,,,,,,,,,,,159,trcia,,,,,,303.8886,305.655,0,1,1.2384,,0,175,175,158,1,pseudoword,0,REAL,FALSA
,,,,,,,,,677fb6d0512e28a81c78000c,001,2025-04-30_10h10.25.704,empathy_intonation_perc,2024.1.4,Win32,60.24096386,,,,,,,,,,,,,,45,total,,,,,,305.6552,306.7547,1,0,0.5748,,0,176,176,44,1,two_way_cognate,1,REAL,FALSA
,,,,,,,,,677fb6d0512e28a81c78000c,001,2025-04-30_10h10.25.704,empathy_intonation_perc,2024.1.4,Win32,60.24096386,,,,,,,,,,,,,,160,fomeó,,,,,,306.7549,308.7882,1,0,1.5009,,0,177,177,159,1,pseudoword,0,REAL,FALSA
,,,,,,,,,677fb6d0512e28a81c78000c,001,2025-04-30_10h10.25.704,empathy_intonation_perc,2024.1.4,Win32,60.24096386,,,,,,,,,,,,,,137,trugo,,,,,,308.7883,309.7717,1,0,0.4512,,0,178,178,136,1,pseudoword,0,REAL,FALSA
,,,,,,,,,677fb6d0512e28a81c78000c,001,2025-04-30_10h10.25.704,empathy_intonation_perc,2024.1.4,Win32,60.24096386,,,,,,,,,,,,,,52,blando,,,,,,309.7719,310.8047,1,0,0.509,,0,179,179,51,1,non_cognate,1,REAL,FALSA
,,,,,,,,,677fb6d0512e28a81c78000c,001,2025-04-30_10h10.25.704,empathy_intonation_perc,2024.1.4,Win32,60.24096386,,,,,,,,,,,,,,122,boñaz,,,,,,310.805,312.0381,1,0,0.6984,,0,180,180,121,1,pseudoword,0,REAL,FALSA
,,,,,,,,,677fb6d0512e28a81c78000c,001,2025-04-30_10h10.25.704,empathy_intonation_perc,2024.1.4,Win32,60.24096386,,,,,,,,,,,,,,55,maldad,,,,,,312.0384,313.3714,1,0,0.8052,,0,181,181,54,1,non_cognate,1,REAL,FALSA
,,,,,,,,,677fb6d0512e28a81c78000c,001,2025-04-30_10h10.25.704,empathy_intonation_perc,2024.1.4,Win32,60.24096386,,,,,,,,,,,,,,13,plan,,,,,,313.3717,314.3715,1,0,0.4654,,0,182,182,12,1,three_way_cognate,1,REAL,FALSA
,,,,,,,,,677fb6d0512e28a81c78000c,001,2025-04-30_10h10.25.704,empathy_intonation_perc,2024.1.4,Win32,60.24096386,,,,,,,,,,,,,,8,kilo,,,,,,314.3717,315.8214,1,0,0.926,,0,183,183,7,1,three_way_cognate,1,REAL,FALSA
,,,,,,,,,677fb6d0512e28a81c78000c,001,2025-04-30_10h10.25.704,empathy_intonation_perc,2024.1.4,Win32,60.24096386,,,,,,,,,,,,,,123,arane,,,,,,315.8215,317.0714,1,0,0.734,,0,184,184,122,1,pseudoword,0,REAL,FALSA
,,,,,,,,,677fb6d0512e28a81c78000c,001,2025-04-30_10h10.25.704,empathy_intonation_perc,2024.1.4,Win32,60.24096386,,,,,,,,,,,,,,129,vinzó,,,,,,317.0717,319.4883,1,0,1.8886,,0,185,185,128,1,pseudoword,0,REAL,FALSA
,,,,,,,,,677fb6d0512e28a81c78000c,001,2025-04-30_10h10.25.704,empathy_intonation_perc,2024.1.4,Win32,60.24096386,,,,,,,,,,,,,,148,gino,,,,,,319.4886,322.1048,0,1,2.0818,,0,186,186,147,1,pseudoword,0,REAL,FALSA
,,,,,,,,,677fb6d0512e28a81c78000c,001,2025-04-30_10h10.25.704,empathy_intonation_perc,2024.1.4,Win32,60.24096386,,,,,,,,,,,,,,93,tapa,,,,,,322.1051,323.2214,1,0,0.5825,,0,187,187,92,1,non_cognate,1,REAL,FALSA
,,,,,,,,,677fb6d0512e28a81c78000c,001,2025-04-30_10h10.25.704,empathy_intonation_perc,2024.1.4,Win32,60.24096386,,,,,,,,,,,,,,118,bará,,,,,,323.2217,324.7883,0,1,1.0402,,0,188,188,117,1,pseudoword,0,REAL,FALSA
,,,,,,,,,677fb6d0512e28a81c78000c,001,2025-04-30_10h10.25.704,empathy_intonation_perc,2024.1.4,Win32,60.24096386,,,,,,,,,,,,,,67,llamar,,,,,,324.7885,325.8885,1,0,0.5653,,0,189,189,66,1,non_cognate,1,REAL,FALSA
,,,,,,,,,677fb6d0512e28a81c78000c,001,2025-04-30_10h10.25.704,empathy_intonation_perc,2024.1.4,Win32,60.24096386,,,,,,,,,,,,,,158,babrá,,,,,,325.8887,327.9882,1,0,1.5654,,0,190,190,157,1,pseudoword,0,REAL,FALSA
,,,,,,,,,677fb6d0512e28a81c78000c,001,2025-04-30_10h10.25.704,empathy_intonation_perc,2024.1.4,Win32,60.24096386,,,,,,,,,,,,,,121,barbs,,,,,,327.9883,329.4381,0,1,0.9195,,0,191,191,120,1,pseudoword,0,REAL,FALSA
