lextale_instructions.started,lextale_instructions.stopped,lextale_instructions_loop.thisRepN,lextale_instructions_loop.thisTrialN,lextale_instructions_loop.thisN,lextale_instructions_loop.thisIndex,lextale_instructions_loop.ran,instructions_text,continue_text,participant,session,date,expName,psychopyVersion,OS,frameRate,lextale_practice.started,lextale_practice.stopped,key_resp_lextale_practice.keys,key_resp_lextale_practice.corr,key_resp_lextale_practice.rt,key_resp_lextale_practice.duration,lextale_practice_feedback.started,lextale_practice_feedback.stopped,lextale_practice_trials.thisRepN,lextale_practice_trials.thisTrialN,lextale_practice_trials.thisN,lextale_practice_trials.thisIndex,lextale_practice_trials.ran,stim,word,correct_response,prac_button_real,prac_button_false,lextale_check.started,lextale_check.stopped,lextale_trial.started,lextale_trial.stopped,key_resp_lextale_trial.keys,key_resp_lextale_trial.corr,key_resp_lextale_trial.rt,key_resp_lextale_trial.duration,lextail_trials.thisRepN,lextail_trials.thisTrialN,lextail_trials.thisN,lextail_trials.thisIndex,lextail_trials.ran,type,correct_reponse,button_real,button_false
0.0088,43.169,0,0,0,0,1,"Este es un test de vocabulario en español. 
  
  A continuación vas a ver 90 secuencias de letras que parecen 'españolas'.
  
  Solo algunas de ellas son palabras de verdad.",(presiona la barra espaciadora para continuar),anisa,001,2024-06-20_08h25.15.197,empathy_intonation_perc,2024.1.4,Win32,60.24096386,,,,,,,,,,,,,,,,,,,,,,,,,,,,,,,,,,,
43.1701,48.8354,0,1,1,1,1,"Por favor, señala las palabras que tú conoces (aquellas que estás convencido que son palabras españolas, incluso aunque no seas capaz de dar el significado preciso).",(presiona la barra espaciadora para continuar),anisa,001,2024-06-20_08h25.15.197,empathy_intonation_perc,2024.1.4,Win32,60.24096386,,,,,,,,,,,,,,,,,,,,,,,,,,,,,,,,,,,
48.8516,57.7351,0,2,2,2,1,Pero cuidado: los errores se penalizan. Por eso no tiene sentido tratar de incrementar tu puntuación marcando como reales palabras que nunca has visto.,(presiona la barra espaciadora para continuar),anisa,001,2024-06-20_08h25.15.197,empathy_intonation_perc,2024.1.4,Win32,60.24096386,,,,,,,,,,,,,,,,,,,,,,,,,,,,,,,,,,,
57.7518,75.5682,0,3,3,3,1,"Presiona la tecla 1 si piensas que es una palabra real y la tecla 
  0 si piensas que es una palabra falsa. 
  
  Vamos a practicar un poco...",(presiona la barra espaciadora para continuar),anisa,001,2024-06-20_08h25.15.197,empathy_intonation_perc,2024.1.4,Win32,60.24096386,,,,,,,,,,,,,,,,,,,,,,,,,,,,,,,,,,,
,,,,,,,,,anisa,001,2024-06-20_08h25.15.197,empathy_intonation_perc,2024.1.4,Win32,60.24096386,75.5896,79.285,0,1,3.1593,,79.2853,80.2855,0,0,0,0,1,0,depiste,0,REAL,FALSA,,,,,,,,,,,,,,,,,
,,,,,,,,,anisa,001,2024-06-20_08h25.15.197,empathy_intonation_perc,2024.1.4,Win32,60.24096386,80.2862,81.8009,1,1,0.9893,,81.8009,82.801,0,1,1,1,1,0,sí,1,REAL,FALSA,,,,,,,,,,,,,,,,,
,,,,,,,,,anisa,001,2024-06-20_08h25.15.197,empathy_intonation_perc,2024.1.4,Win32,60.24096386,82.8016,86.0846,0,1,2.7424,,86.0847,87.0845,0,2,2,2,1,0,coné,0,REAL,FALSA,,,,,,,,,,,,,,,,,
,,,,,,,,,anisa,001,2024-06-20_08h25.15.197,empathy_intonation_perc,2024.1.4,Win32,60.24096386,87.1007,88.7675,1,0,1.1469,,88.7676,89.7676,0,3,3,3,1,0,calpar,0,REAL,FALSA,,,,,,,,,,,,,,,,,
,,,,,,,,,anisa,001,2024-06-20_08h25.15.197,empathy_intonation_perc,2024.1.4,Win32,60.24096386,89.781,91.6675,0,1,1.3623,,91.6676,92.6679,0,4,4,4,1,0,joten,0,REAL,FALSA,,,,,,,,,,,,,,,,,
,,,,,,,,,anisa,001,2024-06-20_08h25.15.197,empathy_intonation_perc,2024.1.4,Win32,60.24096386,92.6684,95.5342,0,0,2.3268,,95.5342,96.5344,0,5,5,5,1,0,sacapuntas,1,REAL,FALSA,,,,,,,,,,,,,,,,,
,,,,,,,,,anisa,001,2024-06-20_08h25.15.197,empathy_intonation_perc,2024.1.4,Win32,60.24096386,96.5501,98.3345,0,1,1.2617,,98.3346,99.3344,0,6,6,6,1,0,priba,0,REAL,FALSA,,,,,,,,,,,,,,,,,
,,,,,,,,,anisa,001,2024-06-20_08h25.15.197,empathy_intonation_perc,2024.1.4,Win32,60.24096386,99.3356,101.9341,0,1,2.0644,,101.9342,102.9341,0,7,7,7,1,0,pelasula,0,REAL,FALSA,,,,,,,,,,,,,,,,,
,,,,,,,,,anisa,001,2024-06-20_08h25.15.197,empathy_intonation_perc,2024.1.4,Win32,60.24096386,102.9498,105.8675,1,1,2.3924,,105.8675,106.8674,0,8,8,8,1,0,bien,1,REAL,FALSA,,,,,,,,,,,,,,,,,
,,,,,,,,,anisa,001,2024-06-20_08h25.15.197,empathy_intonation_perc,2024.1.4,Win32,60.24096386,106.879,108.1339,1,1,0.7287,,108.134,109.1343,0,9,9,9,1,0,casa,1,REAL,FALSA,,,,,,,,,,,,,,,,,
,,,,,,,,,anisa,001,2024-06-20_08h25.15.197,empathy_intonation_perc,2024.1.4,Win32,60.24096386,109.1349,110.634,1,0,0.9709,,110.634,111.6349,0,10,10,10,1,0,lejo,0,REAL,FALSA,,,,,,,,,,,,,,,,,
,,,,,,,,,anisa,001,2024-06-20_08h25.15.197,empathy_intonation_perc,2024.1.4,Win32,60.24096386,111.6513,114.4839,0,1,2.2987,,114.484,115.4843,0,11,11,11,1,0,pretantas,0,REAL,FALSA,,,,,,,,,,,,,,,,,
,,,,,,,,,anisa,001,2024-06-20_08h25.15.197,empathy_intonation_perc,2024.1.4,Win32,60.24096386,,,,,,,,,,,,,,,,,,,115.4853,118.9517,,,,,,,,,,,,,,,
,,,,,,,,,anisa,001,2024-06-20_08h25.15.197,empathy_intonation_perc,2024.1.4,Win32,60.24096386,,,,,,,,,,,,,,81,sacar,,,,,,118.9868,120.5843,1,0,1.0695,,0,0,0,80,1,non_cognate,1,REAL,FALSA
,,,,,,,,,anisa,001,2024-06-20_08h25.15.197,empathy_intonation_perc,2024.1.4,Win32,60.24096386,,,,,,,,,,,,,,154,harvé,,,,,,120.5853,122.8172,0,1,1.6955,,0,1,1,153,1,pseudoword,0,REAL,FALSA
,,,,,,,,,anisa,001,2024-06-20_08h25.15.197,empathy_intonation_perc,2024.1.4,Win32,60.24096386,,,,,,,,,,,,,,102,coyo,,,,,,122.818,124.8504,0,1,1.4936,,0,2,2,101,1,pseudoword,0,REAL,FALSA
,,,,,,,,,anisa,001,2024-06-20_08h25.15.197,empathy_intonation_perc,2024.1.4,Win32,60.24096386,,,,,,,,,,,,,,59,feo,,,,,,124.8512,126.4338,1,0,1.0455,,0,3,3,58,1,non_cognate,1,REAL,FALSA
,,,,,,,,,anisa,001,2024-06-20_08h25.15.197,empathy_intonation_perc,2024.1.4,Win32,60.24096386,,,,,,,,,,,,,,14,aura,,,,,,126.4345,127.6338,1,0,0.6603,,0,4,4,13,1,three_way_cognate,1,REAL,FALSA
,,,,,,,,,anisa,001,2024-06-20_08h25.15.197,empathy_intonation_perc,2024.1.4,Win32,60.24096386,,,,,,,,,,,,,,139,sasos,,,,,,127.6348,129.1341,0,1,0.9638,,0,5,5,138,1,pseudoword,0,REAL,FALSA
,,,,,,,,,anisa,001,2024-06-20_08h25.15.197,empathy_intonation_perc,2024.1.4,Win32,60.24096386,,,,,,,,,,,,,,150,cricó,,,,,,129.1352,131.8508,0,1,2.1765,,0,6,6,149,1,pseudoword,0,REAL,FALSA
,,,,,,,,,anisa,001,2024-06-20_08h25.15.197,empathy_intonation_perc,2024.1.4,Win32,60.24096386,,,,,,,,,,,,,,149,emén,,,,,,131.867,133.7838,0,1,1.3947,,0,7,7,148,1,pseudoword,0,REAL,FALSA
,,,,,,,,,anisa,001,2024-06-20_08h25.15.197,empathy_intonation_perc,2024.1.4,Win32,60.24096386,,,,,,,,,,,,,,175,tradía,,,,,,133.7845,135.7838,0,1,1.4633,,0,8,8,174,1,pseudoword,0,REAL,FALSA
,,,,,,,,,anisa,001,2024-06-20_08h25.15.197,empathy_intonation_perc,2024.1.4,Win32,60.24096386,,,,,,,,,,,,,,183,edioso,,,,,,135.7847,137.8511,0,1,1.5368,,0,9,9,182,1,pseudoword,0,REAL,FALSA
,,,,,,,,,anisa,001,2024-06-20_08h25.15.197,empathy_intonation_perc,2024.1.4,Win32,60.24096386,,,,,,,,,,,,,,33,collar,,,,,,137.8518,139.4336,1,0,1.0473,,0,10,10,32,1,two_way_cognate,1,REAL,FALSA
,,,,,,,,,anisa,001,2024-06-20_08h25.15.197,empathy_intonation_perc,2024.1.4,Win32,60.24096386,,,,,,,,,,,,,,103,vueras,,,,,,139.4343,141.4011,0,1,1.4267,,0,11,11,102,1,pseudoword,0,REAL,FALSA
,,,,,,,,,anisa,001,2024-06-20_08h25.15.197,empathy_intonation_perc,2024.1.4,Win32,60.24096386,,,,,,,,,,,,,,45,total,,,,,,141.4018,142.7007,1,0,0.7587,,0,12,12,44,1,two_way_cognate,1,REAL,FALSA
,,,,,,,,,anisa,001,2024-06-20_08h25.15.197,empathy_intonation_perc,2024.1.4,Win32,60.24096386,,,,,,,,,,,,,,118,bará,,,,,,142.7014,144.667,0,1,1.4286,,0,13,13,117,1,pseudoword,0,REAL,FALSA
,,,,,,,,,anisa,001,2024-06-20_08h25.15.197,empathy_intonation_perc,2024.1.4,Win32,60.24096386,,,,,,,,,,,,,,5,extra,,,,,,144.6678,147.5012,1,0,2.3044,,0,14,14,4,1,three_way_cognate,1,REAL,FALSA
,,,,,,,,,anisa,001,2024-06-20_08h25.15.197,empathy_intonation_perc,2024.1.4,Win32,60.24096386,,,,,,,,,,,,,,98,martir,,,,,,147.5018,149.1668,1,0,1.1262,,0,15,15,97,1,pseudoword,0,REAL,FALSA
,,,,,,,,,anisa,001,2024-06-20_08h25.15.197,empathy_intonation_perc,2024.1.4,Win32,60.24096386,,,,,,,,,,,,,,8,kilo,,,,,,149.1674,150.7009,1,0,0.9953,,0,16,16,7,1,three_way_cognate,1,REAL,FALSA
,,,,,,,,,anisa,001,2024-06-20_08h25.15.197,empathy_intonation_perc,2024.1.4,Win32,60.24096386,,,,,,,,,,,,,,182,desaro,,,,,,150.7019,152.7834,0,1,1.5513,,0,17,17,181,1,pseudoword,0,REAL,FALSA
,,,,,,,,,anisa,001,2024-06-20_08h25.15.197,empathy_intonation_perc,2024.1.4,Win32,60.24096386,,,,,,,,,,,,,,158,babrá,,,,,,152.7842,155.0838,0,1,1.768,,0,18,18,157,1,pseudoword,0,REAL,FALSA
,,,,,,,,,anisa,001,2024-06-20_08h25.15.197,empathy_intonation_perc,2024.1.4,Win32,60.24096386,,,,,,,,,,,,,,77,suave,,,,,,155.0845,156.684,1,0,1.0704,,0,19,19,76,1,non_cognate,1,REAL,FALSA
,,,,,,,,,anisa,001,2024-06-20_08h25.15.197,empathy_intonation_perc,2024.1.4,Win32,60.24096386,,,,,,,,,,,,,,10,drama,,,,,,156.6848,157.8671,1,0,0.6448,,0,20,20,9,1,three_way_cognate,1,REAL,FALSA
,,,,,,,,,anisa,001,2024-06-20_08h25.15.197,empathy_intonation_perc,2024.1.4,Win32,60.24096386,,,,,,,,,,,,,,62,pegar,,,,,,157.8679,159.4002,1,0,0.9951,,0,21,21,61,1,non_cognate,1,REAL,FALSA
,,,,,,,,,anisa,001,2024-06-20_08h25.15.197,empathy_intonation_perc,2024.1.4,Win32,60.24096386,,,,,,,,,,,,,,105,leniz,,,,,,159.401,160.6334,0,1,0.6947,,0,22,22,104,1,pseudoword,0,REAL,FALSA
,,,,,,,,,anisa,001,2024-06-20_08h25.15.197,empathy_intonation_perc,2024.1.4,Win32,60.24096386,,,,,,,,,,,,,,128,pelí,,,,,,160.634,166.6333,1,0,5.4637,,0,23,23,127,1,pseudoword,0,REAL,FALSA
,,,,,,,,,anisa,001,2024-06-20_08h25.15.197,empathy_intonation_perc,2024.1.4,Win32,60.24096386,,,,,,,,,,,,,,184,huenos,,,,,,166.65,167.9501,0,1,0.7603,,0,24,24,183,1,pseudoword,0,REAL,FALSA
,,,,,,,,,anisa,001,2024-06-20_08h25.15.197,empathy_intonation_perc,2024.1.4,Win32,60.24096386,,,,,,,,,,,,,,3,disco,,,,,,167.9509,169.2504,1,0,0.7611,,0,25,25,2,1,three_way_cognate,1,REAL,FALSA
,,,,,,,,,anisa,001,2024-06-20_08h25.15.197,empathy_intonation_perc,2024.1.4,Win32,60.24096386,,,,,,,,,,,,,,120,mauja,,,,,,169.2511,170.7,0,1,0.9125,,0,26,26,119,1,pseudoword,0,REAL,FALSA
,,,,,,,,,anisa,001,2024-06-20_08h25.15.197,empathy_intonation_perc,2024.1.4,Win32,60.24096386,,,,,,,,,,,,,,179,suelet,,,,,,170.7006,173.0666,0,1,1.8247,,0,27,27,178,1,pseudoword,0,REAL,FALSA
,,,,,,,,,anisa,001,2024-06-20_08h25.15.197,empathy_intonation_perc,2024.1.4,Win32,60.24096386,,,,,,,,,,,,,,110,densó,,,,,,173.0674,175.0165,0,1,1.4088,,0,28,28,109,1,pseudoword,0,REAL,FALSA
,,,,,,,,,anisa,001,2024-06-20_08h25.15.197,empathy_intonation_perc,2024.1.4,Win32,60.24096386,,,,,,,,,,,,,,147,alla,,,,,,175.0171,176.5502,1,0,0.9982,,0,29,29,146,1,pseudoword,0,REAL,FALSA
,,,,,,,,,anisa,001,2024-06-20_08h25.15.197,empathy_intonation_perc,2024.1.4,Win32,60.24096386,,,,,,,,,,,,,,109,laras,,,,,,176.551,178.8165,0,1,1.7332,,0,30,30,108,1,pseudoword,0,REAL,FALSA
,,,,,,,,,anisa,001,2024-06-20_08h25.15.197,empathy_intonation_perc,2024.1.4,Win32,60.24096386,,,,,,,,,,,,,,54,tapón,,,,,,178.8173,181.7498,1,0,2.3976,,0,31,31,53,1,non_cognate,1,REAL,FALSA
,,,,,,,,,anisa,001,2024-06-20_08h25.15.197,empathy_intonation_perc,2024.1.4,Win32,60.24096386,,,,,,,,,,,,,,52,blando,,,,,,181.7658,183.1998,1,0,0.9121,,0,32,32,51,1,non_cognate,1,REAL,FALSA
,,,,,,,,,anisa,001,2024-06-20_08h25.15.197,empathy_intonation_perc,2024.1.4,Win32,60.24096386,,,,,,,,,,,,,,22,mango,,,,,,183.2008,184.5664,1,0,0.8375,,0,33,33,21,1,three_way_cognate,1,REAL,FALSA
,,,,,,,,,anisa,001,2024-06-20_08h25.15.197,empathy_intonation_perc,2024.1.4,Win32,60.24096386,,,,,,,,,,,,,,159,trcia,,,,,,184.5671,186.4497,0,1,1.3483,,0,34,34,158,1,pseudoword,0,REAL,FALSA
,,,,,,,,,anisa,001,2024-06-20_08h25.15.197,empathy_intonation_perc,2024.1.4,Win32,60.24096386,,,,,,,,,,,,,,146,gió,,,,,,186.4505,188.4664,0,1,1.4815,,0,35,35,145,1,pseudoword,0,REAL,FALSA
,,,,,,,,,anisa,001,2024-06-20_08h25.15.197,empathy_intonation_perc,2024.1.4,Win32,60.24096386,,,,,,,,,,,,,,99,bugor,,,,,,188.4671,190.0331,0,1,1.0333,,0,36,36,98,1,pseudoword,0,REAL,FALSA
,,,,,,,,,anisa,001,2024-06-20_08h25.15.197,empathy_intonation_perc,2024.1.4,Win32,60.24096386,,,,,,,,,,,,,,44,editor,,,,,,190.0338,191.2496,1,0,0.6862,,0,37,37,43,1,two_way_cognate,1,REAL,FALSA
,,,,,,,,,anisa,001,2024-06-20_08h25.15.197,empathy_intonation_perc,2024.1.4,Win32,60.24096386,,,,,,,,,,,,,,115,lidena,,,,,,191.2503,192.8497,0,1,1.0612,,0,38,38,114,1,pseudoword,0,REAL,FALSA
,,,,,,,,,anisa,001,2024-06-20_08h25.15.197,empathy_intonation_perc,2024.1.4,Win32,60.24096386,,,,,,,,,,,,,,151,prías,,,,,,192.8504,195.8833,0,1,2.4925,,0,39,39,150,1,pseudoword,0,REAL,FALSA
,,,,,,,,,anisa,001,2024-06-20_08h25.15.197,empathy_intonation_perc,2024.1.4,Win32,60.24096386,,,,,,,,,,,,,,127,vien,,,,,,195.8997,197.1833,1,0,0.7602,,0,40,40,126,1,pseudoword,0,REAL,FALSA
,,,,,,,,,anisa,001,2024-06-20_08h25.15.197,empathy_intonation_perc,2024.1.4,Win32,60.24096386,,,,,,,,,,,,,,58,colcha,,,,,,197.1845,199.7163,1,0,2.0003,,0,41,41,57,1,non_cognate,1,REAL,FALSA
,,,,,,,,,anisa,001,2024-06-20_08h25.15.197,empathy_intonation_perc,2024.1.4,Win32,60.24096386,,,,,,,,,,,,,,25,vigor,,,,,,199.7328,202.2496,0,1,1.9992,,0,42,42,24,1,two_way_cognate,1,REAL,FALSA
,,,,,,,,,anisa,001,2024-06-20_08h25.15.197,empathy_intonation_perc,2024.1.4,Win32,60.24096386,,,,,,,,,,,,,,28,ardor,,,,,,202.2503,206.4498,0,1,3.6711,,0,43,43,27,1,two_way_cognate,1,REAL,FALSA
,,,,,,,,,anisa,001,2024-06-20_08h25.15.197,empathy_intonation_perc,2024.1.4,Win32,60.24096386,,,,,,,,,,,,,,163,olzan,,,,,,206.4638,208.4662,0,1,1.4866,,0,44,44,162,1,pseudoword,0,REAL,FALSA
,,,,,,,,,anisa,001,2024-06-20_08h25.15.197,empathy_intonation_perc,2024.1.4,Win32,60.24096386,,,,,,,,,,,,,,6,horror,,,,,,208.4669,209.7828,1,0,0.7849,,0,45,45,5,1,three_way_cognate,1,REAL,FALSA
,,,,,,,,,anisa,001,2024-06-20_08h25.15.197,empathy_intonation_perc,2024.1.4,Win32,60.24096386,,,,,,,,,,,,,,161,civas,,,,,,209.7839,213.4994,1,0,3.1788,,0,46,46,160,1,pseudoword,0,REAL,FALSA
,,,,,,,,,anisa,001,2024-06-20_08h25.15.197,empathy_intonation_perc,2024.1.4,Win32,60.24096386,,,,,,,,,,,,,,133,conso,,,,,,213.5002,216.0828,0,1,2.0432,,0,47,47,132,1,pseudoword,0,REAL,FALSA
,,,,,,,,,anisa,001,2024-06-20_08h25.15.197,empathy_intonation_perc,2024.1.4,Win32,60.24096386,,,,,,,,,,,,,,111,monue,,,,,,216.0992,217.8334,0,1,1.2208,,0,48,48,110,1,pseudoword,0,REAL,FALSA
,,,,,,,,,anisa,001,2024-06-20_08h25.15.197,empathy_intonation_perc,2024.1.4,Win32,60.24096386,,,,,,,,,,,,,,97,nocita,,,,,,217.8344,220.2332,1,0,1.864,,0,49,49,96,1,pseudoword,0,REAL,FALSA
,,,,,,,,,anisa,001,2024-06-20_08h25.15.197,empathy_intonation_perc,2024.1.4,Win32,60.24096386,,,,,,,,,,,,,,38,halo,,,,,,220.234,222.3659,0,1,1.6015,,0,50,50,37,1,two_way_cognate,1,REAL,FALSA
,,,,,,,,,anisa,001,2024-06-20_08h25.15.197,empathy_intonation_perc,2024.1.4,Win32,60.24096386,,,,,,,,,,,,,,67,llamar,,,,,,222.3667,223.6159,1,0,0.7146,,0,51,51,66,1,non_cognate,1,REAL,FALSA
,,,,,,,,,anisa,001,2024-06-20_08h25.15.197,empathy_intonation_perc,2024.1.4,Win32,60.24096386,,,,,,,,,,,,,,89,muñeca,,,,,,223.6167,224.966,1,0,0.8118,,0,52,52,88,1,non_cognate,1,REAL,FALSA
,,,,,,,,,anisa,001,2024-06-20_08h25.15.197,empathy_intonation_perc,2024.1.4,Win32,60.24096386,,,,,,,,,,,,,,95,listo,,,,,,224.9667,226.1493,1,0,0.6549,,0,53,53,94,1,non_cognate,1,REAL,FALSA
,,,,,,,,,anisa,001,2024-06-20_08h25.15.197,empathy_intonation_perc,2024.1.4,Win32,60.24096386,,,,,,,,,,,,,,84,aviso,,,,,,226.15,227.4327,1,0,0.7467,,0,54,54,83,1,non_cognate,1,REAL,FALSA
,,,,,,,,,anisa,001,2024-06-20_08h25.15.197,empathy_intonation_perc,2024.1.4,Win32,60.24096386,,,,,,,,,,,,,,53,punta,,,,,,227.4332,228.6993,1,0,0.7352,,0,55,55,52,1,non_cognate,1,REAL,FALSA
,,,,,,,,,anisa,001,2024-06-20_08h25.15.197,empathy_intonation_perc,2024.1.4,Win32,60.24096386,,,,,,,,,,,,,,137,trugo,,,,,,228.6998,230.3324,0,1,1.1035,,0,56,56,136,1,pseudoword,0,REAL,FALSA
,,,,,,,,,anisa,001,2024-06-20_08h25.15.197,empathy_intonation_perc,2024.1.4,Win32,60.24096386,,,,,,,,,,,,,,39,casual,,,,,,230.333,231.5825,1,0,0.7211,,0,57,57,38,1,two_way_cognate,1,REAL,FALSA
,,,,,,,,,anisa,001,2024-06-20_08h25.15.197,empathy_intonation_perc,2024.1.4,Win32,60.24096386,,,,,,,,,,,,,,83,hálito,,,,,,231.5832,233.9827,0,1,1.8664,,0,58,58,82,1,non_cognate,1,REAL,FALSA
,,,,,,,,,anisa,001,2024-06-20_08h25.15.197,empathy_intonation_perc,2024.1.4,Win32,60.24096386,,,,,,,,,,,,,,19,mafia,,,,,,233.9992,235.9158,1,0,1.3799,,0,59,59,18,1,three_way_cognate,1,REAL,FALSA
,,,,,,,,,anisa,001,2024-06-20_08h25.15.197,empathy_intonation_perc,2024.1.4,Win32,60.24096386,,,,,,,,,,,,,,75,patada,,,,,,235.9164,238.1827,0,1,1.7385,,0,60,60,74,1,non_cognate,1,REAL,FALSA
,,,,,,,,,anisa,001,2024-06-20_08h25.15.197,empathy_intonation_perc,2024.1.4,Win32,60.24096386,,,,,,,,,,,,,,57,regalo,,,,,,238.1838,239.4326,1,0,0.7119,,0,61,61,56,1,non_cognate,1,REAL,FALSA
,,,,,,,,,anisa,001,2024-06-20_08h25.15.197,empathy_intonation_perc,2024.1.4,Win32,60.24096386,,,,,,,,,,,,,,112,samón,,,,,,239.4332,241.9326,1,0,1.9711,,0,62,62,111,1,pseudoword,0,REAL,FALSA
,,,,,,,,,anisa,001,2024-06-20_08h25.15.197,empathy_intonation_perc,2024.1.4,Win32,60.24096386,,,,,,,,,,,,,,72,rostro,,,,,,241.9511,243.7157,1,0,1.2369,,0,63,63,71,1,non_cognate,1,REAL,FALSA
,,,,,,,,,anisa,001,2024-06-20_08h25.15.197,empathy_intonation_perc,2024.1.4,Win32,60.24096386,,,,,,,,,,,,,,130,dubo,,,,,,243.7164,245.3828,0,1,1.1295,,0,64,64,129,1,pseudoword,0,REAL,FALSA
,,,,,,,,,anisa,001,2024-06-20_08h25.15.197,empathy_intonation_perc,2024.1.4,Win32,60.24096386,,,,,,,,,,,,,,192,próces,,,,,,245.3834,248.1824,0,1,2.2671,,0,65,65,191,1,pseudoword,0,REAL,FALSA
,,,,,,,,,anisa,001,2024-06-20_08h25.15.197,empathy_intonation_perc,2024.1.4,Win32,60.24096386,,,,,,,,,,,,,,87,muleta,,,,,,248.2003,249.6157,1,0,0.8818,,0,66,66,86,1,non_cognate,1,REAL,FALSA
,,,,,,,,,anisa,001,2024-06-20_08h25.15.197,empathy_intonation_perc,2024.1.4,Win32,60.24096386,,,,,,,,,,,,,,51,listo,,,,,,249.6164,254.6327,0,1,4.489,,0,67,67,50,1,non_cognate,1,REAL,FALSA
,,,,,,,,,anisa,001,2024-06-20_08h25.15.197,empathy_intonation_perc,2024.1.4,Win32,60.24096386,,,,,,,,,,,,,,93,tapa,,,,,,254.6533,256.399,1,0,1.2098,,0,68,68,92,1,non_cognate,1,REAL,FALSA
,,,,,,,,,anisa,001,2024-06-20_08h25.15.197,empathy_intonation_perc,2024.1.4,Win32,60.24096386,,,,,,,,,,,,,,71,torta,,,,,,256.3996,257.816,1,0,0.8788,,0,69,69,70,1,non_cognate,1,REAL,FALSA
,,,,,,,,,anisa,001,2024-06-20_08h25.15.197,empathy_intonation_perc,2024.1.4,Win32,60.24096386,,,,,,,,,,,,,,134,molor,,,,,,257.8171,260.699,0,1,2.3451,,0,70,70,133,1,pseudoword,0,REAL,FALSA
,,,,,,,,,anisa,001,2024-06-20_08h25.15.197,empathy_intonation_perc,2024.1.4,Win32,60.24096386,,,,,,,,,,,,,,86,cuenco,,,,,,260.6994,262.8155,0,1,1.596,,0,71,71,85,1,non_cognate,1,REAL,FALSA
,,,,,,,,,anisa,001,2024-06-20_08h25.15.197,empathy_intonation_perc,2024.1.4,Win32,60.24096386,,,,,,,,,,,,,,55,maldad,,,,,,262.8161,264.3488,1,0,0.9991,,0,72,72,54,1,non_cognate,1,REAL,FALSA
,,,,,,,,,anisa,001,2024-06-20_08h25.15.197,empathy_intonation_perc,2024.1.4,Win32,60.24096386,,,,,,,,,,,,,,4,flora,,,,,,264.3494,265.5321,1,0,0.6494,,0,73,73,3,1,three_way_cognate,1,REAL,FALSA
,,,,,,,,,anisa,001,2024-06-20_08h25.15.197,empathy_intonation_perc,2024.1.4,Win32,60.24096386,,,,,,,,,,,,,,176,gripar,,,,,,265.5329,267.0988,1,0,1.0326,,0,74,74,175,1,pseudoword,0,REAL,FALSA
,,,,,,,,,anisa,001,2024-06-20_08h25.15.197,empathy_intonation_perc,2024.1.4,Win32,60.24096386,,,,,,,,,,,,,,61,aduana,,,,,,267.0995,269.0988,0,1,1.4653,,0,75,75,60,1,non_cognate,1,REAL,FALSA
,,,,,,,,,anisa,001,2024-06-20_08h25.15.197,empathy_intonation_perc,2024.1.4,Win32,60.24096386,,,,,,,,,,,,,,174,pabea,,,,,,269.0996,271.0988,0,1,1.4638,,0,76,76,173,1,pseudoword,0,REAL,FALSA
,,,,,,,,,anisa,001,2024-06-20_08h25.15.197,empathy_intonation_perc,2024.1.4,Win32,60.24096386,,,,,,,,,,,,,,63,hilo,,,,,,271.0993,273.2654,1,0,1.6368,,0,77,77,62,1,non_cognate,1,REAL,FALSA
,,,,,,,,,anisa,001,2024-06-20_08h25.15.197,empathy_intonation_perc,2024.1.4,Win32,60.24096386,,,,,,,,,,,,,,180,pupica,,,,,,273.2661,276.3821,0,1,2.5775,,0,78,78,179,1,pseudoword,0,REAL,FALSA
,,,,,,,,,anisa,001,2024-06-20_08h25.15.197,empathy_intonation_perc,2024.1.4,Win32,60.24096386,,,,,,,,,,,,,,31,civil,,,,,,276.399,278.2992,1,0,1.3631,,0,79,79,30,1,two_way_cognate,1,REAL,FALSA
,,,,,,,,,anisa,001,2024-06-20_08h25.15.197,empathy_intonation_perc,2024.1.4,Win32,60.24096386,,,,,,,,,,,,,,181,gravés,,,,,,278.3003,281.1492,0,1,2.3177,,0,80,80,180,1,pseudoword,0,REAL,FALSA
,,,,,,,,,anisa,001,2024-06-20_08h25.15.197,empathy_intonation_perc,2024.1.4,Win32,60.24096386,,,,,,,,,,,,,,88,percha,,,,,,281.15,283.6656,0,1,1.9767,,0,81,81,87,1,non_cognate,1,REAL,FALSA
,,,,,,,,,anisa,001,2024-06-20_08h25.15.197,empathy_intonation_perc,2024.1.4,Win32,60.24096386,,,,,,,,,,,,,,119,esís,,,,,,283.6663,290.8153,0,1,6.6165,,0,82,82,118,1,pseudoword,0,REAL,FALSA
,,,,,,,,,anisa,001,2024-06-20_08h25.15.197,empathy_intonation_perc,2024.1.4,Win32,60.24096386,,,,,,,,,,,,,,65,guerra,,,,,,290.8334,292.4989,1,0,1.1314,,0,83,83,64,1,non_cognate,1,REAL,FALSA
,,,,,,,,,anisa,001,2024-06-20_08h25.15.197,empathy_intonation_perc,2024.1.4,Win32,60.24096386,,,,,,,,,,,,,,100,épinas,,,,,,292.4996,295.9165,0,1,2.8887,,0,84,84,99,1,pseudoword,0,REAL,FALSA
,,,,,,,,,anisa,001,2024-06-20_08h25.15.197,empathy_intonation_perc,2024.1.4,Win32,60.24096386,,,,,,,,,,,,,,1,moral,,,,,,295.933,297.3489,1,0,0.8817,,0,85,85,0,1,three_way_cognate,1,REAL,FALSA
,,,,,,,,,anisa,001,2024-06-20_08h25.15.197,empathy_intonation_perc,2024.1.4,Win32,60.24096386,,,,,,,,,,,,,,41,pasta,,,,,,297.3499,298.849,1,0,0.9645,,0,86,86,40,1,two_way_cognate,1,REAL,FALSA
,,,,,,,,,anisa,001,2024-06-20_08h25.15.197,empathy_intonation_perc,2024.1.4,Win32,60.24096386,,,,,,,,,,,,,,9,portal,,,,,,298.8497,300.2318,1,0,0.8548,,0,87,87,8,1,three_way_cognate,1,REAL,FALSA
,,,,,,,,,anisa,001,2024-06-20_08h25.15.197,empathy_intonation_perc,2024.1.4,Win32,60.24096386,,,,,,,,,,,,,,124,lobe,,,,,,300.2324,301.6157,0,1,0.8466,,0,88,88,123,1,pseudoword,0,REAL,FALSA
,,,,,,,,,anisa,001,2024-06-20_08h25.15.197,empathy_intonation_perc,2024.1.4,Win32,60.24096386,,,,,,,,,,,,,,132,nocó,,,,,,301.6164,305.3656,0,1,3.2127,,0,89,89,131,1,pseudoword,0,REAL,FALSA
,,,,,,,,,anisa,001,2024-06-20_08h25.15.197,empathy_intonation_perc,2024.1.4,Win32,60.24096386,,,,,,,,,,,,,,36,viable,,,,,,305.3823,309.2653,1,0,3.3435,,0,90,90,35,1,two_way_cognate,1,REAL,FALSA
,,,,,,,,,anisa,001,2024-06-20_08h25.15.197,empathy_intonation_perc,2024.1.4,Win32,60.24096386,,,,,,,,,,,,,,32,animal,,,,,,309.2826,310.7486,1,0,0.9237,,0,91,91,31,1,two_way_cognate,1,REAL,FALSA
,,,,,,,,,anisa,001,2024-06-20_08h25.15.197,empathy_intonation_perc,2024.1.4,Win32,60.24096386,,,,,,,,,,,,,,12,dogma,,,,,,310.7492,312.532,1,0,1.2438,,0,92,92,11,1,three_way_cognate,1,REAL,FALSA
,,,,,,,,,anisa,001,2024-06-20_08h25.15.197,empathy_intonation_perc,2024.1.4,Win32,60.24096386,,,,,,,,,,,,,,186,rizate,,,,,,312.5328,315.3987,0,1,2.3349,,0,93,93,185,1,pseudoword,0,REAL,FALSA
,,,,,,,,,anisa,001,2024-06-20_08h25.15.197,empathy_intonation_perc,2024.1.4,Win32,60.24096386,,,,,,,,,,,,,,90,venado,,,,,,315.4152,319.0319,0,1,3.0755,,0,94,94,89,1,non_cognate,1,REAL,FALSA
,,,,,,,,,anisa,001,2024-06-20_08h25.15.197,empathy_intonation_perc,2024.1.4,Win32,60.24096386,,,,,,,,,,,,,,142,parre,,,,,,319.049,321.1994,0,1,1.6216,,0,95,95,141,1,pseudoword,0,REAL,FALSA
,,,,,,,,,anisa,001,2024-06-20_08h25.15.197,empathy_intonation_perc,2024.1.4,Win32,60.24096386,,,,,,,,,,,,,,126,tobre,,,,,,321.2001,323.9486,0,1,2.2098,,0,96,96,125,1,pseudoword,0,REAL,FALSA
,,,,,,,,,anisa,001,2024-06-20_08h25.15.197,empathy_intonation_perc,2024.1.4,Win32,60.24096386,,,,,,,,,,,,,,56,pico,,,,,,323.9493,325.8818,1,0,1.3985,,0,97,97,55,1,non_cognate,1,REAL,FALSA
,,,,,,,,,anisa,001,2024-06-20_08h25.15.197,empathy_intonation_perc,2024.1.4,Win32,60.24096386,,,,,,,,,,,,,,106,diebro,,,,,,325.8827,329.5985,0,1,3.184,,0,98,98,105,1,pseudoword,0,REAL,FALSA
,,,,,,,,,anisa,001,2024-06-20_08h25.15.197,empathy_intonation_perc,2024.1.4,Win32,60.24096386,,,,,,,,,,,,,,34,actor,,,,,,329.6161,331.1152,1,0,0.9704,,0,99,99,33,1,two_way_cognate,1,REAL,FALSA
,,,,,,,,,anisa,001,2024-06-20_08h25.15.197,empathy_intonation_perc,2024.1.4,Win32,60.24096386,,,,,,,,,,,,,,167,dobbo,,,,,,331.1161,333.0817,0,1,1.4274,,0,100,100,166,1,pseudoword,0,REAL,FALSA
,,,,,,,,,anisa,001,2024-06-20_08h25.15.197,empathy_intonation_perc,2024.1.4,Win32,60.24096386,,,,,,,,,,,,,,70,ánimo,,,,,,333.0824,334.8317,1,0,1.2151,,0,101,101,69,1,non_cognate,1,REAL,FALSA
,,,,,,,,,anisa,001,2024-06-20_08h25.15.197,empathy_intonation_perc,2024.1.4,Win32,60.24096386,,,,,,,,,,,,,,73,llevar,,,,,,334.8325,336.1818,1,0,0.8131,,0,102,102,72,1,non_cognate,1,REAL,FALSA
,,,,,,,,,anisa,001,2024-06-20_08h25.15.197,empathy_intonation_perc,2024.1.4,Win32,60.24096386,,,,,,,,,,,,,,164,tecia,,,,,,336.1826,339.6814,0,1,2.9603,,0,103,103,163,1,pseudoword,0,REAL,FALSA
,,,,,,,,,anisa,001,2024-06-20_08h25.15.197,empathy_intonation_perc,2024.1.4,Win32,60.24096386,,,,,,,,,,,,,,190,asumie,,,,,,339.6979,342.7152,0,1,2.4951,,0,104,104,189,1,pseudoword,0,REAL,FALSA
,,,,,,,,,anisa,001,2024-06-20_08h25.15.197,empathy_intonation_perc,2024.1.4,Win32,60.24096386,,,,,,,,,,,,,,157,seled,,,,,,342.716,345.3646,0,1,2.119,,0,105,105,156,1,pseudoword,0,REAL,FALSA
,,,,,,,,,anisa,001,2024-06-20_08h25.15.197,empathy_intonation_perc,2024.1.4,Win32,60.24096386,,,,,,,,,,,,,,48,pelvis,,,,,,345.3811,351.1312,1,0,5.2309,,0,106,106,47,1,two_way_cognate,1,REAL,FALSA
,,,,,,,,,anisa,001,2024-06-20_08h25.15.197,empathy_intonation_perc,2024.1.4,Win32,60.24096386,,,,,,,,,,,,,,156,ozoso,,,,,,351.1482,357.0315,0,1,5.3455,,0,107,107,155,1,pseudoword,0,REAL,FALSA
,,,,,,,,,anisa,001,2024-06-20_08h25.15.197,empathy_intonation_perc,2024.1.4,Win32,60.24096386,,,,,,,,,,,,,,117,morrá,,,,,,357.0477,358.7482,0,1,1.163,,0,108,108,116,1,pseudoword,0,REAL,FALSA
,,,,,,,,,anisa,001,2024-06-20_08h25.15.197,empathy_intonation_perc,2024.1.4,Win32,60.24096386,,,,,,,,,,,,,,79,suelo,,,,,,358.7492,360.3145,1,0,1.0371,,0,109,109,78,1,non_cognate,1,REAL,FALSA
,,,,,,,,,anisa,001,2024-06-20_08h25.15.197,empathy_intonation_perc,2024.1.4,Win32,60.24096386,,,,,,,,,,,,,,170,diabo,,,,,,360.3151,364.6482,0,1,3.7933,,0,110,110,169,1,pseudoword,0,REAL,FALSA
,,,,,,,,,anisa,001,2024-06-20_08h25.15.197,empathy_intonation_perc,2024.1.4,Win32,60.24096386,,,,,,,,,,,,,,143,hurcos,,,,,,364.6641,367.8482,0,1,2.6587,,0,111,111,142,1,pseudoword,0,REAL,FALSA
,,,,,,,,,anisa,001,2024-06-20_08h25.15.197,empathy_intonation_perc,2024.1.4,Win32,60.24096386,,,,,,,,,,,,,,172,dogue,,,,,,367.8647,371.298,0,1,2.8916,,0,112,112,171,1,pseudoword,0,REAL,FALSA
,,,,,,,,,anisa,001,2024-06-20_08h25.15.197,empathy_intonation_perc,2024.1.4,Win32,60.24096386,,,,,,,,,,,,,,125,ceme,,,,,,371.3142,377.2979,0,1,5.4463,,0,113,113,124,1,pseudoword,0,REAL,FALSA
,,,,,,,,,anisa,001,2024-06-20_08h25.15.197,empathy_intonation_perc,2024.1.4,Win32,60.24096386,,,,,,,,,,,,,,46,mortal,,,,,,377.3142,380.1479,1,0,2.3089,,0,114,114,45,1,two_way_cognate,1,REAL,FALSA
,,,,,,,,,anisa,001,2024-06-20_08h25.15.197,empathy_intonation_perc,2024.1.4,Win32,60.24096386,,,,,,,,,,,,,,64,rizado,,,,,,380.1488,381.6145,1,0,0.9294,,0,115,115,63,1,non_cognate,1,REAL,FALSA
,,,,,,,,,anisa,001,2024-06-20_08h25.15.197,empathy_intonation_perc,2024.1.4,Win32,60.24096386,,,,,,,,,,,,,,13,plan,,,,,,381.6152,382.798,1,0,0.6459,,0,116,116,12,1,three_way_cognate,1,REAL,FALSA
,,,,,,,,,anisa,001,2024-06-20_08h25.15.197,empathy_intonation_perc,2024.1.4,Win32,60.24096386,,,,,,,,,,,,,,101,losco,,,,,,382.799,384.5142,0,1,1.1838,,0,117,117,100,1,pseudoword,0,REAL,FALSA
,,,,,,,,,anisa,001,2024-06-20_08h25.15.197,empathy_intonation_perc,2024.1.4,Win32,60.24096386,,,,,,,,,,,,,,74,ala,,,,,,384.5147,385.7979,1,0,0.747,,0,118,118,73,1,non_cognate,1,REAL,FALSA
,,,,,,,,,anisa,001,2024-06-20_08h25.15.197,empathy_intonation_perc,2024.1.4,Win32,60.24096386,,,,,,,,,,,,,,173,mibro,,,,,,385.7987,387.1978,0,1,0.8637,,0,119,119,172,1,pseudoword,0,REAL,FALSA
,,,,,,,,,anisa,001,2024-06-20_08h25.15.197,empathy_intonation_perc,2024.1.4,Win32,60.24096386,,,,,,,,,,,,,,136,hueas,,,,,,387.199,391.8475,0,1,4.1201,,0,120,120,135,1,pseudoword,0,REAL,FALSA
,,,,,,,,,anisa,001,2024-06-20_08h25.15.197,empathy_intonation_perc,2024.1.4,Win32,60.24096386,,,,,,,,,,,,,,24,retina,,,,,,391.864,400.8811,0,1,8.4939,,0,121,121,23,1,three_way_cognate,1,REAL,FALSA
,,,,,,,,,anisa,001,2024-06-20_08h25.15.197,empathy_intonation_perc,2024.1.4,Win32,60.24096386,,,,,,,,,,,,,,49,teñir,,,,,,400.8982,403.831,0,1,2.4012,,0,122,122,48,1,non_cognate,1,REAL,FALSA
,,,,,,,,,anisa,001,2024-06-20_08h25.15.197,empathy_intonation_perc,2024.1.4,Win32,60.24096386,,,,,,,,,,,,,,42,rumor,,,,,,403.8319,405.2316,1,0,0.8613,,0,123,123,41,1,two_way_cognate,1,REAL,FALSA
,,,,,,,,,anisa,001,2024-06-20_08h25.15.197,empathy_intonation_perc,2024.1.4,Win32,60.24096386,,,,,,,,,,,,,,69,tiza,,,,,,405.2325,406.7305,1,0,0.9736,,0,124,124,68,1,non_cognate,1,REAL,FALSA
,,,,,,,,,anisa,001,2024-06-20_08h25.15.197,empathy_intonation_perc,2024.1.4,Win32,60.24096386,,,,,,,,,,,,,,171,gotro,,,,,,406.7311,408.3972,0,1,1.1361,,0,125,125,170,1,pseudoword,0,REAL,FALSA
,,,,,,,,,anisa,001,2024-06-20_08h25.15.197,empathy_intonation_perc,2024.1.4,Win32,60.24096386,,,,,,,,,,,,,,80,cuenco,,,,,,408.3982,410.9322,0,1,1.9927,,0,126,126,79,1,non_cognate,1,REAL,FALSA
,,,,,,,,,anisa,001,2024-06-20_08h25.15.197,empathy_intonation_perc,2024.1.4,Win32,60.24096386,,,,,,,,,,,,,,166,anfia,,,,,,410.9488,414.5475,0,1,3.0602,,0,127,127,165,1,pseudoword,0,REAL,FALSA
,,,,,,,,,anisa,001,2024-06-20_08h25.15.197,empathy_intonation_perc,2024.1.4,Win32,60.24096386,,,,,,,,,,,,,,168,cobén,,,,,,414.548,423.4309,1,0,8.345,,0,128,128,167,1,pseudoword,0,REAL,FALSA
,,,,,,,,,anisa,001,2024-06-20_08h25.15.197,empathy_intonation_perc,2024.1.4,Win32,60.24096386,,,,,,,,,,,,,,177,entodo,,,,,,423.4482,427.2974,0,1,3.3107,,0,129,129,176,1,pseudoword,0,REAL,FALSA
,,,,,,,,,anisa,001,2024-06-20_08h25.15.197,empathy_intonation_perc,2024.1.4,Win32,60.24096386,,,,,,,,,,,,,,91,equipo,,,,,,427.2984,432.0804,1,0,4.2427,,0,130,130,90,1,non_cognate,1,REAL,FALSA
,,,,,,,,,anisa,001,2024-06-20_08h25.15.197,empathy_intonation_perc,2024.1.4,Win32,60.24096386,,,,,,,,,,,,,,165,chote,,,,,,432.096,440.1142,0,1,7.4937,,0,131,131,164,1,pseudoword,0,REAL,FALSA
,,,,,,,,,anisa,001,2024-06-20_08h25.15.197,empathy_intonation_perc,2024.1.4,Win32,60.24096386,,,,,,,,,,,,,,178,inichó,,,,,,440.1311,446.7301,1,0,6.0642,,0,132,132,177,1,pseudoword,0,REAL,FALSA
,,,,,,,,,anisa,001,2024-06-20_08h25.15.197,empathy_intonation_perc,2024.1.4,Win32,60.24096386,,,,,,,,,,,,,,76,chocar,,,,,,446.7471,448.9472,1,0,1.6647,,0,133,133,75,1,non_cognate,1,REAL,FALSA
,,,,,,,,,anisa,001,2024-06-20_08h25.15.197,empathy_intonation_perc,2024.1.4,Win32,60.24096386,,,,,,,,,,,,,,116,grigir,,,,,,448.9483,450.7139,1,0,1.2358,,0,134,134,115,1,pseudoword,0,REAL,FALSA
,,,,,,,,,anisa,001,2024-06-20_08h25.15.197,empathy_intonation_perc,2024.1.4,Win32,60.24096386,,,,,,,,,,,,,,82,brillo,,,,,,450.715,452.2971,1,0,1.0479,,0,135,135,81,1,non_cognate,1,REAL,FALSA
,,,,,,,,,anisa,001,2024-06-20_08h25.15.197,empathy_intonation_perc,2024.1.4,Win32,60.24096386,,,,,,,,,,,,,,30,fiscal,,,,,,452.2978,453.847,1,0,1.0105,,0,136,136,29,1,two_way_cognate,1,REAL,FALSA
,,,,,,,,,anisa,001,2024-06-20_08h25.15.197,empathy_intonation_perc,2024.1.4,Win32,60.24096386,,,,,,,,,,,,,,66,aleta,,,,,,453.8482,459.2967,0,1,4.9223,,0,137,137,65,1,non_cognate,1,REAL,FALSA
,,,,,,,,,anisa,001,2024-06-20_08h25.15.197,empathy_intonation_perc,2024.1.4,Win32,60.24096386,,,,,,,,,,,,,,148,gino,,,,,,459.3132,463.5133,0,1,3.6781,,0,138,138,147,1,pseudoword,0,REAL,FALSA
,,,,,,,,,anisa,001,2024-06-20_08h25.15.197,empathy_intonation_perc,2024.1.4,Win32,60.24096386,,,,,,,,,,,,,,15,test,,,,,,463.5294,465.0973,1,0,1.0452,,0,139,139,14,1,three_way_cognate,1,REAL,FALSA
,,,,,,,,,anisa,001,2024-06-20_08h25.15.197,empathy_intonation_perc,2024.1.4,Win32,60.24096386,,,,,,,,,,,,,,94,forro,,,,,,465.0985,466.9966,1,0,1.3699,,0,140,140,93,1,non_cognate,1,REAL,FALSA
,,,,,,,,,anisa,001,2024-06-20_08h25.15.197,empathy_intonation_perc,2024.1.4,Win32,60.24096386,,,,,,,,,,,,,,96,caro,,,,,,466.9973,468.5799,1,0,1.054,,0,141,141,95,1,non_cognate,1,REAL,FALSA
,,,,,,,,,anisa,001,2024-06-20_08h25.15.197,empathy_intonation_perc,2024.1.4,Win32,60.24096386,,,,,,,,,,,,,,153,golla,,,,,,468.5806,475.5801,0,1,6.4614,,0,142,142,152,1,pseudoword,0,REAL,FALSA
,,,,,,,,,anisa,001,2024-06-20_08h25.15.197,empathy_intonation_perc,2024.1.4,Win32,60.24096386,,,,,,,,,,,,,,114,dibrea,,,,,,475.5962,481.0467,0,1,4.929,,0,143,143,113,1,pseudoword,0,REAL,FALSA
,,,,,,,,,anisa,001,2024-06-20_08h25.15.197,empathy_intonation_perc,2024.1.4,Win32,60.24096386,,,,,,,,,,,,,,43,honor,,,,,,481.0625,482.3467,1,0,0.7597,,0,144,144,42,1,two_way_cognate,1,REAL,FALSA
,,,,,,,,,anisa,001,2024-06-20_08h25.15.197,empathy_intonation_perc,2024.1.4,Win32,60.24096386,,,,,,,,,,,,,,185,aljizo,,,,,,482.3475,486.7799,0,1,3.8975,,0,145,145,184,1,pseudoword,0,REAL,FALSA
,,,,,,,,,anisa,001,2024-06-20_08h25.15.197,empathy_intonation_perc,2024.1.4,Win32,60.24096386,,,,,,,,,,,,,,29,clamor,,,,,,486.7962,489.48,0,1,2.1422,,0,146,146,28,1,two_way_cognate,1,REAL,FALSA
,,,,,,,,,anisa,001,2024-06-20_08h25.15.197,empathy_intonation_perc,2024.1.4,Win32,60.24096386,,,,,,,,,,,,,,122,boñaz,,,,,,489.481,491.8796,1,0,1.8661,,0,147,147,121,1,pseudoword,0,REAL,FALSA
,,,,,,,,,anisa,001,2024-06-20_08h25.15.197,empathy_intonation_perc,2024.1.4,Win32,60.24096386,,,,,,,,,,,,,,123,arane,,,,,,491.8808,496.6295,0,1,4.2131,,0,148,148,122,1,pseudoword,0,REAL,FALSA
,,,,,,,,,anisa,001,2024-06-20_08h25.15.197,empathy_intonation_perc,2024.1.4,Win32,60.24096386,,,,,,,,,,,,,,60,siglo,,,,,,496.6461,498.2462,1,0,1.0828,,0,149,149,59,1,non_cognate,1,REAL,FALSA
,,,,,,,,,anisa,001,2024-06-20_08h25.15.197,empathy_intonation_perc,2024.1.4,Win32,60.24096386,,,,,,,,,,,,,,18,altar,,,,,,498.2471,499.6632,1,0,0.8804,,0,150,150,17,1,three_way_cognate,1,REAL,FALSA
,,,,,,,,,anisa,001,2024-06-20_08h25.15.197,empathy_intonation_perc,2024.1.4,Win32,60.24096386,,,,,,,,,,,,,,92,flecha,,,,,,499.6639,502.1798,1,0,1.9812,,0,151,151,91,1,non_cognate,1,REAL,FALSA
,,,,,,,,,anisa,001,2024-06-20_08h25.15.197,empathy_intonation_perc,2024.1.4,Win32,60.24096386,,,,,,,,,,,,,,145,rúo,,,,,,502.1809,507.3961,0,1,4.6832,,0,152,152,144,1,pseudoword,0,REAL,FALSA
,,,,,,,,,anisa,001,2024-06-20_08h25.15.197,empathy_intonation_perc,2024.1.4,Win32,60.24096386,,,,,,,,,,,,,,162,cengo,,,,,,507.4117,509.713,0,1,1.7768,,0,153,153,161,1,pseudoword,0,REAL,FALSA
,,,,,,,,,anisa,001,2024-06-20_08h25.15.197,empathy_intonation_perc,2024.1.4,Win32,60.24096386,,,,,,,,,,,,,,191,frasis,,,,,,509.7138,512.0127,1,0,1.7683,,0,154,154,190,1,pseudoword,0,REAL,FALSA
,,,,,,,,,anisa,001,2024-06-20_08h25.15.197,empathy_intonation_perc,2024.1.4,Win32,60.24096386,,,,,,,,,,,,,,152,prave,,,,,,512.0138,519.0793,0,1,6.5361,,0,155,155,151,1,pseudoword,0,REAL,FALSA
,,,,,,,,,anisa,001,2024-06-20_08h25.15.197,empathy_intonation_perc,2024.1.4,Win32,60.24096386,,,,,,,,,,,,,,35,aurora,,,,,,519.0962,520.5126,1,0,0.8827,,0,156,156,34,1,two_way_cognate,1,REAL,FALSA
,,,,,,,,,anisa,001,2024-06-20_08h25.15.197,empathy_intonation_perc,2024.1.4,Win32,60.24096386,,,,,,,,,,,,,,144,diroco,,,,,,520.5131,522.3295,0,1,1.2811,,0,157,157,143,1,pseudoword,0,REAL,FALSA
,,,,,,,,,anisa,001,2024-06-20_08h25.15.197,empathy_intonation_perc,2024.1.4,Win32,60.24096386,,,,,,,,,,,,,,104,estulo,,,,,,522.3304,527.3462,1,0,4.4762,,0,158,158,103,1,pseudoword,0,REAL,FALSA
,,,,,,,,,anisa,001,2024-06-20_08h25.15.197,empathy_intonation_perc,2024.1.4,Win32,60.24096386,,,,,,,,,,,,,,187,nomata,,,,,,527.3628,530.4961,0,1,2.5961,,0,159,159,186,1,pseudoword,0,REAL,FALSA
,,,,,,,,,anisa,001,2024-06-20_08h25.15.197,empathy_intonation_perc,2024.1.4,Win32,60.24096386,,,,,,,,,,,,,,121,barbs,,,,,,530.4971,536.3958,0,1,5.3678,,0,160,160,120,1,pseudoword,0,REAL,FALSA
,,,,,,,,,anisa,001,2024-06-20_08h25.15.197,empathy_intonation_perc,2024.1.4,Win32,60.24096386,,,,,,,,,,,,,,16,chat,,,,,,536.4126,539.7124,1,0,2.7655,,0,161,161,15,1,three_way_cognate,1,REAL,FALSA
,,,,,,,,,anisa,001,2024-06-20_08h25.15.197,empathy_intonation_perc,2024.1.4,Win32,60.24096386,,,,,,,,,,,,,,155,kugis,,,,,,539.7285,542.0127,0,1,1.7605,,0,162,162,154,1,pseudoword,0,REAL,FALSA
,,,,,,,,,anisa,001,2024-06-20_08h25.15.197,empathy_intonation_perc,2024.1.4,Win32,60.24096386,,,,,,,,,,,,,,37,torso,,,,,,542.0138,543.6293,1,0,1.079,,0,163,163,36,1,two_way_cognate,1,REAL,FALSA
,,,,,,,,,anisa,001,2024-06-20_08h25.15.197,empathy_intonation_perc,2024.1.4,Win32,60.24096386,,,,,,,,,,,,,,21,hotel,,,,,,543.6301,545.0628,1,0,0.8966,,0,164,164,20,1,three_way_cognate,1,REAL,FALSA
,,,,,,,,,anisa,001,2024-06-20_08h25.15.197,empathy_intonation_perc,2024.1.4,Win32,60.24096386,,,,,,,,,,,,,,141,virios,,,,,,545.064,547.3626,0,1,1.7667,,0,165,165,140,1,pseudoword,0,REAL,FALSA
,,,,,,,,,anisa,001,2024-06-20_08h25.15.197,empathy_intonation_perc,2024.1.4,Win32,60.24096386,,,,,,,,,,,,,,40,pelvis,,,,,,547.3786,548.8459,1,0,0.9455,,0,166,166,39,1,two_way_cognate,1,REAL,FALSA
,,,,,,,,,anisa,001,2024-06-20_08h25.15.197,empathy_intonation_perc,2024.1.4,Win32,60.24096386,,,,,,,,,,,,,,140,chorde,,,,,,548.8467,551.8288,0,1,2.4511,,0,167,167,139,1,pseudoword,0,REAL,FALSA
,,,,,,,,,anisa,001,2024-06-20_08h25.15.197,empathy_intonation_perc,2024.1.4,Win32,60.24096386,,,,,,,,,,,,,,107,plago,,,,,,551.8454,553.4292,1,0,1.0652,,0,168,168,106,1,pseudoword,0,REAL,FALSA
,,,,,,,,,anisa,001,2024-06-20_08h25.15.197,empathy_intonation_perc,2024.1.4,Win32,60.24096386,,,,,,,,,,,,,,188,amplir,,,,,,553.4302,555.0125,1,0,1.0524,,0,169,169,187,1,pseudoword,0,REAL,FALSA
,,,,,,,,,anisa,001,2024-06-20_08h25.15.197,empathy_intonation_perc,2024.1.4,Win32,60.24096386,,,,,,,,,,,,,,160,fomeó,,,,,,555.0136,559.3289,1,0,3.7784,,0,170,170,159,1,pseudoword,0,REAL,FALSA
,,,,,,,,,anisa,001,2024-06-20_08h25.15.197,empathy_intonation_perc,2024.1.4,Win32,60.24096386,,,,,,,,,,,,,,11,golf,,,,,,559.3454,560.9458,1,0,1.0779,,0,171,171,10,1,three_way_cognate,1,REAL,FALSA
,,,,,,,,,anisa,001,2024-06-20_08h25.15.197,empathy_intonation_perc,2024.1.4,Win32,60.24096386,,,,,,,,,,,,,,78,rendir,,,,,,560.9467,562.7291,1,0,1.2507,,0,172,172,77,1,non_cognate,1,REAL,FALSA
,,,,,,,,,anisa,001,2024-06-20_08h25.15.197,empathy_intonation_perc,2024.1.4,Win32,60.24096386,,,,,,,,,,,,,,138,tator,,,,,,562.7299,567.5457,0,1,4.2764,,0,173,173,137,1,pseudoword,0,REAL,FALSA
,,,,,,,,,anisa,001,2024-06-20_08h25.15.197,empathy_intonation_perc,2024.1.4,Win32,60.24096386,,,,,,,,,,,,,,50,sierra,,,,,,567.5624,570.1623,1,0,2.0678,,0,174,174,49,1,non_cognate,1,REAL,FALSA
,,,,,,,,,anisa,001,2024-06-20_08h25.15.197,empathy_intonation_perc,2024.1.4,Win32,60.24096386,,,,,,,,,,,,,,23,plural,,,,,,570.1634,571.6294,1,0,0.9385,,0,175,175,22,1,three_way_cognate,1,REAL,FALSA
,,,,,,,,,anisa,001,2024-06-20_08h25.15.197,empathy_intonation_perc,2024.1.4,Win32,60.24096386,,,,,,,,,,,,,,189,medium,,,,,,571.6304,572.8456,1,0,0.6833,,0,176,176,188,1,pseudoword,0,REAL,FALSA
,,,,,,,,,anisa,001,2024-06-20_08h25.15.197,empathy_intonation_perc,2024.1.4,Win32,60.24096386,,,,,,,,,,,,,,85,enorme,,,,,,572.8467,575.5453,1,0,2.1614,,0,177,177,84,1,non_cognate,1,REAL,FALSA
,,,,,,,,,anisa,001,2024-06-20_08h25.15.197,empathy_intonation_perc,2024.1.4,Win32,60.24096386,,,,,,,,,,,,,,7,albino,,,,,,575.5623,577.1466,1,0,1.0489,,0,178,178,6,1,three_way_cognate,1,REAL,FALSA
,,,,,,,,,anisa,001,2024-06-20_08h25.15.197,empathy_intonation_perc,2024.1.4,Win32,60.24096386,,,,,,,,,,,,,,131,fuar,,,,,,577.1475,579.0625,0,1,1.3903,,0,179,179,130,1,pseudoword,0,REAL,FALSA
,,,,,,,,,anisa,001,2024-06-20_08h25.15.197,empathy_intonation_perc,2024.1.4,Win32,60.24096386,,,,,,,,,,,,,,20,trauma,,,,,,579.0636,580.3965,1,0,0.8054,,0,180,180,19,1,three_way_cognate,1,REAL,FALSA
,,,,,,,,,anisa,001,2024-06-20_08h25.15.197,empathy_intonation_perc,2024.1.4,Win32,60.24096386,,,,,,,,,,,,,,2,tumor,,,,,,580.3971,581.7453,1,0,0.8118,,0,181,181,1,1,three_way_cognate,1,REAL,FALSA
,,,,,,,,,anisa,001,2024-06-20_08h25.15.197,empathy_intonation_perc,2024.1.4,Win32,60.24096386,,,,,,,,,,,,,,113,nasce,,,,,,581.746,583.4291,0,1,1.1507,,0,182,182,112,1,pseudoword,0,REAL,FALSA
,,,,,,,,,anisa,001,2024-06-20_08h25.15.197,empathy_intonation_perc,2024.1.4,Win32,60.24096386,,,,,,,,,,,,,,129,vinzó,,,,,,583.4299,586.4955,1,0,2.5357,,0,183,183,128,1,pseudoword,0,REAL,FALSA
,,,,,,,,,anisa,001,2024-06-20_08h25.15.197,empathy_intonation_perc,2024.1.4,Win32,60.24096386,,,,,,,,,,,,,,68,puñal,,,,,,586.4965,588.6284,1,0,1.6034,,0,184,184,67,1,non_cognate,1,REAL,FALSA
,,,,,,,,,anisa,001,2024-06-20_08h25.15.197,empathy_intonation_perc,2024.1.4,Win32,60.24096386,,,,,,,,,,,,,,108,jauda,,,,,,588.6292,591.1285,0,1,1.9695,,0,185,185,107,1,pseudoword,0,REAL,FALSA
,,,,,,,,,anisa,001,2024-06-20_08h25.15.197,empathy_intonation_perc,2024.1.4,Win32,60.24096386,,,,,,,,,,,,,,135,panté,,,,,,591.1293,594.7283,0,1,3.0674,,0,186,186,134,1,pseudoword,0,REAL,FALSA
,,,,,,,,,anisa,001,2024-06-20_08h25.15.197,empathy_intonation_perc,2024.1.4,Win32,60.24096386,,,,,,,,,,,,,,26,enigma,,,,,,594.7449,596.3123,1,0,1.0534,,0,187,187,25,1,two_way_cognate,1,REAL,FALSA
,,,,,,,,,anisa,001,2024-06-20_08h25.15.197,empathy_intonation_perc,2024.1.4,Win32,60.24096386,,,,,,,,,,,,,,17,clan,,,,,,596.3132,600.212,1,0,3.3621,,0,188,188,16,1,three_way_cognate,1,REAL,FALSA
,,,,,,,,,anisa,001,2024-06-20_08h25.15.197,empathy_intonation_perc,2024.1.4,Win32,60.24096386,,,,,,,,,,,,,,27,piano,,,,,,600.2287,601.462,1,0,0.7007,,0,189,189,26,1,two_way_cognate,1,REAL,FALSA
,,,,,,,,,anisa,001,2024-06-20_08h25.15.197,empathy_intonation_perc,2024.1.4,Win32,60.24096386,,,,,,,,,,,,,,47,color,,,,,,601.4628,602.5787,1,0,0.5857,,0,190,190,46,1,two_way_cognate,1,REAL,FALSA
,,,,,,,,,anisa,001,2024-06-20_08h25.15.197,empathy_intonation_perc,2024.1.4,Win32,60.24096386,,,,,,,,,,,,,,169,pitis,,,,,,602.5797,604.3787,0,1,1.2641,,0,191,191,168,1,pseudoword,0,REAL,FALSA
