lextale_instructions.started,lextale_instructions.stopped,lextale_instructions_loop.thisRepN,lextale_instructions_loop.thisTrialN,lextale_instructions_loop.thisN,lextale_instructions_loop.thisIndex,lextale_instructions_loop.ran,instructions_text,continue_text,participant,session,date,expName,psychopyVersion,OS,frameRate,lextale_practice.started,lextale_practice.stopped,key_resp_lextale_practice.keys,key_resp_lextale_practice.corr,key_resp_lextale_practice.rt,key_resp_lextale_practice.duration,lextale_practice_feedback.started,lextale_practice_feedback.stopped,lextale_practice_trials.thisRepN,lextale_practice_trials.thisTrialN,lextale_practice_trials.thisN,lextale_practice_trials.thisIndex,lextale_practice_trials.ran,stim,word,correct_response,prac_button_real,prac_button_false,lextale_check.started,lextale_check.stopped,lextale_trial.started,lextale_trial.stopped,key_resp_lextale_trial.keys,key_resp_lextale_trial.corr,key_resp_lextale_trial.rt,key_resp_lextale_trial.duration,lextail_trials.thisRepN,lextail_trials.thisTrialN,lextail_trials.thisN,lextail_trials.thisIndex,lextail_trials.ran,type,correct_reponse,button_real,button_false
0.003,7.719,0,0,0,0,1,"Este es un test de vocabulario en español. 
  
  A continuación vas a ver 90 secuencias de letras que parecen 'españolas'.
  
  Solo algunas de ellas son palabras de verdad.",(presiona la barra espaciadora para continuar),,001,2025-04-30_09h11.06.970,empathy_intonation_perc,2024.1.4,MacIntel,76.92307692,,,,,,,,,,,,,,,,,,,,,,,,,,,,,,,,,,,
7.719,18.436,0,1,1,1,1,"Por favor, señala las palabras que tú conoces (aquellas que estás convencido que son palabras españolas, incluso aunque no seas capaz de dar el significado preciso).",(presiona la barra espaciadora para continuar),,001,2025-04-30_09h11.06.970,empathy_intonation_perc,2024.1.4,MacIntel,76.92307692,,,,,,,,,,,,,,,,,,,,,,,,,,,,,,,,,,,
18.436,37.483,0,2,2,2,1,Pero cuidado: los errores se penalizan. Por eso no tiene sentido tratar de incrementar tu puntuación marcando como reales palabras que nunca has visto.,(presiona la barra espaciadora para continuar),,001,2025-04-30_09h11.06.970,empathy_intonation_perc,2024.1.4,MacIntel,76.92307692,,,,,,,,,,,,,,,,,,,,,,,,,,,,,,,,,,,
37.484,50.448,0,3,3,3,1,"Presiona la tecla 1 si piensas que es una palabra real y la tecla 
  0 si piensas que es una palabra falsa. 
  
  Vamos a practicar un poco...",(presiona la barra espaciadora para continuar),,001,2025-04-30_09h11.06.970,empathy_intonation_perc,2024.1.4,MacIntel,76.92307692,,,,,,,,,,,,,,,,,,,,,,,,,,,,,,,,,,,
,,,,,,,,,,001,2025-04-30_09h11.06.970,empathy_intonation_perc,2024.1.4,MacIntel,76.92307692,50.452,51.875,1,0,0.914,,51.876,52.876,0,0,0,0,1,0,depiste,0,REAL,FALSA,,,,,,,,,,,,,,,,,
,,,,,,,,,,001,2025-04-30_09h11.06.970,empathy_intonation_perc,2024.1.4,MacIntel,76.92307692,52.876,53.956,1,1,0.561,,53.956,54.957,0,1,1,1,1,0,sí,1,REAL,FALSA,,,,,,,,,,,,,,,,,
,,,,,,,,,,001,2025-04-30_09h11.06.970,empathy_intonation_perc,2024.1.4,MacIntel,76.92307692,54.957,56.197,0,1,0.728,,56.197,57.197,0,2,2,2,1,0,coné,0,REAL,FALSA,,,,,,,,,,,,,,,,,
,,,,,,,,,,001,2025-04-30_09h11.06.970,empathy_intonation_perc,2024.1.4,MacIntel,76.92307692,57.198,58.331,1,0,0.616,,58.331,59.332,0,3,3,3,1,0,calpar,0,REAL,FALSA,,,,,,,,,,,,,,,,,
,,,,,,,,,,001,2025-04-30_09h11.06.970,empathy_intonation_perc,2024.1.4,MacIntel,76.92307692,59.332,60.881,0,1,1.033,,60.881,61.879,0,4,4,4,1,0,joten,0,REAL,FALSA,,,,,,,,,,,,,,,,,
,,,,,,,,,,001,2025-04-30_09h11.06.970,empathy_intonation_perc,2024.1.4,MacIntel,76.92307692,61.879,63.427,1,1,1.033,,63.427,64.427,0,5,5,5,1,0,sacapuntas,1,REAL,FALSA,,,,,,,,,,,,,,,,,
,,,,,,,,,,001,2025-04-30_09h11.06.970,empathy_intonation_perc,2024.1.4,MacIntel,76.92307692,64.427,66.014,0,1,1.068,,66.014,67.014,0,6,6,6,1,0,priba,0,REAL,FALSA,,,,,,,,,,,,,,,,,
,,,,,,,,,,001,2025-04-30_09h11.06.970,empathy_intonation_perc,2024.1.4,MacIntel,76.92307692,67.014,68.388,1,0,0.854,,68.389,69.389,0,7,7,7,1,0,pelasula,0,REAL,FALSA,,,,,,,,,,,,,,,,,
,,,,,,,,,,001,2025-04-30_09h11.06.970,empathy_intonation_perc,2024.1.4,MacIntel,76.92307692,69.389,70.456,1,1,0.549,,70.456,71.456,0,8,8,8,1,0,bien,1,REAL,FALSA,,,,,,,,,,,,,,,,,
,,,,,,,,,,001,2025-04-30_09h11.06.970,empathy_intonation_perc,2024.1.4,MacIntel,76.92307692,71.457,72.55,1,1,0.577,,72.55,73.55,0,9,9,9,1,0,casa,1,REAL,FALSA,,,,,,,,,,,,,,,,,
,,,,,,,,,,001,2025-04-30_09h11.06.970,empathy_intonation_perc,2024.1.4,MacIntel,76.92307692,73.551,74.658,0,1,0.587,,74.658,75.658,0,10,10,10,1,0,lejo,0,REAL,FALSA,,,,,,,,,,,,,,,,,
,,,,,,,,,,001,2025-04-30_09h11.06.970,empathy_intonation_perc,2024.1.4,MacIntel,76.92307692,75.658,77.058,1,0,0.879,,77.058,78.059,0,11,11,11,1,0,pretantas,0,REAL,FALSA,,,,,,,,,,,,,,,,,
,,,,,,,,,,001,2025-04-30_09h11.06.970,empathy_intonation_perc,2024.1.4,MacIntel,76.92307692,,,,,,,,,,,,,,,,,,,78.059,84.675,,,,,,,,,,,,,,,
,,,,,,,,,,001,2025-04-30_09h11.06.970,empathy_intonation_perc,2024.1.4,MacIntel,76.92307692,,,,,,,,,,,,,,130,dubo,,,,,,84.68,85.955,0,1,0.76,,0,0,0,129,1,pseudoword,0,REAL,FALSA
,,,,,,,,,,001,2025-04-30_09h11.06.970,empathy_intonation_perc,2024.1.4,MacIntel,76.92307692,,,,,,,,,,,,,,144,diroco,,,,,,85.956,87.249,0,1,0.779,,0,1,1,143,1,pseudoword,0,REAL,FALSA
,,,,,,,,,,001,2025-04-30_09h11.06.970,empathy_intonation_perc,2024.1.4,MacIntel,76.92307692,,,,,,,,,,,,,,153,golla,,,,,,87.249,88.516,0,1,0.748,,0,2,2,152,1,pseudoword,0,REAL,FALSA
,,,,,,,,,,001,2025-04-30_09h11.06.970,empathy_intonation_perc,2024.1.4,MacIntel,76.92307692,,,,,,,,,,,,,,143,hurcos,,,,,,88.516,89.77,0,1,0.735,,0,3,3,142,1,pseudoword,0,REAL,FALSA
,,,,,,,,,,001,2025-04-30_09h11.06.970,empathy_intonation_perc,2024.1.4,MacIntel,76.92307692,,,,,,,,,,,,,,10,drama,,,,,,89.77,90.85,1,0,0.564,,0,4,4,9,1,three_way_cognate,1,REAL,FALSA
,,,,,,,,,,001,2025-04-30_09h11.06.970,empathy_intonation_perc,2024.1.4,MacIntel,76.92307692,,,,,,,,,,,,,,190,asumie,,,,,,90.851,92.411,0,1,1.043,,0,5,5,189,1,pseudoword,0,REAL,FALSA
,,,,,,,,,,001,2025-04-30_09h11.06.970,empathy_intonation_perc,2024.1.4,MacIntel,76.92307692,,,,,,,,,,,,,,57,regalo,,,,,,92.411,93.678,1,0,0.747,,0,6,6,56,1,non_cognate,1,REAL,FALSA
,,,,,,,,,,001,2025-04-30_09h11.06.970,empathy_intonation_perc,2024.1.4,MacIntel,76.92307692,,,,,,,,,,,,,,177,entodo,,,,,,93.678,95.145,1,0,0.948,,0,7,7,176,1,pseudoword,0,REAL,FALSA
,,,,,,,,,,001,2025-04-30_09h11.06.970,empathy_intonation_perc,2024.1.4,MacIntel,76.92307692,,,,,,,,,,,,,,85,enorme,,,,,,95.146,96.372,1,0,0.708,,0,8,8,84,1,non_cognate,1,REAL,FALSA
,,,,,,,,,,001,2025-04-30_09h11.06.970,empathy_intonation_perc,2024.1.4,MacIntel,76.92307692,,,,,,,,,,,,,,111,monue,,,,,,96.373,97.6,0,1,0.709,,0,9,9,110,1,pseudoword,0,REAL,FALSA
,,,,,,,,,,001,2025-04-30_09h11.06.970,empathy_intonation_perc,2024.1.4,MacIntel,76.92307692,,,,,,,,,,,,,,149,emén,,,,,,97.6,99.067,0,1,0.955,,0,10,10,148,1,pseudoword,0,REAL,FALSA
,,,,,,,,,,001,2025-04-30_09h11.06.970,empathy_intonation_perc,2024.1.4,MacIntel,76.92307692,,,,,,,,,,,,,,19,mafia,,,,,,99.067,100.214,1,0,0.627,,0,11,11,18,1,three_way_cognate,1,REAL,FALSA
,,,,,,,,,,001,2025-04-30_09h11.06.970,empathy_intonation_perc,2024.1.4,MacIntel,76.92307692,,,,,,,,,,,,,,123,arane,,,,,,100.214,101.628,0,1,0.893,,0,12,12,122,1,pseudoword,0,REAL,FALSA
,,,,,,,,,,001,2025-04-30_09h11.06.970,empathy_intonation_perc,2024.1.4,MacIntel,76.92307692,,,,,,,,,,,,,,63,hilo,,,,,,101.628,103.215,1,0,1.068,,0,13,13,62,1,non_cognate,1,REAL,FALSA
,,,,,,,,,,001,2025-04-30_09h11.06.970,empathy_intonation_perc,2024.1.4,MacIntel,76.92307692,,,,,,,,,,,,,,155,kugis,,,,,,103.215,104.469,0,1,0.739,,0,14,14,154,1,pseudoword,0,REAL,FALSA
,,,,,,,,,,001,2025-04-30_09h11.06.970,empathy_intonation_perc,2024.1.4,MacIntel,76.92307692,,,,,,,,,,,,,,116,grigir,,,,,,104.469,105.91,0,1,0.924,,0,15,15,115,1,pseudoword,0,REAL,FALSA
,,,,,,,,,,001,2025-04-30_09h11.06.970,empathy_intonation_perc,2024.1.4,MacIntel,76.92307692,,,,,,,,,,,,,,69,tiza,,,,,,105.91,107.177,0,1,0.747,,0,16,16,68,1,non_cognate,1,REAL,FALSA
,,,,,,,,,,001,2025-04-30_09h11.06.970,empathy_intonation_perc,2024.1.4,MacIntel,76.92307692,,,,,,,,,,,,,,180,pupica,,,,,,107.177,108.524,0,1,0.827,,0,17,17,179,1,pseudoword,0,REAL,FALSA
,,,,,,,,,,001,2025-04-30_09h11.06.970,empathy_intonation_perc,2024.1.4,MacIntel,76.92307692,,,,,,,,,,,,,,74,ala,,,,,,108.524,109.871,0,1,0.828,,0,18,18,73,1,non_cognate,1,REAL,FALSA
,,,,,,,,,,001,2025-04-30_09h11.06.970,empathy_intonation_perc,2024.1.4,MacIntel,76.92307692,,,,,,,,,,,,,,84,aviso,,,,,,109.871,111.045,1,0,0.654,,0,19,19,83,1,non_cognate,1,REAL,FALSA
,,,,,,,,,,001,2025-04-30_09h11.06.970,empathy_intonation_perc,2024.1.4,MacIntel,76.92307692,,,,,,,,,,,,,,187,nomata,,,,,,111.045,112.579,0,1,1.014,,0,20,20,186,1,pseudoword,0,REAL,FALSA
,,,,,,,,,,001,2025-04-30_09h11.06.970,empathy_intonation_perc,2024.1.4,MacIntel,76.92307692,,,,,,,,,,,,,,33,collar,,,,,,112.579,113.632,1,0,0.539,,0,21,21,32,1,two_way_cognate,1,REAL,FALSA
,,,,,,,,,,001,2025-04-30_09h11.06.970,empathy_intonation_perc,2024.1.4,MacIntel,76.92307692,,,,,,,,,,,,,,80,cuenco,,,,,,113.633,115.273,0,1,1.12,,0,22,22,79,1,non_cognate,1,REAL,FALSA
,,,,,,,,,,001,2025-04-30_09h11.06.970,empathy_intonation_perc,2024.1.4,MacIntel,76.92307692,,,,,,,,,,,,,,67,llamar,,,,,,115.273,116.407,1,0,0.619,,0,23,23,66,1,non_cognate,1,REAL,FALSA
,,,,,,,,,,001,2025-04-30_09h11.06.970,empathy_intonation_perc,2024.1.4,MacIntel,76.92307692,,,,,,,,,,,,,,78,rendir,,,,,,116.407,117.794,0,1,0.868,,0,24,24,77,1,non_cognate,1,REAL,FALSA
,,,,,,,,,,001,2025-04-30_09h11.06.970,empathy_intonation_perc,2024.1.4,MacIntel,76.92307692,,,,,,,,,,,,,,132,nocó,,,,,,117.794,119.381,0,1,1.068,,0,25,25,131,1,pseudoword,0,REAL,FALSA
,,,,,,,,,,001,2025-04-30_09h11.06.970,empathy_intonation_perc,2024.1.4,MacIntel,76.92307692,,,,,,,,,,,,,,107,plago,,,,,,119.382,121.088,0,1,1.193,,0,26,26,106,1,pseudoword,0,REAL,FALSA
,,,,,,,,,,001,2025-04-30_09h11.06.970,empathy_intonation_perc,2024.1.4,MacIntel,76.92307692,,,,,,,,,,,,,,94,forro,,,,,,121.088,122.556,0,1,0.954,,0,27,27,93,1,non_cognate,1,REAL,FALSA
,,,,,,,,,,001,2025-04-30_09h11.06.970,empathy_intonation_perc,2024.1.4,MacIntel,76.92307692,,,,,,,,,,,,,,119,esís,,,,,,122.556,124.21,1,0,1.138,,0,28,28,118,1,pseudoword,0,REAL,FALSA
,,,,,,,,,,001,2025-04-30_09h11.06.970,empathy_intonation_perc,2024.1.4,MacIntel,76.92307692,,,,,,,,,,,,,,37,torso,,,,,,124.21,125.357,1,0,0.626,,0,29,29,36,1,two_way_cognate,1,REAL,FALSA
,,,,,,,,,,001,2025-04-30_09h11.06.970,empathy_intonation_perc,2024.1.4,MacIntel,76.92307692,,,,,,,,,,,,,,175,tradía,,,,,,125.357,127.21,1,0,1.337,,0,30,30,174,1,pseudoword,0,REAL,FALSA
,,,,,,,,,,001,2025-04-30_09h11.06.970,empathy_intonation_perc,2024.1.4,MacIntel,76.92307692,,,,,,,,,,,,,,22,mango,,,,,,127.21,128.265,1,0,0.534,,0,31,31,21,1,three_way_cognate,1,REAL,FALSA
,,,,,,,,,,001,2025-04-30_09h11.06.970,empathy_intonation_perc,2024.1.4,MacIntel,76.92307692,,,,,,,,,,,,,,83,hálito,,,,,,128.265,129.492,0,1,0.709,,0,32,32,82,1,non_cognate,1,REAL,FALSA
,,,,,,,,,,001,2025-04-30_09h11.06.970,empathy_intonation_perc,2024.1.4,MacIntel,76.92307692,,,,,,,,,,,,,,117,morrá,,,,,,129.492,131.106,0,1,1.1,,0,33,33,116,1,pseudoword,0,REAL,FALSA
,,,,,,,,,,001,2025-04-30_09h11.06.970,empathy_intonation_perc,2024.1.4,MacIntel,76.92307692,,,,,,,,,,,,,,62,pegar,,,,,,131.106,132.947,0,1,1.322,,0,34,34,61,1,non_cognate,1,REAL,FALSA
,,,,,,,,,,001,2025-04-30_09h11.06.970,empathy_intonation_perc,2024.1.4,MacIntel,76.92307692,,,,,,,,,,,,,,120,mauja,,,,,,132.947,134.2,0,1,0.737,,0,35,35,119,1,pseudoword,0,REAL,FALSA
,,,,,,,,,,001,2025-04-30_09h11.06.970,empathy_intonation_perc,2024.1.4,MacIntel,76.92307692,,,,,,,,,,,,,,140,chorde,,,,,,134.2,135.548,1,0,0.832,,0,36,36,139,1,pseudoword,0,REAL,FALSA
,,,,,,,,,,001,2025-04-30_09h11.06.970,empathy_intonation_perc,2024.1.4,MacIntel,76.92307692,,,,,,,,,,,,,,75,patada,,,,,,135.548,137.082,0,1,1.015,,0,37,37,74,1,non_cognate,1,REAL,FALSA
,,,,,,,,,,001,2025-04-30_09h11.06.970,empathy_intonation_perc,2024.1.4,MacIntel,76.92307692,,,,,,,,,,,,,,42,rumor,,,,,,137.082,138.338,1,0,0.742,,0,38,38,41,1,two_way_cognate,1,REAL,FALSA
,,,,,,,,,,001,2025-04-30_09h11.06.970,empathy_intonation_perc,2024.1.4,MacIntel,76.92307692,,,,,,,,,,,,,,169,pitis,,,,,,138.338,139.576,0,1,0.722,,0,39,39,168,1,pseudoword,0,REAL,FALSA
,,,,,,,,,,001,2025-04-30_09h11.06.970,empathy_intonation_perc,2024.1.4,MacIntel,76.92307692,,,,,,,,,,,,,,172,dogue,,,,,,139.576,140.95,0,1,0.86,,0,40,40,171,1,pseudoword,0,REAL,FALSA
,,,,,,,,,,001,2025-04-30_09h11.06.970,empathy_intonation_perc,2024.1.4,MacIntel,76.92307692,,,,,,,,,,,,,,100,épinas,,,,,,140.95,142.897,1,0,1.434,,0,41,41,99,1,pseudoword,0,REAL,FALSA
,,,,,,,,,,001,2025-04-30_09h11.06.970,empathy_intonation_perc,2024.1.4,MacIntel,76.92307692,,,,,,,,,,,,,,87,muleta,,,,,,142.897,144.258,0,1,0.84,,0,42,42,86,1,non_cognate,1,REAL,FALSA
,,,,,,,,,,001,2025-04-30_09h11.06.970,empathy_intonation_perc,2024.1.4,MacIntel,76.92307692,,,,,,,,,,,,,,86,cuenco,,,,,,144.258,146.258,0,1,1.487,,0,43,43,85,1,non_cognate,1,REAL,FALSA
,,,,,,,,,,001,2025-04-30_09h11.06.970,empathy_intonation_perc,2024.1.4,MacIntel,76.92307692,,,,,,,,,,,,,,61,aduana,,,,,,146.259,147.579,0,1,0.805,,0,44,44,60,1,non_cognate,1,REAL,FALSA
,,,,,,,,,,001,2025-04-30_09h11.06.970,empathy_intonation_perc,2024.1.4,MacIntel,76.92307692,,,,,,,,,,,,,,8,kilo,,,,,,147.579,148.633,1,0,0.535,,0,45,45,7,1,three_way_cognate,1,REAL,FALSA
,,,,,,,,,,001,2025-04-30_09h11.06.970,empathy_intonation_perc,2024.1.4,MacIntel,76.92307692,,,,,,,,,,,,,,159,trcia,,,,,,148.633,149.926,0,1,0.774,,0,46,46,158,1,pseudoword,0,REAL,FALSA
,,,,,,,,,,001,2025-04-30_09h11.06.970,empathy_intonation_perc,2024.1.4,MacIntel,76.92307692,,,,,,,,,,,,,,161,civas,,,,,,149.926,151.18,0,1,0.736,,0,47,47,160,1,pseudoword,0,REAL,FALSA
,,,,,,,,,,001,2025-04-30_09h11.06.970,empathy_intonation_perc,2024.1.4,MacIntel,76.92307692,,,,,,,,,,,,,,3,disco,,,,,,151.18,152.234,1,0,0.534,,0,48,48,2,1,three_way_cognate,1,REAL,FALSA
,,,,,,,,,,001,2025-04-30_09h11.06.970,empathy_intonation_perc,2024.1.4,MacIntel,76.92307692,,,,,,,,,,,,,,127,vien,,,,,,152.234,153.288,1,0,0.533,,0,49,49,126,1,pseudoword,0,REAL,FALSA
,,,,,,,,,,001,2025-04-30_09h11.06.970,empathy_intonation_perc,2024.1.4,MacIntel,76.92307692,,,,,,,,,,,,,,154,harvé,,,,,,153.288,154.475,0,1,0.678,,0,50,50,153,1,pseudoword,0,REAL,FALSA
,,,,,,,,,,001,2025-04-30_09h11.06.970,empathy_intonation_perc,2024.1.4,MacIntel,76.92307692,,,,,,,,,,,,,,15,test,,,,,,154.475,156.009,1,0,1.018,,0,51,51,14,1,three_way_cognate,1,REAL,FALSA
,,,,,,,,,,001,2025-04-30_09h11.06.970,empathy_intonation_perc,2024.1.4,MacIntel,76.92307692,,,,,,,,,,,,,,129,vinzó,,,,,,156.009,157.756,0,1,1.228,,0,52,52,128,1,pseudoword,0,REAL,FALSA
,,,,,,,,,,001,2025-04-30_09h11.06.970,empathy_intonation_perc,2024.1.4,MacIntel,76.92307692,,,,,,,,,,,,,,184,huenos,,,,,,157.756,158.983,0,1,0.708,,0,53,53,183,1,pseudoword,0,REAL,FALSA
,,,,,,,,,,001,2025-04-30_09h11.06.970,empathy_intonation_perc,2024.1.4,MacIntel,76.92307692,,,,,,,,,,,,,,12,dogma,,,,,,158.983,160.49,1,0,0.987,,0,54,54,11,1,three_way_cognate,1,REAL,FALSA
,,,,,,,,,,001,2025-04-30_09h11.06.970,empathy_intonation_perc,2024.1.4,MacIntel,76.92307692,,,,,,,,,,,,,,110,densó,,,,,,160.491,162.011,0,1,1.003,,0,55,55,109,1,pseudoword,0,REAL,FALSA
,,,,,,,,,,001,2025-04-30_09h11.06.970,empathy_intonation_perc,2024.1.4,MacIntel,76.92307692,,,,,,,,,,,,,,60,siglo,,,,,,162.011,163.572,0,1,1.041,,0,56,56,59,1,non_cognate,1,REAL,FALSA
,,,,,,,,,,001,2025-04-30_09h11.06.970,empathy_intonation_perc,2024.1.4,MacIntel,76.92307692,,,,,,,,,,,,,,183,edioso,,,,,,163.572,165.252,0,1,1.163,,0,57,57,182,1,pseudoword,0,REAL,FALSA
,,,,,,,,,,001,2025-04-30_09h11.06.970,empathy_intonation_perc,2024.1.4,MacIntel,76.92307692,,,,,,,,,,,,,,113,nasce,,,,,,165.252,166.693,1,0,0.921,,0,58,58,112,1,pseudoword,0,REAL,FALSA
,,,,,,,,,,001,2025-04-30_09h11.06.970,empathy_intonation_perc,2024.1.4,MacIntel,76.92307692,,,,,,,,,,,,,,90,venado,,,,,,166.693,168.227,0,1,1.012,,0,59,59,89,1,non_cognate,1,REAL,FALSA
,,,,,,,,,,001,2025-04-30_09h11.06.970,empathy_intonation_perc,2024.1.4,MacIntel,76.92307692,,,,,,,,,,,,,,26,enigma,,,,,,168.227,169.694,1,0,0.948,,0,60,60,25,1,two_way_cognate,1,REAL,FALSA
,,,,,,,,,,001,2025-04-30_09h11.06.970,empathy_intonation_perc,2024.1.4,MacIntel,76.92307692,,,,,,,,,,,,,,151,prías,,,,,,169.694,171.495,0,1,1.281,,0,61,61,150,1,pseudoword,0,REAL,FALSA
,,,,,,,,,,001,2025-04-30_09h11.06.970,empathy_intonation_perc,2024.1.4,MacIntel,76.92307692,,,,,,,,,,,,,,138,tator,,,,,,171.495,172.749,0,1,0.739,,0,62,62,137,1,pseudoword,0,REAL,FALSA
,,,,,,,,,,001,2025-04-30_09h11.06.970,empathy_intonation_perc,2024.1.4,MacIntel,76.92307692,,,,,,,,,,,,,,96,caro,,,,,,172.749,174.402,0,1,1.134,,0,63,63,95,1,non_cognate,1,REAL,FALSA
,,,,,,,,,,001,2025-04-30_09h11.06.970,empathy_intonation_perc,2024.1.4,MacIntel,76.92307692,,,,,,,,,,,,,,115,lidena,,,,,,174.403,175.63,0,1,0.712,,0,64,64,114,1,pseudoword,0,REAL,FALSA
,,,,,,,,,,001,2025-04-30_09h11.06.970,empathy_intonation_perc,2024.1.4,MacIntel,76.92307692,,,,,,,,,,,,,,70,ánimo,,,,,,175.63,177.284,0,1,1.135,,0,65,65,69,1,non_cognate,1,REAL,FALSA
,,,,,,,,,,001,2025-04-30_09h11.06.970,empathy_intonation_perc,2024.1.4,MacIntel,76.92307692,,,,,,,,,,,,,,46,mortal,,,,,,177.284,178.391,1,0,0.589,,0,66,66,45,1,two_way_cognate,1,REAL,FALSA
,,,,,,,,,,001,2025-04-30_09h11.06.970,empathy_intonation_perc,2024.1.4,MacIntel,76.92307692,,,,,,,,,,,,,,158,babrá,,,,,,178.391,179.711,0,1,0.803,,0,67,67,157,1,pseudoword,0,REAL,FALSA
,,,,,,,,,,001,2025-04-30_09h11.06.970,empathy_intonation_perc,2024.1.4,MacIntel,76.92307692,,,,,,,,,,,,,,39,casual,,,,,,179.711,181.965,0,1,1.736,,0,68,68,38,1,two_way_cognate,1,REAL,FALSA
,,,,,,,,,,001,2025-04-30_09h11.06.970,empathy_intonation_perc,2024.1.4,MacIntel,76.92307692,,,,,,,,,,,,,,103,vueras,,,,,,181.965,183.285,0,1,0.801,,0,69,69,102,1,pseudoword,0,REAL,FALSA
,,,,,,,,,,001,2025-04-30_09h11.06.970,empathy_intonation_perc,2024.1.4,MacIntel,76.92307692,,,,,,,,,,,,,,168,cobén,,,,,,183.285,184.726,0,1,0.92,,0,70,70,167,1,pseudoword,0,REAL,FALSA
,,,,,,,,,,001,2025-04-30_09h11.06.970,empathy_intonation_perc,2024.1.4,MacIntel,76.92307692,,,,,,,,,,,,,,179,suelet,,,,,,184.727,186.1,0,1,0.856,,0,71,71,178,1,pseudoword,0,REAL,FALSA
,,,,,,,,,,001,2025-04-30_09h11.06.970,empathy_intonation_perc,2024.1.4,MacIntel,76.92307692,,,,,,,,,,,,,,102,coyo,,,,,,186.101,187.541,0,1,0.922,,0,72,72,101,1,pseudoword,0,REAL,FALSA
,,,,,,,,,,001,2025-04-30_09h11.06.970,empathy_intonation_perc,2024.1.4,MacIntel,76.92307692,,,,,,,,,,,,,,82,brillo,,,,,,187.541,189.129,1,0,1.074,,0,73,73,81,1,non_cognate,1,REAL,FALSA
,,,,,,,,,,001,2025-04-30_09h11.06.970,empathy_intonation_perc,2024.1.4,MacIntel,76.92307692,,,,,,,,,,,,,,88,percha,,,,,,189.129,190.489,1,0,0.839,,0,74,74,87,1,non_cognate,1,REAL,FALSA
,,,,,,,,,,001,2025-04-30_09h11.06.970,empathy_intonation_perc,2024.1.4,MacIntel,76.92307692,,,,,,,,,,,,,,89,muñeca,,,,,,190.489,192.289,1,0,1.28,,0,75,75,88,1,non_cognate,1,REAL,FALSA
,,,,,,,,,,001,2025-04-30_09h11.06.970,empathy_intonation_perc,2024.1.4,MacIntel,76.92307692,,,,,,,,,,,,,,131,fuar,,,,,,192.289,194.237,1,0,1.426,,0,76,76,130,1,pseudoword,0,REAL,FALSA
,,,,,,,,,,001,2025-04-30_09h11.06.970,empathy_intonation_perc,2024.1.4,MacIntel,76.92307692,,,,,,,,,,,,,,20,trauma,,,,,,194.237,195.344,1,0,0.588,,0,77,77,19,1,three_way_cognate,1,REAL,FALSA
,,,,,,,,,,001,2025-04-30_09h11.06.970,empathy_intonation_perc,2024.1.4,MacIntel,76.92307692,,,,,,,,,,,,,,128,pelí,,,,,,195.344,196.544,0,1,0.681,,0,78,78,127,1,pseudoword,0,REAL,FALSA
,,,,,,,,,,001,2025-04-30_09h11.06.970,empathy_intonation_perc,2024.1.4,MacIntel,76.92307692,,,,,,,,,,,,,,48,pelvis,,,,,,196.544,197.918,0,1,0.86,,0,79,79,47,1,two_way_cognate,1,REAL,FALSA
,,,,,,,,,,001,2025-04-30_09h11.06.970,empathy_intonation_perc,2024.1.4,MacIntel,76.92307692,,,,,,,,,,,,,,152,prave,,,,,,197.918,199.572,0,1,1.135,,0,80,80,151,1,pseudoword,0,REAL,FALSA
,,,,,,,,,,001,2025-04-30_09h11.06.970,empathy_intonation_perc,2024.1.4,MacIntel,76.92307692,,,,,,,,,,,,,,6,horror,,,,,,199.572,201.279,1,0,1.191,,0,81,81,5,1,three_way_cognate,1,REAL,FALSA
,,,,,,,,,,001,2025-04-30_09h11.06.970,empathy_intonation_perc,2024.1.4,MacIntel,76.92307692,,,,,,,,,,,,,,133,conso,,,,,,201.28,202.907,0,1,1.106,,0,82,82,132,1,pseudoword,0,REAL,FALSA
,,,,,,,,,,001,2025-04-30_09h11.06.970,empathy_intonation_perc,2024.1.4,MacIntel,76.92307692,,,,,,,,,,,,,,95,listo,,,,,,202.907,204.107,0,1,0.68,,0,83,83,94,1,non_cognate,1,REAL,FALSA
,,,,,,,,,,001,2025-04-30_09h11.06.970,empathy_intonation_perc,2024.1.4,MacIntel,76.92307692,,,,,,,,,,,,,,76,chocar,,,,,,204.107,206.028,0,1,1.401,,0,84,84,75,1,non_cognate,1,REAL,FALSA
,,,,,,,,,,001,2025-04-30_09h11.06.970,empathy_intonation_perc,2024.1.4,MacIntel,76.92307692,,,,,,,,,,,,,,173,mibro,,,,,,206.028,207.188,0,1,0.646,,0,85,85,172,1,pseudoword,0,REAL,FALSA
,,,,,,,,,,001,2025-04-30_09h11.06.970,empathy_intonation_perc,2024.1.4,MacIntel,76.92307692,,,,,,,,,,,,,,164,tecia,,,,,,207.189,208.389,0,1,0.686,,0,86,86,163,1,pseudoword,0,REAL,FALSA
,,,,,,,,,,001,2025-04-30_09h11.06.970,empathy_intonation_perc,2024.1.4,MacIntel,76.92307692,,,,,,,,,,,,,,99,bugor,,,,,,208.389,209.497,0,1,0.594,,0,87,87,98,1,pseudoword,0,REAL,FALSA
,,,,,,,,,,001,2025-04-30_09h11.06.970,empathy_intonation_perc,2024.1.4,MacIntel,76.92307692,,,,,,,,,,,,,,55,maldad,,,,,,209.497,211.097,0,1,1.079,,0,88,88,54,1,non_cognate,1,REAL,FALSA
,,,,,,,,,,001,2025-04-30_09h11.06.970,empathy_intonation_perc,2024.1.4,MacIntel,76.92307692,,,,,,,,,,,,,,147,alla,,,,,,211.097,212.897,0,1,1.28,,0,89,89,146,1,pseudoword,0,REAL,FALSA
,,,,,,,,,,001,2025-04-30_09h11.06.970,empathy_intonation_perc,2024.1.4,MacIntel,76.92307692,,,,,,,,,,,,,,66,aleta,,,,,,212.897,214.538,1,0,1.126,,0,90,90,65,1,non_cognate,1,REAL,FALSA
,,,,,,,,,,001,2025-04-30_09h11.06.970,empathy_intonation_perc,2024.1.4,MacIntel,76.92307692,,,,,,,,,,,,,,58,colcha,,,,,,214.538,216.138,0,1,1.08,,0,91,91,57,1,non_cognate,1,REAL,FALSA
,,,,,,,,,,001,2025-04-30_09h11.06.970,empathy_intonation_perc,2024.1.4,MacIntel,76.92307692,,,,,,,,,,,,,,126,tobre,,,,,,216.139,217.539,0,1,0.885,,0,92,92,125,1,pseudoword,0,REAL,FALSA
,,,,,,,,,,001,2025-04-30_09h11.06.970,empathy_intonation_perc,2024.1.4,MacIntel,76.92307692,,,,,,,,,,,,,,145,rúo,,,,,,217.539,218.953,0,1,0.892,,0,93,93,144,1,pseudoword,0,REAL,FALSA
,,,,,,,,,,001,2025-04-30_09h11.06.970,empathy_intonation_perc,2024.1.4,MacIntel,76.92307692,,,,,,,,,,,,,,181,gravés,,,,,,218.953,220.393,0,1,0.921,,0,94,94,180,1,pseudoword,0,REAL,FALSA
,,,,,,,,,,001,2025-04-30_09h11.06.970,empathy_intonation_perc,2024.1.4,MacIntel,76.92307692,,,,,,,,,,,,,,32,animal,,,,,,220.394,221.647,1,0,0.74,,0,95,95,31,1,two_way_cognate,1,REAL,FALSA
,,,,,,,,,,001,2025-04-30_09h11.06.970,empathy_intonation_perc,2024.1.4,MacIntel,76.92307692,,,,,,,,,,,,,,23,plural,,,,,,221.647,223.488,1,0,1.32,,0,96,96,22,1,three_way_cognate,1,REAL,FALSA
,,,,,,,,,,001,2025-04-30_09h11.06.970,empathy_intonation_perc,2024.1.4,MacIntel,76.92307692,,,,,,,,,,,,,,34,actor,,,,,,223.488,224.955,0,1,0.948,,0,97,97,33,1,two_way_cognate,1,REAL,FALSA
,,,,,,,,,,001,2025-04-30_09h11.06.970,empathy_intonation_perc,2024.1.4,MacIntel,76.92307692,,,,,,,,,,,,,,121,barbs,,,,,,224.955,227.41,1,0,1.938,,0,98,98,120,1,pseudoword,0,REAL,FALSA
,,,,,,,,,,001,2025-04-30_09h11.06.970,empathy_intonation_perc,2024.1.4,MacIntel,76.92307692,,,,,,,,,,,,,,79,suelo,,,,,,227.41,229.69,0,1,1.763,,0,99,99,78,1,non_cognate,1,REAL,FALSA
,,,,,,,,,,001,2025-04-30_09h11.06.970,empathy_intonation_perc,2024.1.4,MacIntel,76.92307692,,,,,,,,,,,,,,53,punta,,,,,,229.691,231.304,1,0,1.102,,0,100,100,52,1,non_cognate,1,REAL,FALSA
,,,,,,,,,,001,2025-04-30_09h11.06.970,empathy_intonation_perc,2024.1.4,MacIntel,76.92307692,,,,,,,,,,,,,,81,sacar,,,,,,231.304,232.812,1,0,0.99,,0,101,101,80,1,non_cognate,1,REAL,FALSA
,,,,,,,,,,001,2025-04-30_09h11.06.970,empathy_intonation_perc,2024.1.4,MacIntel,76.92307692,,,,,,,,,,,,,,97,nocita,,,,,,232.812,234.346,0,1,1.013,,0,102,102,96,1,pseudoword,0,REAL,FALSA
,,,,,,,,,,001,2025-04-30_09h11.06.970,empathy_intonation_perc,2024.1.4,MacIntel,76.92307692,,,,,,,,,,,,,,139,sasos,,,,,,234.346,235.599,0,1,0.739,,0,103,103,138,1,pseudoword,0,REAL,FALSA
,,,,,,,,,,001,2025-04-30_09h11.06.970,empathy_intonation_perc,2024.1.4,MacIntel,76.92307692,,,,,,,,,,,,,,141,virios,,,,,,235.599,236.8,0,1,0.683,,0,104,104,140,1,pseudoword,0,REAL,FALSA
,,,,,,,,,,001,2025-04-30_09h11.06.970,empathy_intonation_perc,2024.1.4,MacIntel,76.92307692,,,,,,,,,,,,,,44,editor,,,,,,236.8,238.187,0,1,0.867,,0,105,105,43,1,two_way_cognate,1,REAL,FALSA
,,,,,,,,,,001,2025-04-30_09h11.06.970,empathy_intonation_perc,2024.1.4,MacIntel,76.92307692,,,,,,,,,,,,,,18,altar,,,,,,238.187,239.708,1,0,1.007,,0,106,106,17,1,three_way_cognate,1,REAL,FALSA
,,,,,,,,,,001,2025-04-30_09h11.06.970,empathy_intonation_perc,2024.1.4,MacIntel,76.92307692,,,,,,,,,,,,,,24,retina,,,,,,239.708,242.202,0,1,1.975,,0,107,107,23,1,three_way_cognate,1,REAL,FALSA
,,,,,,,,,,001,2025-04-30_09h11.06.970,empathy_intonation_perc,2024.1.4,MacIntel,76.92307692,,,,,,,,,,,,,,104,estulo,,,,,,242.202,243.669,0,1,0.952,,0,108,108,103,1,pseudoword,0,REAL,FALSA
,,,,,,,,,,001,2025-04-30_09h11.06.970,empathy_intonation_perc,2024.1.4,MacIntel,76.92307692,,,,,,,,,,,,,,174,pabea,,,,,,243.669,244.963,0,1,0.776,,0,109,109,173,1,pseudoword,0,REAL,FALSA
,,,,,,,,,,001,2025-04-30_09h11.06.970,empathy_intonation_perc,2024.1.4,MacIntel,76.92307692,,,,,,,,,,,,,,163,llzan,,,,,,244.963,246.163,0,1,0.682,,0,110,110,162,1,pseudoword,0,REAL,FALSA
,,,,,,,,,,001,2025-04-30_09h11.06.970,empathy_intonation_perc,2024.1.4,MacIntel,76.92307692,,,,,,,,,,,,,,124,lobe,,,,,,246.164,247.724,0,1,1.04,,0,111,111,123,1,pseudoword,0,REAL,FALSA
,,,,,,,,,,001,2025-04-30_09h11.06.970,empathy_intonation_perc,2024.1.4,MacIntel,76.92307692,,,,,,,,,,,,,,36,viable,,,,,,247.724,249.018,0,1,0.772,,0,112,112,35,1,two_way_cognate,1,REAL,FALSA
,,,,,,,,,,001,2025-04-30_09h11.06.970,empathy_intonation_perc,2024.1.4,MacIntel,76.92307692,,,,,,,,,,,,,,54,tapón,,,,,,249.018,250.512,0,1,0.975,,0,113,113,53,1,non_cognate,1,REAL,FALSA
,,,,,,,,,,001,2025-04-30_09h11.06.970,empathy_intonation_perc,2024.1.4,MacIntel,76.92307692,,,,,,,,,,,,,,64,rizado,,,,,,250.512,251.859,0,1,0.833,,0,114,114,63,1,non_cognate,1,REAL,FALSA
,,,,,,,,,,001,2025-04-30_09h11.06.970,empathy_intonation_perc,2024.1.4,MacIntel,76.92307692,,,,,,,,,,,,,,118,bará,,,,,,251.859,254.233,1,0,1.855,,0,115,115,117,1,pseudoword,0,REAL,FALSA
,,,,,,,,,,001,2025-04-30_09h11.06.970,empathy_intonation_perc,2024.1.4,MacIntel,76.92307692,,,,,,,,,,,,,,30,fiscal,,,,,,254.233,255.941,1,0,1.189,,0,116,116,29,1,two_way_cognate,1,REAL,FALSA
,,,,,,,,,,001,2025-04-30_09h11.06.970,empathy_intonation_perc,2024.1.4,MacIntel,76.92307692,,,,,,,,,,,,,,73,llevar,,,,,,255.941,257.234,1,0,0.775,,0,117,117,72,1,non_cognate,1,REAL,FALSA
,,,,,,,,,,001,2025-04-30_09h11.06.970,empathy_intonation_perc,2024.1.4,MacIntel,76.92307692,,,,,,,,,,,,,,136,hueas,,,,,,257.234,258.581,0,1,0.828,,0,118,118,135,1,pseudoword,0,REAL,FALSA
,,,,,,,,,,001,2025-04-30_09h11.06.970,empathy_intonation_perc,2024.1.4,MacIntel,76.92307692,,,,,,,,,,,,,,101,losco,,,,,,258.582,259.969,0,1,0.867,,0,119,119,100,1,pseudoword,0,REAL,FALSA
,,,,,,,,,,001,2025-04-30_09h11.06.970,empathy_intonation_perc,2024.1.4,MacIntel,76.92307692,,,,,,,,,,,,,,52,blando,,,,,,259.969,261.823,1,0,1.335,,0,120,120,51,1,non_cognate,1,REAL,FALSA
,,,,,,,,,,001,2025-04-30_09h11.06.970,empathy_intonation_perc,2024.1.4,MacIntel,76.92307692,,,,,,,,,,,,,,165,chote,,,,,,261.823,263.21,0,1,0.867,,0,121,121,164,1,pseudoword,0,REAL,FALSA
,,,,,,,,,,001,2025-04-30_09h11.06.970,empathy_intonation_perc,2024.1.4,MacIntel,76.92307692,,,,,,,,,,,,,,65,guerra,,,,,,263.21,264.49,1,0,0.764,,0,122,122,64,1,non_cognate,1,REAL,FALSA
,,,,,,,,,,001,2025-04-30_09h11.06.970,empathy_intonation_perc,2024.1.4,MacIntel,76.92307692,,,,,,,,,,,,,,114,dibrea,,,,,,264.491,265.904,0,1,0.894,,0,123,123,113,1,pseudoword,0,REAL,FALSA
,,,,,,,,,,001,2025-04-30_09h11.06.970,empathy_intonation_perc,2024.1.4,MacIntel,76.92307692,,,,,,,,,,,,,,21,hotel,,,,,,265.904,266.917,1,0,0.5,,0,124,124,20,1,three_way_cognate,1,REAL,FALSA
,,,,,,,,,,001,2025-04-30_09h11.06.970,empathy_intonation_perc,2024.1.4,MacIntel,76.92307692,,,,,,,,,,,,,,31,civil,,,,,,266.917,268.012,1,0,0.581,,0,125,125,30,1,two_way_cognate,1,REAL,FALSA
,,,,,,,,,,001,2025-04-30_09h11.06.970,empathy_intonation_perc,2024.1.4,MacIntel,76.92307692,,,,,,,,,,,,,,134,molor,,,,,,268.012,269.266,1,0,0.735,,0,126,126,133,1,pseudoword,0,REAL,FALSA
,,,,,,,,,,001,2025-04-30_09h11.06.970,empathy_intonation_perc,2024.1.4,MacIntel,76.92307692,,,,,,,,,,,,,,188,amplir,,,,,,269.266,270.706,0,1,0.921,,0,127,127,187,1,pseudoword,0,REAL,FALSA
,,,,,,,,,,001,2025-04-30_09h11.06.970,empathy_intonation_perc,2024.1.4,MacIntel,76.92307692,,,,,,,,,,,,,,13,plan,,,,,,270.706,272.868,0,1,1.64,,0,128,128,12,1,three_way_cognate,1,REAL,FALSA
,,,,,,,,,,001,2025-04-30_09h11.06.970,empathy_intonation_perc,2024.1.4,MacIntel,76.92307692,,,,,,,,,,,,,,35,aurora,,,,,,272.868,274.721,0,1,1.337,,0,129,129,34,1,two_way_cognate,1,REAL,FALSA
,,,,,,,,,,001,2025-04-30_09h11.06.970,empathy_intonation_perc,2024.1.4,MacIntel,76.92307692,,,,,,,,,,,,,,28,ardor,,,,,,274.721,276.015,0,1,0.775,,0,130,130,27,1,two_way_cognate,1,REAL,FALSA
,,,,,,,,,,001,2025-04-30_09h11.06.970,empathy_intonation_perc,2024.1.4,MacIntel,76.92307692,,,,,,,,,,,,,,29,clamor,,,,,,276.015,277.575,0,1,1.041,,0,131,131,28,1,two_way_cognate,1,REAL,FALSA
,,,,,,,,,,001,2025-04-30_09h11.06.970,empathy_intonation_perc,2024.1.4,MacIntel,76.92307692,,,,,,,,,,,,,,77,suave,,,,,,277.576,279.856,1,0,1.761,,0,132,132,76,1,non_cognate,1,REAL,FALSA
,,,,,,,,,,001,2025-04-30_09h11.06.970,empathy_intonation_perc,2024.1.4,MacIntel,76.92307692,,,,,,,,,,,,,,182,desaro,,,,,,279.856,281.71,1,0,1.337,,0,133,133,181,1,pseudoword,0,REAL,FALSA
,,,,,,,,,,001,2025-04-30_09h11.06.970,empathy_intonation_perc,2024.1.4,MacIntel,76.92307692,,,,,,,,,,,,,,47,color,,,,,,281.71,283.178,1,0,0.955,,0,134,134,46,1,two_way_cognate,1,REAL,FALSA
,,,,,,,,,,001,2025-04-30_09h11.06.970,empathy_intonation_perc,2024.1.4,MacIntel,76.92307692,,,,,,,,,,,,,,40,pelvis,,,,,,283.178,284.445,0,1,0.748,,0,135,135,39,1,two_way_cognate,1,REAL,FALSA
,,,,,,,,,,001,2025-04-30_09h11.06.970,empathy_intonation_perc,2024.1.4,MacIntel,76.92307692,,,,,,,,,,,,,,7,albino,,,,,,284.445,286.059,1,0,1.101,,0,136,136,6,1,three_way_cognate,1,REAL,FALSA
,,,,,,,,,,001,2025-04-30_09h11.06.970,empathy_intonation_perc,2024.1.4,MacIntel,76.92307692,,,,,,,,,,,,,,142,parre,,,,,,286.059,287.713,0,1,1.135,,0,137,137,141,1,pseudoword,0,REAL,FALSA
,,,,,,,,,,001,2025-04-30_09h11.06.970,empathy_intonation_perc,2024.1.4,MacIntel,76.92307692,,,,,,,,,,,,,,93,tapa,,,,,,287.713,289.273,1,0,1.041,,0,138,138,92,1,non_cognate,1,REAL,FALSA
,,,,,,,,,,001,2025-04-30_09h11.06.970,empathy_intonation_perc,2024.1.4,MacIntel,76.92307692,,,,,,,,,,,,,,125,ceme,,,,,,289.273,290.86,0,1,1.07,,0,139,139,124,1,pseudoword,0,REAL,FALSA
,,,,,,,,,,001,2025-04-30_09h11.06.970,empathy_intonation_perc,2024.1.4,MacIntel,76.92307692,,,,,,,,,,,,,,50,sierra,,,,,,290.861,292.421,1,0,1.043,,0,140,140,49,1,non_cognate,1,REAL,FALSA
,,,,,,,,,,001,2025-04-30_09h11.06.970,empathy_intonation_perc,2024.1.4,MacIntel,76.92307692,,,,,,,,,,,,,,192,próces,,,,,,292.421,294.102,1,0,1.162,,0,141,141,191,1,pseudoword,0,REAL,FALSA
,,,,,,,,,,001,2025-04-30_09h11.06.970,empathy_intonation_perc,2024.1.4,MacIntel,76.92307692,,,,,,,,,,,,,,72,rostro,,,,,,294.102,296.023,0,1,1.402,,0,142,142,71,1,non_cognate,1,REAL,FALSA
,,,,,,,,,,001,2025-04-30_09h11.06.970,empathy_intonation_perc,2024.1.4,MacIntel,76.92307692,,,,,,,,,,,,,,71,torta,,,,,,296.023,297.37,1,0,0.832,,0,143,143,70,1,non_cognate,1,REAL,FALSA
,,,,,,,,,,001,2025-04-30_09h11.06.970,empathy_intonation_perc,2024.1.4,MacIntel,76.92307692,,,,,,,,,,,,,,2,tumor,,,,,,297.37,298.757,1,0,0.866,,0,144,144,1,1,three_way_cognate,1,REAL,FALSA
,,,,,,,,,,001,2025-04-30_09h11.06.970,empathy_intonation_perc,2024.1.4,MacIntel,76.92307692,,,,,,,,,,,,,,14,aura,,,,,,298.757,300.104,1,0,0.827,,0,145,145,13,1,three_way_cognate,1,REAL,FALSA
,,,,,,,,,,001,2025-04-30_09h11.06.970,empathy_intonation_perc,2024.1.4,MacIntel,76.92307692,,,,,,,,,,,,,,1,moral,,,,,,300.104,301.665,1,0,1.042,,0,146,146,0,1,three_way_cognate,1,REAL,FALSA
,,,,,,,,,,001,2025-04-30_09h11.06.970,empathy_intonation_perc,2024.1.4,MacIntel,76.92307692,,,,,,,,,,,,,,185,aljizo,,,,,,301.665,302.892,0,1,0.709,,0,147,147,184,1,pseudoword,0,REAL,FALSA
,,,,,,,,,,001,2025-04-30_09h11.06.970,empathy_intonation_perc,2024.1.4,MacIntel,76.92307692,,,,,,,,,,,,,,167,dobbo,,,,,,302.892,304.306,0,1,0.895,,0,148,148,166,1,pseudoword,0,REAL,FALSA
,,,,,,,,,,001,2025-04-30_09h11.06.970,empathy_intonation_perc,2024.1.4,MacIntel,76.92307692,,,,,,,,,,,,,,146,gió,,,,,,304.306,305.386,0,1,0.561,,0,149,149,145,1,pseudoword,0,REAL,FALSA
,,,,,,,,,,001,2025-04-30_09h11.06.970,empathy_intonation_perc,2024.1.4,MacIntel,76.92307692,,,,,,,,,,,,,,45,total,,,,,,305.386,306.467,1,0,0.56,,0,150,150,44,1,two_way_cognate,1,REAL,FALSA
,,,,,,,,,,001,2025-04-30_09h11.06.970,empathy_intonation_perc,2024.1.4,MacIntel,76.92307692,,,,,,,,,,,,,,92,flecha,,,,,,306.467,307.72,0,1,0.736,,0,151,151,91,1,non_cognate,1,REAL,FALSA
,,,,,,,,,,001,2025-04-30_09h11.06.970,empathy_intonation_perc,2024.1.4,MacIntel,76.92307692,,,,,,,,,,,,,,106,diebro,,,,,,307.72,309.108,0,1,0.868,,0,152,152,105,1,pseudoword,0,REAL,FALSA
,,,,,,,,,,001,2025-04-30_09h11.06.970,empathy_intonation_perc,2024.1.4,MacIntel,76.92307692,,,,,,,,,,,,,,17,clan,,,,,,309.108,310.508,0,1,0.886,,0,153,153,16,1,three_way_cognate,1,REAL,FALSA
,,,,,,,,,,001,2025-04-30_09h11.06.970,empathy_intonation_perc,2024.1.4,MacIntel,76.92307692,,,,,,,,,,,,,,27,piano,,,,,,310.508,311.589,1,0,0.566,,0,154,154,26,1,two_way_cognate,1,REAL,FALSA
,,,,,,,,,,001,2025-04-30_09h11.06.970,empathy_intonation_perc,2024.1.4,MacIntel,76.92307692,,,,,,,,,,,,,,112,samón,,,,,,311.589,313.242,0,1,1.135,,0,155,155,111,1,pseudoword,0,REAL,FALSA
,,,,,,,,,,001,2025-04-30_09h11.06.970,empathy_intonation_perc,2024.1.4,MacIntel,76.92307692,,,,,,,,,,,,,,98,martir,,,,,,313.243,314.629,0,1,0.866,,0,156,156,97,1,pseudoword,0,REAL,FALSA
,,,,,,,,,,001,2025-04-30_09h11.06.970,empathy_intonation_perc,2024.1.4,MacIntel,76.92307692,,,,,,,,,,,,,,56,pico,,,,,,314.629,315.91,1,0,0.765,,0,157,157,55,1,non_cognate,1,REAL,FALSA
,,,,,,,,,,001,2025-04-30_09h11.06.970,empathy_intonation_perc,2024.1.4,MacIntel,76.92307692,,,,,,,,,,,,,,11,golf,,,,,,315.91,317.391,0,1,0.96,,0,158,158,10,1,three_way_cognate,1,REAL,FALSA
,,,,,,,,,,001,2025-04-30_09h11.06.970,empathy_intonation_perc,2024.1.4,MacIntel,76.92307692,,,,,,,,,,,,,,51,listo,,,,,,317.391,318.911,0,1,1.002,,0,159,159,50,1,non_cognate,1,REAL,FALSA
,,,,,,,,,,001,2025-04-30_09h11.06.970,empathy_intonation_perc,2024.1.4,MacIntel,76.92307692,,,,,,,,,,,,,,41,pasta,,,,,,318.911,320.258,1,0,0.833,,0,160,160,40,1,two_way_cognate,1,REAL,FALSA
,,,,,,,,,,001,2025-04-30_09h11.06.970,empathy_intonation_perc,2024.1.4,MacIntel,76.92307692,,,,,,,,,,,,,,43,honor,,,,,,320.259,321.726,0,1,0.954,,0,161,161,42,1,two_way_cognate,1,REAL,FALSA
,,,,,,,,,,001,2025-04-30_09h11.06.970,empathy_intonation_perc,2024.1.4,MacIntel,76.92307692,,,,,,,,,,,,,,4,flora,,,,,,321.726,322.993,1,0,0.747,,0,162,162,3,1,three_way_cognate,1,REAL,FALSA
,,,,,,,,,,001,2025-04-30_09h11.06.970,empathy_intonation_perc,2024.1.4,MacIntel,76.92307692,,,,,,,,,,,,,,148,gino,,,,,,322.993,324.58,0,1,1.072,,0,163,163,147,1,pseudoword,0,REAL,FALSA
,,,,,,,,,,001,2025-04-30_09h11.06.970,empathy_intonation_perc,2024.1.4,MacIntel,76.92307692,,,,,,,,,,,,,,157,seled,,,,,,324.58,325.901,0,1,0.805,,0,164,164,156,1,pseudoword,0,REAL,FALSA
,,,,,,,,,,001,2025-04-30_09h11.06.970,empathy_intonation_perc,2024.1.4,MacIntel,76.92307692,,,,,,,,,,,,,,25,vigor,,,,,,325.901,327.848,1,0,1.435,,0,165,165,24,1,two_way_cognate,1,REAL,FALSA
,,,,,,,,,,001,2025-04-30_09h11.06.970,empathy_intonation_perc,2024.1.4,MacIntel,76.92307692,,,,,,,,,,,,,,122,boñaz,,,,,,327.848,329.649,0,1,1.285,,0,166,166,121,1,pseudoword,0,REAL,FALSA
,,,,,,,,,,001,2025-04-30_09h11.06.970,empathy_intonation_perc,2024.1.4,MacIntel,76.92307692,,,,,,,,,,,,,,38,halo,,,,,,329.649,331.423,0,1,1.255,,0,167,167,37,1,two_way_cognate,1,REAL,FALSA
,,,,,,,,,,001,2025-04-30_09h11.06.970,empathy_intonation_perc,2024.1.4,MacIntel,76.92307692,,,,,,,,,,,,,,49,teñir,,,,,,331.423,332.823,1,0,0.88,,0,168,168,48,1,non_cognate,1,REAL,FALSA
,,,,,,,,,,001,2025-04-30_09h11.06.970,empathy_intonation_perc,2024.1.4,MacIntel,76.92307692,,,,,,,,,,,,,,59,feo,,,,,,332.823,334.184,1,0,0.842,,0,169,169,58,1,non_cognate,1,REAL,FALSA
,,,,,,,,,,001,2025-04-30_09h11.06.970,empathy_intonation_perc,2024.1.4,MacIntel,76.92307692,,,,,,,,,,,,,,150,cricó,,,,,,334.184,335.624,0,1,0.922,,0,170,170,149,1,pseudoword,0,REAL,FALSA
,,,,,,,,,,001,2025-04-30_09h11.06.970,empathy_intonation_perc,2024.1.4,MacIntel,76.92307692,,,,,,,,,,,,,,137,trugo,,,,,,335.625,336.878,0,1,0.74,,0,171,171,136,1,pseudoword,0,REAL,FALSA
,,,,,,,,,,001,2025-04-30_09h11.06.970,empathy_intonation_perc,2024.1.4,MacIntel,76.92307692,,,,,,,,,,,,,,178,inichó,,,,,,336.878,338.412,0,1,1.018,,0,172,172,177,1,pseudoword,0,REAL,FALSA
,,,,,,,,,,001,2025-04-30_09h11.06.970,empathy_intonation_perc,2024.1.4,MacIntel,76.92307692,,,,,,,,,,,,,,91,equipo,,,,,,338.412,339.639,1,0,0.712,,0,173,173,90,1,non_cognate,1,REAL,FALSA
,,,,,,,,,,001,2025-04-30_09h11.06.970,empathy_intonation_perc,2024.1.4,MacIntel,76.92307692,,,,,,,,,,,,,,16,chat,,,,,,339.639,340.933,0,1,0.775,,0,174,174,15,1,three_way_cognate,1,REAL,FALSA
,,,,,,,,,,001,2025-04-30_09h11.06.970,empathy_intonation_perc,2024.1.4,MacIntel,76.92307692,,,,,,,,,,,,,,9,portal,,,,,,340.933,342.76,0,1,1.311,,0,175,175,8,1,three_way_cognate,1,REAL,FALSA
,,,,,,,,,,001,2025-04-30_09h11.06.970,empathy_intonation_perc,2024.1.4,MacIntel,76.92307692,,,,,,,,,,,,,,160,fomeó,,,,,,342.761,344.975,0,1,1.702,,0,176,176,159,1,pseudoword,0,REAL,FALSA
,,,,,,,,,,001,2025-04-30_09h11.06.970,empathy_intonation_perc,2024.1.4,MacIntel,76.92307692,,,,,,,,,,,,,,135,panté,,,,,,344.975,346.935,0,1,1.441,,0,177,177,134,1,pseudoword,0,REAL,FALSA
,,,,,,,,,,001,2025-04-30_09h11.06.970,empathy_intonation_perc,2024.1.4,MacIntel,76.92307692,,,,,,,,,,,,,,105,peniz,,,,,,346.936,349.335,0,1,1.883,,0,178,178,104,1,pseudoword,0,REAL,FALSA
,,,,,,,,,,001,2025-04-30_09h11.06.970,empathy_intonation_perc,2024.1.4,MacIntel,76.92307692,,,,,,,,,,,,,,109,laras,,,,,,349.336,351.017,0,1,1.159,,0,179,179,108,1,pseudoword,0,REAL,FALSA
,,,,,,,,,,001,2025-04-30_09h11.06.970,empathy_intonation_perc,2024.1.4,MacIntel,76.92307692,,,,,,,,,,,,,,189,medium,,,,,,351.017,352.297,1,0,0.766,,0,180,180,188,1,pseudoword,0,REAL,FALSA
,,,,,,,,,,001,2025-04-30_09h11.06.970,empathy_intonation_perc,2024.1.4,MacIntel,76.92307692,,,,,,,,,,,,,,170,diabo,,,,,,352.298,353.618,0,1,0.807,,0,181,181,169,1,pseudoword,0,REAL,FALSA
,,,,,,,,,,001,2025-04-30_09h11.06.970,empathy_intonation_perc,2024.1.4,MacIntel,76.92307692,,,,,,,,,,,,,,156,ozoso,,,,,,353.618,354.912,0,1,0.775,,0,182,182,155,1,pseudoword,0,REAL,FALSA
,,,,,,,,,,001,2025-04-30_09h11.06.970,empathy_intonation_perc,2024.1.4,MacIntel,76.92307692,,,,,,,,,,,,,,171,gotro,,,,,,354.912,356.166,0,1,0.742,,0,183,183,170,1,pseudoword,0,REAL,FALSA
,,,,,,,,,,001,2025-04-30_09h11.06.970,empathy_intonation_perc,2024.1.4,MacIntel,76.92307692,,,,,,,,,,,,,,5,extra,,,,,,356.166,357.286,1,0,0.601,,0,184,184,4,1,three_way_cognate,1,REAL,FALSA
,,,,,,,,,,001,2025-04-30_09h11.06.970,empathy_intonation_perc,2024.1.4,MacIntel,76.92307692,,,,,,,,,,,,,,176,gripar,,,,,,357.286,358.633,1,0,0.828,,0,185,185,175,1,pseudoword,0,REAL,FALSA
,,,,,,,,,,001,2025-04-30_09h11.06.970,empathy_intonation_perc,2024.1.4,MacIntel,76.92307692,,,,,,,,,,,,,,186,rizate,,,,,,358.633,359.98,0,1,0.831,,0,186,186,185,1,pseudoword,0,REAL,FALSA
,,,,,,,,,,001,2025-04-30_09h11.06.970,empathy_intonation_perc,2024.1.4,MacIntel,76.92307692,,,,,,,,,,,,,,166,anfia,,,,,,359.98,361.781,0,1,1.283,,0,187,187,165,1,pseudoword,0,REAL,FALSA
,,,,,,,,,,001,2025-04-30_09h11.06.970,empathy_intonation_perc,2024.1.4,MacIntel,76.92307692,,,,,,,,,,,,,,191,frasis,,,,,,361.781,363.155,0,1,0.861,,0,188,188,190,1,pseudoword,0,REAL,FALSA
,,,,,,,,,,001,2025-04-30_09h11.06.970,empathy_intonation_perc,2024.1.4,MacIntel,76.92307692,,,,,,,,,,,,,,68,puñal,,,,,,363.155,364.596,0,1,0.927,,0,189,189,67,1,non_cognate,1,REAL,FALSA
,,,,,,,,,,001,2025-04-30_09h11.06.970,empathy_intonation_perc,2024.1.4,MacIntel,76.92307692,,,,,,,,,,,,,,108,jauda,,,,,,364.596,365.863,0,1,0.748,,0,190,190,107,1,pseudoword,0,REAL,FALSA
,,,,,,,,,,001,2025-04-30_09h11.06.970,empathy_intonation_perc,2024.1.4,MacIntel,76.92307692,,,,,,,,,,,,,,162,cengo,,,,,,365.863,367.063,0,1,0.681,,0,191,191,161,1,pseudoword,0,REAL,FALSA
