lextale_instructions.started,lextale_instructions.stopped,lextale_instructions_loop.thisRepN,lextale_instructions_loop.thisTrialN,lextale_instructions_loop.thisN,lextale_instructions_loop.thisIndex,lextale_instructions_loop.ran,instructions_text,continue_text,participant,session,date,expName,psychopyVersion,OS,frameRate,lextale_practice.started,lextale_practice.stopped,key_resp_lextale_practice.keys,key_resp_lextale_practice.corr,key_resp_lextale_practice.rt,key_resp_lextale_practice.duration,lextale_practice_feedback.started,lextale_practice_feedback.stopped,lextale_practice_trials.thisRepN,lextale_practice_trials.thisTrialN,lextale_practice_trials.thisN,lextale_practice_trials.thisIndex,lextale_practice_trials.ran,stim,word,correct_response,prac_button_real,prac_button_false,lextale_check.started,lextale_check.stopped,lextale_trial.started,lextale_trial.stopped,key_resp_lextale_trial.keys,key_resp_lextale_trial.corr,key_resp_lextale_trial.rt,key_resp_lextale_trial.duration,lextail_trials.thisRepN,lextail_trials.thisTrialN,lextail_trials.thisN,lextail_trials.thisIndex,lextail_trials.ran,type,correct_reponse,button_real,button_false
0.0042,5.0395,0,0,0,0,1,"Este es un test de vocabulario en español. 
  
  A continuación vas a ver 90 secuencias de letras que parecen 'españolas'.
  
  Solo algunas de ellas son palabras de verdad.",(presiona la barra espaciadora para continuar),,001,2025-05-10_10h39.25.111,empathy_intonation_perc,2024.1.4,Win32,60.60606061,,,,,,,,,,,,,,,,,,,,,,,,,,,,,,,,,,,
5.0402,9.3721,0,1,1,1,1,"Por favor, señala las palabras que tú conoces (aquellas que estás convencido que son palabras españolas, incluso aunque no seas capaz de dar el significado preciso).",(presiona la barra espaciadora para continuar),,001,2025-05-10_10h39.25.111,empathy_intonation_perc,2024.1.4,Win32,60.60606061,,,,,,,,,,,,,,,,,,,,,,,,,,,,,,,,,,,
9.3726,13.2391,0,2,2,2,1,Pero cuidado: los errores se penalizan. Por eso no tiene sentido tratar de incrementar tu puntuación marcando como reales palabras que nunca has visto.,(presiona la barra espaciadora para continuar),,001,2025-05-10_10h39.25.111,empathy_intonation_perc,2024.1.4,Win32,60.60606061,,,,,,,,,,,,,,,,,,,,,,,,,,,,,,,,,,,
13.2394,18.1219,0,3,3,3,1,"Presiona la tecla 1 si piensas que es una palabra real y la tecla 
  0 si piensas que es una palabra falsa. 
  
  Vamos a practicar un poco...",(presiona la barra espaciadora para continuar),,001,2025-05-10_10h39.25.111,empathy_intonation_perc,2024.1.4,Win32,60.60606061,,,,,,,,,,,,,,,,,,,,,,,,,,,,,,,,,,,
,,,,,,,,,,001,2025-05-10_10h39.25.111,empathy_intonation_perc,2024.1.4,Win32,60.60606061,18.124,63.9698,1,0,45.317,,63.97,64.9698,0,0,0,0,1,0,depiste,0,REAL,FALSA,,,,,,,,,,,,,,,,,
,,,,,,,,,,001,2025-05-10_10h39.25.111,empathy_intonation_perc,2024.1.4,Win32,60.60606061,64.9703,66.7194,1,1,1.2248,,66.7195,67.7192,0,1,1,1,1,0,sí,1,REAL,FALSA,,,,,,,,,,,,,,,,,
,,,,,,,,,,001,2025-05-10_10h39.25.111,empathy_intonation_perc,2024.1.4,Win32,60.60606061,67.7196,70.2857,1,0,2.0401,,70.2858,71.2857,0,2,2,2,1,0,coné,0,REAL,FALSA,,,,,,,,,,,,,,,,,
,,,,,,,,,,001,2025-05-10_10h39.25.111,empathy_intonation_perc,2024.1.4,Win32,60.60606061,71.286,76.6023,0,1,4.7859,,76.6023,77.6021,0,3,3,3,1,0,calpar,0,REAL,FALSA,,,,,,,,,,,,,,,,,
,,,,,,,,,,001,2025-05-10_10h39.25.111,empathy_intonation_perc,2024.1.4,Win32,60.60606061,77.6024,80.8851,0,1,2.7606,,80.8852,81.8852,0,4,4,4,1,0,joten,0,REAL,FALSA,,,,,,,,,,,,,,,,,
,,,,,,,,,,001,2025-05-10_10h39.25.111,empathy_intonation_perc,2024.1.4,Win32,60.60606061,81.8857,84.5685,0,0,2.1438,,84.5686,85.5684,0,5,5,5,1,0,sacapuntas,1,REAL,FALSA,,,,,,,,,,,,,,,,,
,,,,,,,,,,001,2025-05-10_10h39.25.111,empathy_intonation_perc,2024.1.4,Win32,60.60606061,85.5688,87.0517,1,0,0.9454,,87.0517,88.0517,0,6,6,6,1,0,priba,0,REAL,FALSA,,,,,,,,,,,,,,,,,
,,,,,,,,,,001,2025-05-10_10h39.25.111,empathy_intonation_perc,2024.1.4,Win32,60.60606061,88.052,90.1681,1,0,1.5816,,90.1681,91.1681,0,7,7,7,1,0,pelasula,0,REAL,FALSA,,,,,,,,,,,,,,,,,
,,,,,,,,,,001,2025-05-10_10h39.25.111,empathy_intonation_perc,2024.1.4,Win32,60.60606061,91.1684,93.7179,1,1,2.0125,,93.718,94.7178,0,8,8,8,1,0,bien,1,REAL,FALSA,,,,,,,,,,,,,,,,,
,,,,,,,,,,001,2025-05-10_10h39.25.111,empathy_intonation_perc,2024.1.4,Win32,60.60606061,94.7182,96.0687,1,1,0.8295,,96.0688,97.0678,0,9,9,9,1,0,casa,1,REAL,FALSA,,,,,,,,,,,,,,,,,
,,,,,,,,,,001,2025-05-10_10h39.25.111,empathy_intonation_perc,2024.1.4,Win32,60.60606061,97.0682,98.3511,0,1,0.7502,,98.3511,99.351,0,10,10,10,1,0,lejo,0,REAL,FALSA,,,,,,,,,,,,,,,,,
,,,,,,,,,,001,2025-05-10_10h39.25.111,empathy_intonation_perc,2024.1.4,Win32,60.60606061,99.3516,101.6342,1,0,1.7545,,101.6343,102.6342,0,11,11,11,1,0,pretantas,0,REAL,FALSA,,,,,,,,,,,,,,,,,
,,,,,,,,,,001,2025-05-10_10h39.25.111,empathy_intonation_perc,2024.1.4,Win32,60.60606061,,,,,,,,,,,,,,,,,,,102.6345,107.0676,,,,,,,,,,,,,,,
,,,,,,,,,,001,2025-05-10_10h39.25.111,empathy_intonation_perc,2024.1.4,Win32,60.60606061,,,,,,,,,,,,,,72,rostro,,,,,,107.0762,109.1008,0,1,1.5105,,0,0,0,71,1,non_cognate,1,REAL,FALSA
,,,,,,,,,,001,2025-05-10_10h39.25.111,empathy_intonation_perc,2024.1.4,Win32,60.60606061,,,,,,,,,,,,,,114,dibrea,,,,,,109.1013,110.7004,0,1,1.0692,,0,1,1,113,1,pseudoword,0,REAL,FALSA
,,,,,,,,,,001,2025-05-10_10h39.25.111,empathy_intonation_perc,2024.1.4,Win32,60.60606061,,,,,,,,,,,,,,115,lidena,,,,,,110.7009,112.0839,1,0,0.8504,,0,2,2,114,1,pseudoword,0,REAL,FALSA
,,,,,,,,,,001,2025-05-10_10h39.25.111,empathy_intonation_perc,2024.1.4,Win32,60.60606061,,,,,,,,,,,,,,136,hueas,,,,,,112.0842,113.5504,1,0,0.9359,,0,3,3,135,1,pseudoword,0,REAL,FALSA
,,,,,,,,,,001,2025-05-10_10h39.25.111,empathy_intonation_perc,2024.1.4,Win32,60.60606061,,,,,,,,,,,,,,46,mortal,,,,,,113.5508,115.0004,1,0,0.9225,,0,4,4,45,1,two_way_cognate,1,REAL,FALSA
,,,,,,,,,,001,2025-05-10_10h39.25.111,empathy_intonation_perc,2024.1.4,Win32,60.60606061,,,,,,,,,,,,,,173,mibro,,,,,,115.0006,116.6836,1,0,1.1543,,0,5,5,172,1,pseudoword,0,REAL,FALSA
,,,,,,,,,,001,2025-05-10_10h39.25.111,empathy_intonation_perc,2024.1.4,Win32,60.60606061,,,,,,,,,,,,,,179,suelet,,,,,,116.684,117.9669,0,1,0.7472,,0,6,6,178,1,pseudoword,0,REAL,FALSA
,,,,,,,,,,001,2025-05-10_10h39.25.111,empathy_intonation_perc,2024.1.4,Win32,60.60606061,,,,,,,,,,,,,,83,hálito,,,,,,117.9672,119.5669,0,1,1.0687,,0,7,7,82,1,non_cognate,1,REAL,FALSA
,,,,,,,,,,001,2025-05-10_10h39.25.111,empathy_intonation_perc,2024.1.4,Win32,60.60606061,,,,,,,,,,,,,,118,bará,,,,,,119.5672,120.7501,1,0,0.6591,,0,8,8,117,1,pseudoword,0,REAL,FALSA
,,,,,,,,,,001,2025-05-10_10h39.25.111,empathy_intonation_perc,2024.1.4,Win32,60.60606061,,,,,,,,,,,,,,164,tecia,,,,,,120.7504,122.0333,1,0,0.7555,,0,9,9,163,1,pseudoword,0,REAL,FALSA
,,,,,,,,,,001,2025-05-10_10h39.25.111,empathy_intonation_perc,2024.1.4,Win32,60.60606061,,,,,,,,,,,,,,178,inichó,,,,,,122.0337,123.7665,0,1,1.2082,,0,10,10,177,1,pseudoword,0,REAL,FALSA
,,,,,,,,,,001,2025-05-10_10h39.25.111,empathy_intonation_perc,2024.1.4,Win32,60.60606061,,,,,,,,,,,,,,121,barbs,,,,,,123.7669,125.1831,0,1,0.8811,,0,11,11,120,1,pseudoword,0,REAL,FALSA
,,,,,,,,,,001,2025-05-10_10h39.25.111,empathy_intonation_perc,2024.1.4,Win32,60.60606061,,,,,,,,,,,,,,150,cricó,,,,,,125.1836,126.5832,1,0,0.8713,,0,12,12,149,1,pseudoword,0,REAL,FALSA
,,,,,,,,,,001,2025-05-10_10h39.25.111,empathy_intonation_perc,2024.1.4,Win32,60.60606061,,,,,,,,,,,,,,66,aleta,,,,,,126.5835,128.1498,1,0,1.0316,,0,13,13,65,1,non_cognate,1,REAL,FALSA
,,,,,,,,,,001,2025-05-10_10h39.25.111,empathy_intonation_perc,2024.1.4,Win32,60.60606061,,,,,,,,,,,,,,186,rizate,,,,,,128.1504,129.5163,1,0,0.835,,0,14,14,185,1,pseudoword,0,REAL,FALSA
,,,,,,,,,,001,2025-05-10_10h39.25.111,empathy_intonation_perc,2024.1.4,Win32,60.60606061,,,,,,,,,,,,,,20,trauma,,,,,,129.5167,131.2662,1,0,1.2221,,0,15,15,19,1,three_way_cognate,1,REAL,FALSA
,,,,,,,,,,001,2025-05-10_10h39.25.111,empathy_intonation_perc,2024.1.4,Win32,60.60606061,,,,,,,,,,,,,,74,ala,,,,,,131.2666,132.6495,0,1,0.8483,,0,16,16,73,1,non_cognate,1,REAL,FALSA
,,,,,,,,,,001,2025-05-10_10h39.25.111,empathy_intonation_perc,2024.1.4,Win32,60.60606061,,,,,,,,,,,,,,131,fuar,,,,,,132.6498,134.9994,0,1,1.8166,,0,17,17,130,1,pseudoword,0,REAL,FALSA
,,,,,,,,,,001,2025-05-10_10h39.25.111,empathy_intonation_perc,2024.1.4,Win32,60.60606061,,,,,,,,,,,,,,6,horror,,,,,,134.9998,136.4326,0,1,0.9045,,0,18,18,5,1,three_way_cognate,1,REAL,FALSA
,,,,,,,,,,001,2025-05-10_10h39.25.111,empathy_intonation_perc,2024.1.4,Win32,60.60606061,,,,,,,,,,,,,,19,mafia,,,,,,136.4329,138.1011,1,0,1.1483,,0,19,19,18,1,three_way_cognate,1,REAL,FALSA
,,,,,,,,,,001,2025-05-10_10h39.25.111,empathy_intonation_perc,2024.1.4,Win32,60.60606061,,,,,,,,,,,,,,50,sierra,,,,,,138.1013,139.3172,1,0,0.695,,0,20,20,49,1,non_cognate,1,REAL,FALSA
,,,,,,,,,,001,2025-05-10_10h39.25.111,empathy_intonation_perc,2024.1.4,Win32,60.60606061,,,,,,,,,,,,,,49,teñir,,,,,,139.3174,140.5658,1,0,0.7191,,0,21,21,48,1,non_cognate,1,REAL,FALSA
,,,,,,,,,,001,2025-05-10_10h39.25.111,empathy_intonation_perc,2024.1.4,Win32,60.60606061,,,,,,,,,,,,,,126,tobre,,,,,,140.5661,142.0823,1,0,0.9811,,0,22,22,125,1,pseudoword,0,REAL,FALSA
,,,,,,,,,,001,2025-05-10_10h39.25.111,empathy_intonation_perc,2024.1.4,Win32,60.60606061,,,,,,,,,,,,,,99,bugor,,,,,,142.0828,143.285,1,0,0.6813,,0,23,23,98,1,pseudoword,0,REAL,FALSA
,,,,,,,,,,001,2025-05-10_10h39.25.111,empathy_intonation_perc,2024.1.4,Win32,60.60606061,,,,,,,,,,,,,,138,tator,,,,,,143.2852,144.3157,0,1,0.4949,,0,24,24,137,1,pseudoword,0,REAL,FALSA
,,,,,,,,,,001,2025-05-10_10h39.25.111,empathy_intonation_perc,2024.1.4,Win32,60.60606061,,,,,,,,,,,,,,27,piano,,,,,,144.316,145.5155,1,0,0.6705,,0,25,25,26,1,two_way_cognate,1,REAL,FALSA
,,,,,,,,,,001,2025-05-10_10h39.25.111,empathy_intonation_perc,2024.1.4,Win32,60.60606061,,,,,,,,,,,,,,155,kugis,,,,,,145.5159,147.1488,1,0,1.1004,,0,26,26,154,1,pseudoword,0,REAL,FALSA
,,,,,,,,,,001,2025-05-10_10h39.25.111,empathy_intonation_perc,2024.1.4,Win32,60.60606061,,,,,,,,,,,,,,21,hotel,,,,,,147.1492,149.9154,1,0,2.2308,,0,27,27,20,1,three_way_cognate,1,REAL,FALSA
,,,,,,,,,,001,2025-05-10_10h39.25.111,empathy_intonation_perc,2024.1.4,Win32,60.60606061,,,,,,,,,,,,,,3,disco,,,,,,149.9156,151.3485,1,0,0.9116,,0,28,28,2,1,three_way_cognate,1,REAL,FALSA
,,,,,,,,,,001,2025-05-10_10h39.25.111,empathy_intonation_perc,2024.1.4,Win32,60.60606061,,,,,,,,,,,,,,134,molor,,,,,,151.3488,153.0651,1,0,1.1893,,0,29,29,133,1,pseudoword,0,REAL,FALSA
,,,,,,,,,,001,2025-05-10_10h39.25.111,empathy_intonation_perc,2024.1.4,Win32,60.60606061,,,,,,,,,,,,,,137,trugo,,,,,,153.0653,154.1819,0,1,0.5853,,0,30,30,136,1,pseudoword,0,REAL,FALSA
,,,,,,,,,,001,2025-05-10_10h39.25.111,empathy_intonation_perc,2024.1.4,Win32,60.60606061,,,,,,,,,,,,,,177,entodo,,,,,,154.1821,155.2983,0,1,0.588,,0,31,31,176,1,pseudoword,0,REAL,FALSA
,,,,,,,,,,001,2025-05-10_10h39.25.111,empathy_intonation_perc,2024.1.4,Win32,60.60606061,,,,,,,,,,,,,,25,vigor,,,,,,155.2986,156.865,1,0,1.0394,,0,32,32,24,1,two_way_cognate,1,REAL,FALSA
,,,,,,,,,,001,2025-05-10_10h39.25.111,empathy_intonation_perc,2024.1.4,Win32,60.60606061,,,,,,,,,,,,,,67,llamar,,,,,,156.8653,158.6649,0,1,1.2725,,0,33,33,66,1,non_cognate,1,REAL,FALSA
,,,,,,,,,,001,2025-05-10_10h39.25.111,empathy_intonation_perc,2024.1.4,Win32,60.60606061,,,,,,,,,,,,,,109,laras,,,,,,158.6653,160.4648,0,1,1.2674,,0,34,34,108,1,pseudoword,0,REAL,FALSA
,,,,,,,,,,001,2025-05-10_10h39.25.111,empathy_intonation_perc,2024.1.4,Win32,60.60606061,,,,,,,,,,,,,,112,samón,,,,,,160.4652,161.7148,1,0,0.7214,,0,35,35,111,1,pseudoword,0,REAL,FALSA
,,,,,,,,,,001,2025-05-10_10h39.25.111,empathy_intonation_perc,2024.1.4,Win32,60.60606061,,,,,,,,,,,,,,15,test,,,,,,161.7152,162.9814,1,0,0.7351,,0,36,36,14,1,three_way_cognate,1,REAL,FALSA
,,,,,,,,,,001,2025-05-10_10h39.25.111,empathy_intonation_perc,2024.1.4,Win32,60.60606061,,,,,,,,,,,,,,65,guerra,,,,,,162.9817,164.4979,1,0,0.9813,,0,37,37,64,1,non_cognate,1,REAL,FALSA
,,,,,,,,,,001,2025-05-10_10h39.25.111,empathy_intonation_perc,2024.1.4,Win32,60.60606061,,,,,,,,,,,,,,77,suave,,,,,,164.4983,165.9146,1,0,0.8789,,0,38,38,76,1,non_cognate,1,REAL,FALSA
,,,,,,,,,,001,2025-05-10_10h39.25.111,empathy_intonation_perc,2024.1.4,Win32,60.60606061,,,,,,,,,,,,,,14,aura,,,,,,165.9149,167.3978,1,0,0.9572,,0,39,39,13,1,three_way_cognate,1,REAL,FALSA
,,,,,,,,,,001,2025-05-10_10h39.25.111,empathy_intonation_perc,2024.1.4,Win32,60.60606061,,,,,,,,,,,,,,127,vien,,,,,,167.3982,170.131,0,1,2.1993,,0,40,40,126,1,pseudoword,0,REAL,FALSA
,,,,,,,,,,001,2025-05-10_10h39.25.111,empathy_intonation_perc,2024.1.4,Win32,60.60606061,,,,,,,,,,,,,,68,puñal,,,,,,170.1313,171.5643,0,1,0.9033,,0,41,41,67,1,non_cognate,1,REAL,FALSA
,,,,,,,,,,001,2025-05-10_10h39.25.111,empathy_intonation_perc,2024.1.4,Win32,60.60606061,,,,,,,,,,,,,,146,gió,,,,,,171.5646,172.7309,0,1,0.6327,,0,42,42,145,1,pseudoword,0,REAL,FALSA
,,,,,,,,,,001,2025-05-10_10h39.25.111,empathy_intonation_perc,2024.1.4,Win32,60.60606061,,,,,,,,,,,,,,165,chote,,,,,,172.7312,173.9309,0,1,0.6714,,0,43,43,164,1,pseudoword,0,REAL,FALSA
,,,,,,,,,,001,2025-05-10_10h39.25.111,empathy_intonation_perc,2024.1.4,Win32,60.60606061,,,,,,,,,,,,,,153,golla,,,,,,173.9312,175.3307,0,1,0.8704,,0,44,44,152,1,pseudoword,0,REAL,FALSA
,,,,,,,,,,001,2025-05-10_10h39.25.111,empathy_intonation_perc,2024.1.4,Win32,60.60606061,,,,,,,,,,,,,,113,nasce,,,,,,175.3311,176.9974,0,1,1.1345,,0,45,45,112,1,pseudoword,0,REAL,FALSA
,,,,,,,,,,001,2025-05-10_10h39.25.111,empathy_intonation_perc,2024.1.4,Win32,60.60606061,,,,,,,,,,,,,,108,jauda,,,,,,176.9978,178.7639,1,0,1.2376,,0,46,46,107,1,pseudoword,0,REAL,FALSA
,,,,,,,,,,001,2025-05-10_10h39.25.111,empathy_intonation_perc,2024.1.4,Win32,60.60606061,,,,,,,,,,,,,,135,panté,,,,,,178.7643,180.0971,1,0,0.8042,,0,47,47,134,1,pseudoword,0,REAL,FALSA
,,,,,,,,,,001,2025-05-10_10h39.25.111,empathy_intonation_perc,2024.1.4,Win32,60.60606061,,,,,,,,,,,,,,102,coyo,,,,,,180.0976,181.3638,1,0,0.7295,,0,48,48,101,1,pseudoword,0,REAL,FALSA
,,,,,,,,,,001,2025-05-10_10h39.25.111,empathy_intonation_perc,2024.1.4,Win32,60.60606061,,,,,,,,,,,,,,144,diroco,,,,,,181.3642,183.6469,1,0,1.7562,,0,49,49,143,1,pseudoword,0,REAL,FALSA
,,,,,,,,,,001,2025-05-10_10h39.25.111,empathy_intonation_perc,2024.1.4,Win32,60.60606061,,,,,,,,,,,,,,140,chorde,,,,,,183.6473,184.7805,0,1,0.6107,,0,50,50,139,1,pseudoword,0,REAL,FALSA
,,,,,,,,,,001,2025-05-10_10h39.25.111,empathy_intonation_perc,2024.1.4,Win32,60.60606061,,,,,,,,,,,,,,160,fomeó,,,,,,184.7808,185.847,0,1,0.5348,,0,51,51,159,1,pseudoword,0,REAL,FALSA
,,,,,,,,,,001,2025-05-10_10h39.25.111,empathy_intonation_perc,2024.1.4,Win32,60.60606061,,,,,,,,,,,,,,119,esís,,,,,,185.8473,187.2635,0,1,0.8929,,0,52,52,118,1,pseudoword,0,REAL,FALSA
,,,,,,,,,,001,2025-05-10_10h39.25.111,empathy_intonation_perc,2024.1.4,Win32,60.60606061,,,,,,,,,,,,,,124,lobe,,,,,,187.2638,188.6635,0,1,0.8751,,0,53,53,123,1,pseudoword,0,REAL,FALSA
,,,,,,,,,,001,2025-05-10_10h39.25.111,empathy_intonation_perc,2024.1.4,Win32,60.60606061,,,,,,,,,,,,,,28,ardor,,,,,,188.6638,189.7967,0,1,0.6005,,0,54,54,27,1,two_way_cognate,1,REAL,FALSA
,,,,,,,,,,001,2025-05-10_10h39.25.111,empathy_intonation_perc,2024.1.4,Win32,60.60606061,,,,,,,,,,,,,,86,cuenco,,,,,,189.7971,190.8801,0,1,0.5466,,0,55,55,85,1,non_cognate,1,REAL,FALSA
,,,,,,,,,,001,2025-05-10_10h39.25.111,empathy_intonation_perc,2024.1.4,Win32,60.60606061,,,,,,,,,,,,,,32,animal,,,,,,190.8804,192.1467,1,0,0.7353,,0,56,56,31,1,two_way_cognate,1,REAL,FALSA
,,,,,,,,,,001,2025-05-10_10h39.25.111,empathy_intonation_perc,2024.1.4,Win32,60.60606061,,,,,,,,,,,,,,88,percha,,,,,,192.1471,193.5633,1,0,0.8816,,0,57,57,87,1,non_cognate,1,REAL,FALSA
,,,,,,,,,,001,2025-05-10_10h39.25.111,empathy_intonation_perc,2024.1.4,Win32,60.60606061,,,,,,,,,,,,,,73,llevar,,,,,,193.5637,194.6466,0,1,0.5564,,0,58,58,72,1,non_cognate,1,REAL,FALSA
,,,,,,,,,,001,2025-05-10_10h39.25.111,empathy_intonation_perc,2024.1.4,Win32,60.60606061,,,,,,,,,,,,,,141,virios,,,,,,194.6469,195.6465,0,1,0.4658,,0,59,59,140,1,pseudoword,0,REAL,FALSA
,,,,,,,,,,001,2025-05-10_10h39.25.111,empathy_intonation_perc,2024.1.4,Win32,60.60606061,,,,,,,,,,,,,,176,gripar,,,,,,195.6468,196.863,0,1,0.6923,,0,60,60,175,1,pseudoword,0,REAL,FALSA
,,,,,,,,,,001,2025-05-10_10h39.25.111,empathy_intonation_perc,2024.1.4,Win32,60.60606061,,,,,,,,,,,,,,132,nocó,,,,,,196.8634,198.1298,1,0,0.7388,,0,61,61,131,1,pseudoword,0,REAL,FALSA
,,,,,,,,,,001,2025-05-10_10h39.25.111,empathy_intonation_perc,2024.1.4,Win32,60.60606061,,,,,,,,,,,,,,90,venado,,,,,,198.1301,199.4631,0,1,0.7985,,0,62,62,89,1,non_cognate,1,REAL,FALSA
,,,,,,,,,,001,2025-05-10_10h39.25.111,empathy_intonation_perc,2024.1.4,Win32,60.60606061,,,,,,,,,,,,,,4,flora,,,,,,199.4634,200.7462,1,0,0.7558,,0,63,63,3,1,three_way_cognate,1,REAL,FALSA
,,,,,,,,,,001,2025-05-10_10h39.25.111,empathy_intonation_perc,2024.1.4,Win32,60.60606061,,,,,,,,,,,,,,71,torta,,,,,,200.7466,201.9971,1,0,0.7281,,0,64,64,70,1,non_cognate,1,REAL,FALSA
,,,,,,,,,,001,2025-05-10_10h39.25.111,empathy_intonation_perc,2024.1.4,Win32,60.60606061,,,,,,,,,,,,,,93,tapa,,,,,,201.9973,203.296,1,0,0.7747,,0,65,65,92,1,non_cognate,1,REAL,FALSA
,,,,,,,,,,001,2025-05-10_10h39.25.111,empathy_intonation_perc,2024.1.4,Win32,60.60606061,,,,,,,,,,,,,,159,trcia,,,,,,203.2964,204.6794,0,1,0.8536,,0,66,66,158,1,pseudoword,0,REAL,FALSA
,,,,,,,,,,001,2025-05-10_10h39.25.111,empathy_intonation_perc,2024.1.4,Win32,60.60606061,,,,,,,,,,,,,,44,editor,,,,,,204.6798,205.9294,1,0,0.7151,,0,67,67,43,1,two_way_cognate,1,REAL,FALSA
,,,,,,,,,,001,2025-05-10_10h39.25.111,empathy_intonation_perc,2024.1.4,Win32,60.60606061,,,,,,,,,,,,,,31,civil,,,,,,205.9298,207.4626,1,0,1.0017,,0,68,68,30,1,two_way_cognate,1,REAL,FALSA
,,,,,,,,,,001,2025-05-10_10h39.25.111,empathy_intonation_perc,2024.1.4,Win32,60.60606061,,,,,,,,,,,,,,161,civas,,,,,,207.463,210.0292,1,0,2.0316,,0,69,69,160,1,pseudoword,0,REAL,FALSA
,,,,,,,,,,001,2025-05-10_10h39.25.111,empathy_intonation_perc,2024.1.4,Win32,60.60606061,,,,,,,,,,,,,,61,aduana,,,,,,210.0296,211.197,0,1,0.6378,,0,70,70,60,1,non_cognate,1,REAL,FALSA
,,,,,,,,,,001,2025-05-10_10h39.25.111,empathy_intonation_perc,2024.1.4,Win32,60.60606061,,,,,,,,,,,,,,91,equipo,,,,,,211.1972,212.6791,1,0,0.9591,,0,71,71,90,1,non_cognate,1,REAL,FALSA
,,,,,,,,,,001,2025-05-10_10h39.25.111,empathy_intonation_perc,2024.1.4,Win32,60.60606061,,,,,,,,,,,,,,148,gino,,,,,,212.6795,214.0623,1,0,0.848,,0,72,72,147,1,pseudoword,0,REAL,FALSA
,,,,,,,,,,001,2025-05-10_10h39.25.111,empathy_intonation_perc,2024.1.4,Win32,60.60606061,,,,,,,,,,,,,,13,plan,,,,,,214.0626,216.3122,0,1,1.7154,,0,73,73,12,1,three_way_cognate,1,REAL,FALSA
,,,,,,,,,,001,2025-05-10_10h39.25.111,empathy_intonation_perc,2024.1.4,Win32,60.60606061,,,,,,,,,,,,,,105,peniz,,,,,,216.3125,218.0954,0,1,1.257,,0,74,74,104,1,pseudoword,0,REAL,FALSA
,,,,,,,,,,001,2025-05-10_10h39.25.111,empathy_intonation_perc,2024.1.4,Win32,60.60606061,,,,,,,,,,,,,,5,extra,,,,,,218.0957,220.062,0,1,1.4346,,0,75,75,4,1,three_way_cognate,1,REAL,FALSA
,,,,,,,,,,001,2025-05-10_10h39.25.111,empathy_intonation_perc,2024.1.4,Win32,60.60606061,,,,,,,,,,,,,,143,hurcos,,,,,,220.0623,222.2285,0,1,1.6431,,0,76,76,142,1,pseudoword,0,REAL,FALSA
,,,,,,,,,,001,2025-05-10_10h39.25.111,empathy_intonation_perc,2024.1.4,Win32,60.60606061,,,,,,,,,,,,,,180,pupica,,,,,,222.2288,223.6284,0,1,0.874,,0,77,77,179,1,pseudoword,0,REAL,FALSA
,,,,,,,,,,001,2025-05-10_10h39.25.111,empathy_intonation_perc,2024.1.4,Win32,60.60606061,,,,,,,,,,,,,,22,mango,,,,,,223.6287,224.9452,1,0,0.7904,,0,78,78,21,1,three_way_cognate,1,REAL,FALSA
,,,,,,,,,,001,2025-05-10_10h39.25.111,empathy_intonation_perc,2024.1.4,Win32,60.60606061,,,,,,,,,,,,,,174,pabea,,,,,,224.9455,226.5452,1,0,1.074,,0,79,79,173,1,pseudoword,0,REAL,FALSA
,,,,,,,,,,001,2025-05-10_10h39.25.111,empathy_intonation_perc,2024.1.4,Win32,60.60606061,,,,,,,,,,,,,,103,vueras,,,,,,226.5454,228.1448,1,0,1.0738,,0,80,80,102,1,pseudoword,0,REAL,FALSA
,,,,,,,,,,001,2025-05-10_10h39.25.111,empathy_intonation_perc,2024.1.4,Win32,60.60606061,,,,,,,,,,,,,,45,total,,,,,,228.1452,229.4448,0,1,0.777,,0,81,81,44,1,two_way_cognate,1,REAL,FALSA
,,,,,,,,,,001,2025-05-10_10h39.25.111,empathy_intonation_perc,2024.1.4,Win32,60.60606061,,,,,,,,,,,,,,58,colcha,,,,,,229.4452,232.3948,0,1,2.4209,,0,82,82,57,1,non_cognate,1,REAL,FALSA
,,,,,,,,,,001,2025-05-10_10h39.25.111,empathy_intonation_perc,2024.1.4,Win32,60.60606061,,,,,,,,,,,,,,43,honor,,,,,,232.3951,233.8613,0,1,0.9428,,0,83,83,42,1,two_way_cognate,1,REAL,FALSA
,,,,,,,,,,001,2025-05-10_10h39.25.111,empathy_intonation_perc,2024.1.4,Win32,60.60606061,,,,,,,,,,,,,,94,forro,,,,,,233.8616,235.3613,1,0,0.9681,,0,84,84,93,1,non_cognate,1,REAL,FALSA
,,,,,,,,,,001,2025-05-10_10h39.25.111,empathy_intonation_perc,2024.1.4,Win32,60.60606061,,,,,,,,,,,,,,170,diabo,,,,,,235.3616,237.1612,1,0,1.266,,0,85,85,169,1,pseudoword,0,REAL,FALSA
,,,,,,,,,,001,2025-05-10_10h39.25.111,empathy_intonation_perc,2024.1.4,Win32,60.60606061,,,,,,,,,,,,,,53,punta,,,,,,237.1615,238.429,1,0,0.7448,,0,86,86,52,1,non_cognate,1,REAL,FALSA
,,,,,,,,,,001,2025-05-10_10h39.25.111,empathy_intonation_perc,2024.1.4,Win32,60.60606061,,,,,,,,,,,,,,120,mauja,,,,,,238.4292,239.8445,0,1,0.8948,,0,87,87,119,1,pseudoword,0,REAL,FALSA
,,,,,,,,,,001,2025-05-10_10h39.25.111,empathy_intonation_perc,2024.1.4,Win32,60.60606061,,,,,,,,,,,,,,51,listo,,,,,,239.8448,241.661,1,0,1.286,,0,88,88,50,1,non_cognate,1,REAL,FALSA
,,,,,,,,,,001,2025-05-10_10h39.25.111,empathy_intonation_perc,2024.1.4,Win32,60.60606061,,,,,,,,,,,,,,181,gravés,,,,,,241.6613,243.4607,0,1,1.2762,,0,89,89,180,1,pseudoword,0,REAL,FALSA
,,,,,,,,,,001,2025-05-10_10h39.25.111,empathy_intonation_perc,2024.1.4,Win32,60.60606061,,,,,,,,,,,,,,18,altar,,,,,,243.4612,245.2274,0,1,1.2322,,0,90,90,17,1,three_way_cognate,1,REAL,FALSA
,,,,,,,,,,001,2025-05-10_10h39.25.111,empathy_intonation_perc,2024.1.4,Win32,60.60606061,,,,,,,,,,,,,,139,sasos,,,,,,245.2278,246.4294,0,1,0.6788,,0,91,91,138,1,pseudoword,0,REAL,FALSA
,,,,,,,,,,001,2025-05-10_10h39.25.111,empathy_intonation_perc,2024.1.4,Win32,60.60606061,,,,,,,,,,,,,,97,nocita,,,,,,246.4296,247.7606,0,1,0.8066,,0,92,92,96,1,pseudoword,0,REAL,FALSA
,,,,,,,,,,001,2025-05-10_10h39.25.111,empathy_intonation_perc,2024.1.4,Win32,60.60606061,,,,,,,,,,,,,,157,seled,,,,,,247.761,248.9439,0,1,0.6582,,0,93,93,156,1,pseudoword,0,REAL,FALSA
,,,,,,,,,,001,2025-05-10_10h39.25.111,empathy_intonation_perc,2024.1.4,Win32,60.60606061,,,,,,,,,,,,,,47,color,,,,,,248.9443,250.3605,0,1,0.8836,,0,94,94,46,1,two_way_cognate,1,REAL,FALSA
,,,,,,,,,,001,2025-05-10_10h39.25.111,empathy_intonation_perc,2024.1.4,Win32,60.60606061,,,,,,,,,,,,,,1,moral,,,,,,250.3608,252.0771,0,1,1.1926,,0,95,95,0,1,three_way_cognate,1,REAL,FALSA
,,,,,,,,,,001,2025-05-10_10h39.25.111,empathy_intonation_perc,2024.1.4,Win32,60.60606061,,,,,,,,,,,,,,10,drama,,,,,,252.0774,254.127,0,1,1.525,,0,96,96,9,1,three_way_cognate,1,REAL,FALSA
,,,,,,,,,,001,2025-05-10_10h39.25.111,empathy_intonation_perc,2024.1.4,Win32,60.60606061,,,,,,,,,,,,,,7,albino,,,,,,254.1274,257.3768,1,0,2.7225,,0,97,97,6,1,three_way_cognate,1,REAL,FALSA
,,,,,,,,,,001,2025-05-10_10h39.25.111,empathy_intonation_perc,2024.1.4,Win32,60.60606061,,,,,,,,,,,,,,171,gotro,,,,,,257.3772,259.1268,0,1,1.217,,0,98,98,170,1,pseudoword,0,REAL,FALSA
,,,,,,,,,,001,2025-05-10_10h39.25.111,empathy_intonation_perc,2024.1.4,Win32,60.60606061,,,,,,,,,,,,,,129,vinzó,,,,,,259.1271,260.5933,0,1,0.94,,0,99,99,128,1,pseudoword,0,REAL,FALSA
,,,,,,,,,,001,2025-05-10_10h39.25.111,empathy_intonation_perc,2024.1.4,Win32,60.60606061,,,,,,,,,,,,,,158,babrá,,,,,,260.5937,261.8434,0,1,0.7132,,0,100,100,157,1,pseudoword,0,REAL,FALSA
,,,,,,,,,,001,2025-05-10_10h39.25.111,empathy_intonation_perc,2024.1.4,Win32,60.60606061,,,,,,,,,,,,,,29,clamor,,,,,,261.8437,263.1265,0,1,0.7458,,0,101,101,28,1,two_way_cognate,1,REAL,FALSA
,,,,,,,,,,001,2025-05-10_10h39.25.111,empathy_intonation_perc,2024.1.4,Win32,60.60606061,,,,,,,,,,,,,,183,edioso,,,,,,263.1269,264.3599,0,1,0.702,,0,102,102,182,1,pseudoword,0,REAL,FALSA
,,,,,,,,,,001,2025-05-10_10h39.25.111,empathy_intonation_perc,2024.1.4,Win32,60.60606061,,,,,,,,,,,,,,98,martir,,,,,,264.3603,265.4598,0,1,0.5719,,0,103,103,97,1,pseudoword,0,REAL,FALSA
,,,,,,,,,,001,2025-05-10_10h39.25.111,empathy_intonation_perc,2024.1.4,Win32,60.60606061,,,,,,,,,,,,,,38,halo,,,,,,265.4601,267.1264,1,0,1.1346,,0,104,104,37,1,two_way_cognate,1,REAL,FALSA
,,,,,,,,,,001,2025-05-10_10h39.25.111,empathy_intonation_perc,2024.1.4,Win32,60.60606061,,,,,,,,,,,,,,42,rumor,,,,,,267.1267,268.7763,0,1,1.1211,,0,105,105,41,1,two_way_cognate,1,REAL,FALSA
,,,,,,,,,,001,2025-05-10_10h39.25.111,empathy_intonation_perc,2024.1.4,Win32,60.60606061,,,,,,,,,,,,,,101,losco,,,,,,268.7766,270.1261,1,0,0.8259,,0,106,106,100,1,pseudoword,0,REAL,FALSA
,,,,,,,,,,001,2025-05-10_10h39.25.111,empathy_intonation_perc,2024.1.4,Win32,60.60606061,,,,,,,,,,,,,,152,prave,,,,,,270.1264,271.3928,0,1,0.7317,,0,107,107,151,1,pseudoword,0,REAL,FALSA
,,,,,,,,,,001,2025-05-10_10h39.25.111,empathy_intonation_perc,2024.1.4,Win32,60.60606061,,,,,,,,,,,,,,48,pelvis,,,,,,271.3932,273.1261,0,1,1.2106,,0,108,108,47,1,two_way_cognate,1,REAL,FALSA
,,,,,,,,,,001,2025-05-10_10h39.25.111,empathy_intonation_perc,2024.1.4,Win32,60.60606061,,,,,,,,,,,,,,40,pelvis,,,,,,273.1264,274.4928,0,1,0.8377,,0,109,109,39,1,two_way_cognate,1,REAL,FALSA
,,,,,,,,,,001,2025-05-10_10h39.25.111,empathy_intonation_perc,2024.1.4,Win32,60.60606061,,,,,,,,,,,,,,54,tapón,,,,,,274.4931,276.0427,0,1,1.0227,,0,110,110,53,1,non_cognate,1,REAL,FALSA
,,,,,,,,,,001,2025-05-10_10h39.25.111,empathy_intonation_perc,2024.1.4,Win32,60.60606061,,,,,,,,,,,,,,85,enorme,,,,,,276.0429,277.126,0,1,0.5525,,0,111,111,84,1,non_cognate,1,REAL,FALSA
,,,,,,,,,,001,2025-05-10_10h39.25.111,empathy_intonation_perc,2024.1.4,Win32,60.60606061,,,,,,,,,,,,,,107,plago,,,,,,277.1263,278.5258,0,1,0.8771,,0,112,112,106,1,pseudoword,0,REAL,FALSA
,,,,,,,,,,001,2025-05-10_10h39.25.111,empathy_intonation_perc,2024.1.4,Win32,60.60606061,,,,,,,,,,,,,,162,cengo,,,,,,278.5262,279.7257,0,1,0.6762,,0,113,113,161,1,pseudoword,0,REAL,FALSA
,,,,,,,,,,001,2025-05-10_10h39.25.111,empathy_intonation_perc,2024.1.4,Win32,60.60606061,,,,,,,,,,,,,,79,suelo,,,,,,279.726,281.2591,0,1,1.0046,,0,114,114,78,1,non_cognate,1,REAL,FALSA
,,,,,,,,,,001,2025-05-10_10h39.25.111,empathy_intonation_perc,2024.1.4,Win32,60.60606061,,,,,,,,,,,,,,12,dogma,,,,,,281.2594,282.7257,0,1,0.9352,,0,115,115,11,1,three_way_cognate,1,REAL,FALSA
,,,,,,,,,,001,2025-05-10_10h39.25.111,empathy_intonation_perc,2024.1.4,Win32,60.60606061,,,,,,,,,,,,,,169,pitis,,,,,,282.726,284.0755,0,1,0.8199,,0,116,116,168,1,pseudoword,0,REAL,FALSA
,,,,,,,,,,001,2025-05-10_10h39.25.111,empathy_intonation_perc,2024.1.4,Win32,60.60606061,,,,,,,,,,,,,,80,cuenco,,,,,,284.0758,285.2255,0,1,0.6223,,0,117,117,79,1,non_cognate,1,REAL,FALSA
,,,,,,,,,,001,2025-05-10_10h39.25.111,empathy_intonation_perc,2024.1.4,Win32,60.60606061,,,,,,,,,,,,,,76,chocar,,,,,,285.2259,286.3088,0,1,0.5617,,0,118,118,75,1,non_cognate,1,REAL,FALSA
