lextale_instructions.started,lextale_instructions.stopped,lextale_instructions_loop.thisRepN,lextale_instructions_loop.thisTrialN,lextale_instructions_loop.thisN,lextale_instructions_loop.thisIndex,lextale_instructions_loop.ran,instructions_text,continue_text,participant,session,date,expName,psychopyVersion,OS,frameRate,lextale_practice.started,lextale_practice.stopped,key_resp_lextale_practice.keys,key_resp_lextale_practice.corr,key_resp_lextale_practice.rt,key_resp_lextale_practice.duration,lextale_practice_feedback.started,lextale_practice_feedback.stopped,lextale_practice_trials.thisRepN,lextale_practice_trials.thisTrialN,lextale_practice_trials.thisN,lextale_practice_trials.thisIndex,lextale_practice_trials.ran,stim,word,correct_response,prac_button_real,prac_button_false,lextale_check.started,lextale_check.stopped,lextale_trial.started,lextale_trial.stopped,key_resp_lextale_trial.keys,key_resp_lextale_trial.corr,key_resp_lextale_trial.rt,key_resp_lextale_trial.duration,lextail_trials.thisRepN,lextail_trials.thisTrialN,lextail_trials.thisN,lextail_trials.thisIndex,lextail_trials.ran,type,correct_reponse,button_real,button_false
0.003,6.502,0,0,0,0,1,"Este es un test de vocabulario en español. 
  
  A continuación vas a ver 90 secuencias de letras que parecen 'españolas'.
  
  Solo algunas de ellas son palabras de verdad.",(presiona la barra espaciadora para continuar),,001,2025-04-30_12h12.43.886,empathy_intonation_perc,2024.1.4,Win32,60.0240096,,,,,,,,,,,,,,,,,,,,,,,,,,,,,,,,,,,
6.504,13.718,0,1,1,1,1,"Por favor, señala las palabras que tú conoces (aquellas que estás convencido que son palabras españolas, incluso aunque no seas capaz de dar el significado preciso).",(presiona la barra espaciadora para continuar),,001,2025-04-30_12h12.43.886,empathy_intonation_perc,2024.1.4,Win32,60.0240096,,,,,,,,,,,,,,,,,,,,,,,,,,,,,,,,,,,
13.719,22.201,0,2,2,2,1,Pero cuidado: los errores se penalizan. Por eso no tiene sentido tratar de incrementar tu puntuación marcando como reales palabras que nunca has visto.,(presiona la barra espaciadora para continuar),,001,2025-04-30_12h12.43.886,empathy_intonation_perc,2024.1.4,Win32,60.0240096,,,,,,,,,,,,,,,,,,,,,,,,,,,,,,,,,,,
22.202,31.768,0,3,3,3,1,"Presiona la tecla 1 si piensas que es una palabra real y la tecla 
  0 si piensas que es una palabra falsa. 
  
  Vamos a practicar un poco...",(presiona la barra espaciadora para continuar),,001,2025-04-30_12h12.43.886,empathy_intonation_perc,2024.1.4,Win32,60.0240096,,,,,,,,,,,,,,,,,,,,,,,,,,,,,,,,,,,
,,,,,,,,,,001,2025-04-30_12h12.43.886,empathy_intonation_perc,2024.1.4,Win32,60.0240096,31.773,32.986,1,0,0.662,,32.987,33.985,0,0,0,0,1,0,depiste,0,REAL,FALSA,,,,,,,,,,,,,,,,,
,,,,,,,,,,001,2025-04-30_12h12.43.886,empathy_intonation_perc,2024.1.4,Win32,60.0240096,33.988,37.969,1,1,3.446,,37.969,38.969,0,1,1,1,1,0,sí,1,REAL,FALSA,,,,,,,,,,,,,,,,,
,,,,,,,,,,001,2025-04-30_12h12.43.886,empathy_intonation_perc,2024.1.4,Win32,60.0240096,38.97,42.252,0,1,2.74,,42.252,43.251,0,2,2,2,1,0,coné,0,REAL,FALSA,,,,,,,,,,,,,,,,,
,,,,,,,,,,001,2025-04-30_12h12.43.886,empathy_intonation_perc,2024.1.4,Win32,60.0240096,43.252,44.818,0,1,1.028,,44.818,45.819,0,3,3,3,1,0,calpar,0,REAL,FALSA,,,,,,,,,,,,,,,,,
,,,,,,,,,,001,2025-04-30_12h12.43.886,empathy_intonation_perc,2024.1.4,Win32,60.0240096,45.82,47.403,0,1,1.036,,47.403,48.402,0,4,4,4,1,0,joten,0,REAL,FALSA,,,,,,,,,,,,,,,,,
,,,,,,,,,,001,2025-04-30_12h12.43.886,empathy_intonation_perc,2024.1.4,Win32,60.0240096,48.403,50.601,1,1,1.662,,50.601,51.602,0,5,5,5,1,0,sacapuntas,1,REAL,FALSA,,,,,,,,,,,,,,,,,
,,,,,,,,,,001,2025-04-30_12h12.43.886,empathy_intonation_perc,2024.1.4,Win32,60.0240096,51.603,53.535,0,1,1.38,,53.536,54.535,0,6,6,6,1,0,priba,0,REAL,FALSA,,,,,,,,,,,,,,,,,
,,,,,,,,,,001,2025-04-30_12h12.43.886,empathy_intonation_perc,2024.1.4,Win32,60.0240096,54.536,57.119,1,0,2.048,,57.119,58.118,0,7,7,7,1,0,pelasula,0,REAL,FALSA,,,,,,,,,,,,,,,,,
,,,,,,,,,,001,2025-04-30_12h12.43.886,empathy_intonation_perc,2024.1.4,Win32,60.0240096,58.119,59.452,1,1,0.787,,59.452,60.452,0,8,8,8,1,0,bien,1,REAL,FALSA,,,,,,,,,,,,,,,,,
,,,,,,,,,,001,2025-04-30_12h12.43.886,empathy_intonation_perc,2024.1.4,Win32,60.0240096,60.453,61.719,1,1,0.722,,61.719,62.719,0,9,9,9,1,0,casa,1,REAL,FALSA,,,,,,,,,,,,,,,,,
,,,,,,,,,,001,2025-04-30_12h12.43.886,empathy_intonation_perc,2024.1.4,Win32,60.0240096,62.719,64.569,0,1,1.313,,64.569,65.569,0,10,10,10,1,0,lejo,0,REAL,FALSA,,,,,,,,,,,,,,,,,
,,,,,,,,,,001,2025-04-30_12h12.43.886,empathy_intonation_perc,2024.1.4,Win32,60.0240096,65.57,67.72,0,1,1.612,,67.72,68.719,0,11,11,11,1,0,pretantas,0,REAL,FALSA,,,,,,,,,,,,,,,,,
,,,,,,,,,,001,2025-04-30_12h12.43.886,empathy_intonation_perc,2024.1.4,Win32,60.0240096,,,,,,,,,,,,,,,,,,,68.72,71.669,,,,,,,,,,,,,,,
,,,,,,,,,,001,2025-04-30_12h12.43.886,empathy_intonation_perc,2024.1.4,Win32,60.0240096,,,,,,,,,,,,,,81,sacar,,,,,,71.68,73.618,0,1,1.406,,0,0,0,80,1,non_cognate,1,REAL,FALSA
,,,,,,,,,,001,2025-04-30_12h12.43.886,empathy_intonation_perc,2024.1.4,Win32,60.0240096,,,,,,,,,,,,,,115,lidena,,,,,,73.619,76.052,0,1,1.884,,0,1,1,114,1,pseudoword,0,REAL,FALSA
,,,,,,,,,,001,2025-04-30_12h12.43.886,empathy_intonation_perc,2024.1.4,Win32,60.0240096,,,,,,,,,,,,,,160,fomeó,,,,,,76.053,77.735,1,0,1.133,,0,2,2,159,1,pseudoword,0,REAL,FALSA
,,,,,,,,,,001,2025-04-30_12h12.43.886,empathy_intonation_perc,2024.1.4,Win32,60.0240096,,,,,,,,,,,,,,108,jauda,,,,,,77.736,79.952,0,1,1.671,,0,3,3,107,1,pseudoword,0,REAL,FALSA
,,,,,,,,,,001,2025-04-30_12h12.43.886,empathy_intonation_perc,2024.1.4,Win32,60.0240096,,,,,,,,,,,,,,158,babrá,,,,,,79.953,82.986,0,1,2.479,,0,4,4,157,1,pseudoword,0,REAL,FALSA
,,,,,,,,,,001,2025-04-30_12h12.43.886,empathy_intonation_perc,2024.1.4,Win32,60.0240096,,,,,,,,,,,,,,94,forro,,,,,,82.986,84.302,1,0,0.766,,0,5,5,93,1,non_cognate,1,REAL,FALSA
,,,,,,,,,,001,2025-04-30_12h12.43.886,empathy_intonation_perc,2024.1.4,Win32,60.0240096,,,,,,,,,,,,,,189,medium,,,,,,84.304,86.568,1,0,1.712,,0,6,6,188,1,pseudoword,0,REAL,FALSA
,,,,,,,,,,001,2025-04-30_12h12.43.886,empathy_intonation_perc,2024.1.4,Win32,60.0240096,,,,,,,,,,,,,,9,portal,,,,,,86.569,89.668,0,1,2.56,,0,7,7,8,1,three_way_cognate,1,REAL,FALSA
,,,,,,,,,,001,2025-04-30_12h12.43.886,empathy_intonation_perc,2024.1.4,Win32,60.0240096,,,,,,,,,,,,,,19,mafia,,,,,,89.67,92.652,1,0,2.448,,0,8,8,18,1,three_way_cognate,1,REAL,FALSA
,,,,,,,,,,001,2025-04-30_12h12.43.886,empathy_intonation_perc,2024.1.4,Win32,60.0240096,,,,,,,,,,,,,,52,blando,,,,,,92.653,95.269,0,1,2.074,,0,9,9,51,1,non_cognate,1,REAL,FALSA
,,,,,,,,,,001,2025-04-30_12h12.43.886,empathy_intonation_perc,2024.1.4,Win32,60.0240096,,,,,,,,,,,,,,102,coyo,,,,,,95.269,96.818,1,0,1.009,,0,10,10,101,1,pseudoword,0,REAL,FALSA
,,,,,,,,,,001,2025-04-30_12h12.43.886,empathy_intonation_perc,2024.1.4,Win32,60.0240096,,,,,,,,,,,,,,99,bugor,,,,,,96.818,98.969,0,1,1.622,,0,11,11,98,1,pseudoword,0,REAL,FALSA
,,,,,,,,,,001,2025-04-30_12h12.43.886,empathy_intonation_perc,2024.1.4,Win32,60.0240096,,,,,,,,,,,,,,33,collar,,,,,,98.969,103.422,1,0,3.918,,0,12,12,32,1,two_way_cognate,1,REAL,FALSA
,,,,,,,,,,001,2025-04-30_12h12.43.886,empathy_intonation_perc,2024.1.4,Win32,60.0240096,,,,,,,,,,,,,,104,estulo,,,,,,103.424,105.419,1,0,1.45,,0,13,13,103,1,pseudoword,0,REAL,FALSA
,,,,,,,,,,001,2025-04-30_12h12.43.886,empathy_intonation_perc,2024.1.4,Win32,60.0240096,,,,,,,,,,,,,,61,aduana,,,,,,105.421,109.652,1,0,3.685,,0,14,14,60,1,non_cognate,1,REAL,FALSA
,,,,,,,,,,001,2025-04-30_12h12.43.886,empathy_intonation_perc,2024.1.4,Win32,60.0240096,,,,,,,,,,,,,,1,moral,,,,,,109.653,114.469,1,0,4.265,,0,15,15,0,1,three_way_cognate,1,REAL,FALSA
,,,,,,,,,,001,2025-04-30_12h12.43.886,empathy_intonation_perc,2024.1.4,Win32,60.0240096,,,,,,,,,,,,,,12,dogma,,,,,,114.47,116.585,1,0,1.569,,0,16,16,11,1,three_way_cognate,1,REAL,FALSA
,,,,,,,,,,001,2025-04-30_12h12.43.886,empathy_intonation_perc,2024.1.4,Win32,60.0240096,,,,,,,,,,,,,,134,molor,,,,,,116.586,118.103,0,1,0.976,,0,17,17,133,1,pseudoword,0,REAL,FALSA
,,,,,,,,,,001,2025-04-30_12h12.43.886,empathy_intonation_perc,2024.1.4,Win32,60.0240096,,,,,,,,,,,,,,57,regalo,,,,,,118.105,120.502,0,1,1.846,,0,18,18,56,1,non_cognate,1,REAL,FALSA
,,,,,,,,,,001,2025-04-30_12h12.43.886,empathy_intonation_perc,2024.1.4,Win32,60.0240096,,,,,,,,,,,,,,32,animal,,,,,,120.502,122.686,1,0,1.653,,0,19,19,31,1,two_way_cognate,1,REAL,FALSA
,,,,,,,,,,001,2025-04-30_12h12.43.886,empathy_intonation_perc,2024.1.4,Win32,60.0240096,,,,,,,,,,,,,,145,rúo,,,,,,122.687,124.686,1,0,1.464,,0,20,20,144,1,pseudoword,0,REAL,FALSA
,,,,,,,,,,001,2025-04-30_12h12.43.886,empathy_intonation_perc,2024.1.4,Win32,60.0240096,,,,,,,,,,,,,,121,barbs,,,,,,124.687,126.403,0,1,1.171,,0,21,21,120,1,pseudoword,0,REAL,FALSA
,,,,,,,,,,001,2025-04-30_12h12.43.886,empathy_intonation_perc,2024.1.4,Win32,60.0240096,,,,,,,,,,,,,,125,ceme,,,,,,126.404,129.102,1,0,2.154,,0,22,22,124,1,pseudoword,0,REAL,FALSA
,,,,,,,,,,001,2025-04-30_12h12.43.886,empathy_intonation_perc,2024.1.4,Win32,60.0240096,,,,,,,,,,,,,,24,retina,,,,,,129.102,130.82,1,0,1.185,,0,23,23,23,1,three_way_cognate,1,REAL,FALSA
,,,,,,,,,,001,2025-04-30_12h12.43.886,empathy_intonation_perc,2024.1.4,Win32,60.0240096,,,,,,,,,,,,,,98,martir,,,,,,130.821,133.719,0,1,2.362,,0,24,24,97,1,pseudoword,0,REAL,FALSA
,,,,,,,,,,001,2025-04-30_12h12.43.886,empathy_intonation_perc,2024.1.4,Win32,60.0240096,,,,,,,,,,,,,,138,tator,,,,,,133.72,135.819,0,1,1.56,,0,25,25,137,1,pseudoword,0,REAL,FALSA
,,,,,,,,,,001,2025-04-30_12h12.43.886,empathy_intonation_perc,2024.1.4,Win32,60.0240096,,,,,,,,,,,,,,190,asumie,,,,,,135.823,137.352,0,1,0.978,,0,26,26,189,1,pseudoword,0,REAL,FALSA
,,,,,,,,,,001,2025-04-30_12h12.43.886,empathy_intonation_perc,2024.1.4,Win32,60.0240096,,,,,,,,,,,,,,6,horror,,,,,,137.354,140.902,1,0,3.015,,0,27,27,5,1,three_way_cognate,1,REAL,FALSA
,,,,,,,,,,001,2025-04-30_12h12.43.886,empathy_intonation_perc,2024.1.4,Win32,60.0240096,,,,,,,,,,,,,,137,trugo,,,,,,140.904,143.735,1,0,2.282,,0,28,28,136,1,pseudoword,0,REAL,FALSA
,,,,,,,,,,001,2025-04-30_12h12.43.886,empathy_intonation_perc,2024.1.4,Win32,60.0240096,,,,,,,,,,,,,,56,pico,,,,,,143.737,145.302,1,0,1.02,,0,29,29,55,1,non_cognate,1,REAL,FALSA
,,,,,,,,,,001,2025-04-30_12h12.43.886,empathy_intonation_perc,2024.1.4,Win32,60.0240096,,,,,,,,,,,,,,5,extra,,,,,,145.302,148.852,0,1,3.001,,0,30,30,4,1,three_way_cognate,1,REAL,FALSA
,,,,,,,,,,001,2025-04-30_12h12.43.886,empathy_intonation_perc,2024.1.4,Win32,60.0240096,,,,,,,,,,,,,,178,inichó,,,,,,148.854,152.819,1,0,3.416,,0,31,31,177,1,pseudoword,0,REAL,FALSA
,,,,,,,,,,001,2025-04-30_12h12.43.886,empathy_intonation_perc,2024.1.4,Win32,60.0240096,,,,,,,,,,,,,,79,suelo,,,,,,152.82,154.352,1,0,0.994,,0,32,32,78,1,non_cognate,1,REAL,FALSA
,,,,,,,,,,001,2025-04-30_12h12.43.886,empathy_intonation_perc,2024.1.4,Win32,60.0240096,,,,,,,,,,,,,,153,golla,,,,,,154.353,158.735,0,1,3.842,,0,33,33,152,1,pseudoword,0,REAL,FALSA
,,,,,,,,,,001,2025-04-30_12h12.43.886,empathy_intonation_perc,2024.1.4,Win32,60.0240096,,,,,,,,,,,,,,143,hurcos,,,,,,158.736,160.552,0,1,1.273,,0,34,34,142,1,pseudoword,0,REAL,FALSA
,,,,,,,,,,001,2025-04-30_12h12.43.886,empathy_intonation_perc,2024.1.4,Win32,60.0240096,,,,,,,,,,,,,,42,rumor,,,,,,160.553,162.686,1,0,1.596,,0,35,35,41,1,two_way_cognate,1,REAL,FALSA
,,,,,,,,,,001,2025-04-30_12h12.43.886,empathy_intonation_perc,2024.1.4,Win32,60.0240096,,,,,,,,,,,,,,53,punta,,,,,,162.687,164.135,1,0,0.923,,0,36,36,52,1,non_cognate,1,REAL,FALSA
,,,,,,,,,,001,2025-04-30_12h12.43.886,empathy_intonation_perc,2024.1.4,Win32,60.0240096,,,,,,,,,,,,,,69,tiza,,,,,,164.136,165.769,1,0,1.112,,0,37,37,68,1,non_cognate,1,REAL,FALSA
,,,,,,,,,,001,2025-04-30_12h12.43.886,empathy_intonation_perc,2024.1.4,Win32,60.0240096,,,,,,,,,,,,,,50,sierra,,,,,,165.77,167.352,1,0,1.034,,0,38,38,49,1,non_cognate,1,REAL,FALSA
,,,,,,,,,,001,2025-04-30_12h12.43.886,empathy_intonation_perc,2024.1.4,Win32,60.0240096,,,,,,,,,,,,,,10,drama,,,,,,167.353,169.368,1,0,1.468,,0,39,39,9,1,three_way_cognate,1,REAL,FALSA
,,,,,,,,,,001,2025-04-30_12h12.43.886,empathy_intonation_perc,2024.1.4,Win32,60.0240096,,,,,,,,,,,,,,114,dibrea,,,,,,169.373,171.569,0,1,1.653,,0,40,40,113,1,pseudoword,0,REAL,FALSA
,,,,,,,,,,001,2025-04-30_12h12.43.886,empathy_intonation_perc,2024.1.4,Win32,60.0240096,,,,,,,,,,,,,,174,pabea,,,,,,171.57,172.97,1,0,0.866,,0,41,41,173,1,pseudoword,0,REAL,FALSA
,,,,,,,,,,001,2025-04-30_12h12.43.886,empathy_intonation_perc,2024.1.4,Win32,60.0240096,,,,,,,,,,,,,,105,peniz,,,,,,172.971,176.336,0,1,2.83,,0,42,42,104,1,pseudoword,0,REAL,FALSA
,,,,,,,,,,001,2025-04-30_12h12.43.886,empathy_intonation_perc,2024.1.4,Win32,60.0240096,,,,,,,,,,,,,,63,hilo,,,,,,176.337,178.52,1,0,1.649,,0,43,43,62,1,non_cognate,1,REAL,FALSA
,,,,,,,,,,001,2025-04-30_12h12.43.886,empathy_intonation_perc,2024.1.4,Win32,60.0240096,,,,,,,,,,,,,,88,percha,,,,,,178.52,180.036,1,0,0.965,,0,44,44,87,1,non_cognate,1,REAL,FALSA
,,,,,,,,,,001,2025-04-30_12h12.43.886,empathy_intonation_perc,2024.1.4,Win32,60.0240096,,,,,,,,,,,,,,173,mibro,,,,,,180.037,181.654,0,1,1.089,,0,45,45,172,1,pseudoword,0,REAL,FALSA
,,,,,,,,,,001,2025-04-30_12h12.43.886,empathy_intonation_perc,2024.1.4,Win32,60.0240096,,,,,,,,,,,,,,51,listo,,,,,,181.656,185.719,1,0,3.534,,0,46,46,50,1,non_cognate,1,REAL,FALSA
,,,,,,,,,,001,2025-04-30_12h12.43.886,empathy_intonation_perc,2024.1.4,Win32,60.0240096,,,,,,,,,,,,,,123,arane,,,,,,185.721,187.569,0,1,1.313,,0,47,47,122,1,pseudoword,0,REAL,FALSA
,,,,,,,,,,001,2025-04-30_12h12.43.886,empathy_intonation_perc,2024.1.4,Win32,60.0240096,,,,,,,,,,,,,,40,pelvis,,,,,,187.57,189.286,0,1,1.169,,0,48,48,39,1,two_way_cognate,1,REAL,FALSA
,,,,,,,,,,001,2025-04-30_12h12.43.886,empathy_intonation_perc,2024.1.4,Win32,60.0240096,,,,,,,,,,,,,,34,actor,,,,,,189.287,192.152,0,1,2.322,,0,49,49,33,1,two_way_cognate,1,REAL,FALSA
,,,,,,,,,,001,2025-04-30_12h12.43.886,empathy_intonation_perc,2024.1.4,Win32,60.0240096,,,,,,,,,,,,,,72,rostro,,,,,,192.153,197.286,0,1,4.583,,0,50,50,71,1,non_cognate,1,REAL,FALSA
,,,,,,,,,,001,2025-04-30_12h12.43.886,empathy_intonation_perc,2024.1.4,Win32,60.0240096,,,,,,,,,,,,,,156,ozoso,,,,,,197.287,199.385,1,0,1.567,,0,51,51,155,1,pseudoword,0,REAL,FALSA
,,,,,,,,,,001,2025-04-30_12h12.43.886,empathy_intonation_perc,2024.1.4,Win32,60.0240096,,,,,,,,,,,,,,71,torta,,,,,,199.387,201.536,0,1,1.609,,0,52,52,70,1,non_cognate,1,REAL,FALSA
,,,,,,,,,,001,2025-04-30_12h12.43.886,empathy_intonation_perc,2024.1.4,Win32,60.0240096,,,,,,,,,,,,,,192,próces,,,,,,201.536,204.369,1,0,2.279,,0,53,53,191,1,pseudoword,0,REAL,FALSA
,,,,,,,,,,001,2025-04-30_12h12.43.886,empathy_intonation_perc,2024.1.4,Win32,60.0240096,,,,,,,,,,,,,,132,nocó,,,,,,204.372,206.152,0,1,1.236,,0,54,54,131,1,pseudoword,0,REAL,FALSA
,,,,,,,,,,001,2025-04-30_12h12.43.886,empathy_intonation_perc,2024.1.4,Win32,60.0240096,,,,,,,,,,,,,,122,boñaz,,,,,,206.153,207.869,1,0,1.169,,0,55,55,121,1,pseudoword,0,REAL,FALSA
,,,,,,,,,,001,2025-04-30_12h12.43.886,empathy_intonation_perc,2024.1.4,Win32,60.0240096,,,,,,,,,,,,,,29,clamor,,,,,,207.87,210.319,0,1,1.91,,0,56,56,28,1,two_way_cognate,1,REAL,FALSA
,,,,,,,,,,001,2025-04-30_12h12.43.886,empathy_intonation_perc,2024.1.4,Win32,60.0240096,,,,,,,,,,,,,,183,edioso,,,,,,210.32,213.435,0,1,2.564,,0,57,57,182,1,pseudoword,0,REAL,FALSA
,,,,,,,,,,001,2025-04-30_12h12.43.886,empathy_intonation_perc,2024.1.4,Win32,60.0240096,,,,,,,,,,,,,,78,rendir,,,,,,213.435,214.968,0,1,0.999,,0,58,58,77,1,non_cognate,1,REAL,FALSA
,,,,,,,,,,001,2025-04-30_12h12.43.886,empathy_intonation_perc,2024.1.4,Win32,60.0240096,,,,,,,,,,,,,,157,seled,,,,,,214.969,218.086,1,0,2.56,,0,59,59,156,1,pseudoword,0,REAL,FALSA
,,,,,,,,,,001,2025-04-30_12h12.43.886,empathy_intonation_perc,2024.1.4,Win32,60.0240096,,,,,,,,,,,,,,118,bará,,,,,,218.087,219.519,1,0,0.893,,0,60,60,117,1,pseudoword,0,REAL,FALSA
,,,,,,,,,,001,2025-04-30_12h12.43.886,empathy_intonation_perc,2024.1.4,Win32,60.0240096,,,,,,,,,,,,,,148,gino,,,,,,219.519,222.652,0,1,2.618,,0,61,61,147,1,pseudoword,0,REAL,FALSA
,,,,,,,,,,001,2025-04-30_12h12.43.886,empathy_intonation_perc,2024.1.4,Win32,60.0240096,,,,,,,,,,,,,,92,flecha,,,,,,222.653,224.219,1,0,1.019,,0,62,62,91,1,non_cognate,1,REAL,FALSA
,,,,,,,,,,001,2025-04-30_12h12.43.886,empathy_intonation_perc,2024.1.4,Win32,60.0240096,,,,,,,,,,,,,,2,tumor,,,,,,224.22,227.469,1,0,2.698,,0,63,63,1,1,three_way_cognate,1,REAL,FALSA
,,,,,,,,,,001,2025-04-30_12h12.43.886,empathy_intonation_perc,2024.1.4,Win32,60.0240096,,,,,,,,,,,,,,59,feo,,,,,,227.47,229.218,1,0,1.214,,0,64,64,58,1,non_cognate,1,REAL,FALSA
,,,,,,,,,,001,2025-04-30_12h12.43.886,empathy_intonation_perc,2024.1.4,Win32,60.0240096,,,,,,,,,,,,,,127,vien,,,,,,229.22,231.169,1,0,1.408,,0,65,65,126,1,pseudoword,0,REAL,FALSA
,,,,,,,,,,001,2025-04-30_12h12.43.886,empathy_intonation_perc,2024.1.4,Win32,60.0240096,,,,,,,,,,,,,,110,densó,,,,,,231.17,234.469,1,0,2.746,,0,66,66,109,1,pseudoword,0,REAL,FALSA
,,,,,,,,,,001,2025-04-30_12h12.43.886,empathy_intonation_perc,2024.1.4,Win32,60.0240096,,,,,,,,,,,,,,129,vinzó,,,,,,234.469,236.37,0,1,1.364,,0,67,67,128,1,pseudoword,0,REAL,FALSA
,,,,,,,,,,001,2025-04-30_12h12.43.886,empathy_intonation_perc,2024.1.4,Win32,60.0240096,,,,,,,,,,,,,,77,suave,,,,,,236.373,237.936,1,0,1.026,,0,68,68,76,1,non_cognate,1,REAL,FALSA
,,,,,,,,,,001,2025-04-30_12h12.43.886,empathy_intonation_perc,2024.1.4,Win32,60.0240096,,,,,,,,,,,,,,162,cengo,,,,,,237.937,240.12,1,0,1.641,,0,69,69,161,1,pseudoword,0,REAL,FALSA
,,,,,,,,,,001,2025-04-30_12h12.43.886,empathy_intonation_perc,2024.1.4,Win32,60.0240096,,,,,,,,,,,,,,142,parre,,,,,,240.12,242.986,1,0,2.314,,0,70,70,141,1,pseudoword,0,REAL,FALSA
,,,,,,,,,,001,2025-04-30_12h12.43.886,empathy_intonation_perc,2024.1.4,Win32,60.0240096,,,,,,,,,,,,,,101,losco,,,,,,242.987,244.486,1,0,0.959,,0,71,71,100,1,pseudoword,0,REAL,FALSA
,,,,,,,,,,001,2025-04-30_12h12.43.886,empathy_intonation_perc,2024.1.4,Win32,60.0240096,,,,,,,,,,,,,,43,honor,,,,,,244.486,249.352,1,0,4.325,,0,72,72,42,1,two_way_cognate,1,REAL,FALSA
,,,,,,,,,,001,2025-04-30_12h12.43.886,empathy_intonation_perc,2024.1.4,Win32,60.0240096,,,,,,,,,,,,,,169,pitis,,,,,,249.353,251.036,0,1,1.136,,0,73,73,168,1,pseudoword,0,REAL,FALSA
,,,,,,,,,,001,2025-04-30_12h12.43.886,empathy_intonation_perc,2024.1.4,Win32,60.0240096,,,,,,,,,,,,,,124,lobe,,,,,,251.036,252.636,1,0,1.076,,0,74,74,123,1,pseudoword,0,REAL,FALSA
,,,,,,,,,,001,2025-04-30_12h12.43.886,empathy_intonation_perc,2024.1.4,Win32,60.0240096,,,,,,,,,,,,,,89,muñeca,,,,,,252.636,254.12,1,0,0.945,,0,75,75,88,1,non_cognate,1,REAL,FALSA
,,,,,,,,,,001,2025-04-30_12h12.43.886,empathy_intonation_perc,2024.1.4,Win32,60.0240096,,,,,,,,,,,,,,177,entodo,,,,,,254.121,256.402,1,0,1.746,,0,76,76,176,1,pseudoword,0,REAL,FALSA
,,,,,,,,,,001,2025-04-30_12h12.43.886,empathy_intonation_perc,2024.1.4,Win32,60.0240096,,,,,,,,,,,,,,126,tobre,,,,,,256.403,258.336,1,0,1.391,,0,77,77,125,1,pseudoword,0,REAL,FALSA
,,,,,,,,,,001,2025-04-30_12h12.43.886,empathy_intonation_perc,2024.1.4,Win32,60.0240096,,,,,,,,,,,,,,179,suelet,,,,,,258.337,260.52,0,1,1.632,,0,78,78,178,1,pseudoword,0,REAL,FALSA
,,,,,,,,,,001,2025-04-30_12h12.43.886,empathy_intonation_perc,2024.1.4,Win32,60.0240096,,,,,,,,,,,,,,87,muleta,,,,,,260.52,262.185,0,1,1.131,,0,79,79,86,1,non_cognate,1,REAL,FALSA
,,,,,,,,,,001,2025-04-30_12h12.43.886,empathy_intonation_perc,2024.1.4,Win32,60.0240096,,,,,,,,,,,,,,80,cuenco,,,,,,262.186,264.303,1,0,1.596,,0,80,80,79,1,non_cognate,1,REAL,FALSA
,,,,,,,,,,001,2025-04-30_12h12.43.886,empathy_intonation_perc,2024.1.4,Win32,60.0240096,,,,,,,,,,,,,,150,cricó,,,,,,264.303,267.502,1,0,2.657,,0,81,81,149,1,pseudoword,0,REAL,FALSA
,,,,,,,,,,001,2025-04-30_12h12.43.886,empathy_intonation_perc,2024.1.4,Win32,60.0240096,,,,,,,,,,,,,,97,nocita,,,,,,267.502,269.702,0,1,1.668,,0,82,82,96,1,pseudoword,0,REAL,FALSA
,,,,,,,,,,001,2025-04-30_12h12.43.886,empathy_intonation_perc,2024.1.4,Win32,60.0240096,,,,,,,,,,,,,,18,altar,,,,,,269.706,271.436,1,0,1.194,,0,83,83,17,1,three_way_cognate,1,REAL,FALSA
,,,,,,,,,,001,2025-04-30_12h12.43.886,empathy_intonation_perc,2024.1.4,Win32,60.0240096,,,,,,,,,,,,,,131,fuar,,,,,,271.437,272.969,1,0,1.002,,0,84,84,130,1,pseudoword,0,REAL,FALSA
,,,,,,,,,,001,2025-04-30_12h12.43.886,empathy_intonation_perc,2024.1.4,Win32,60.0240096,,,,,,,,,,,,,,7,albino,,,,,,272.969,277.286,1,0,3.782,,0,85,85,6,1,three_way_cognate,1,REAL,FALSA
,,,,,,,,,,001,2025-04-30_12h12.43.886,empathy_intonation_perc,2024.1.4,Win32,60.0240096,,,,,,,,,,,,,,117,morrá,,,,,,277.288,279.668,1,0,1.834,,0,86,86,116,1,pseudoword,0,REAL,FALSA
,,,,,,,,,,001,2025-04-30_12h12.43.886,empathy_intonation_perc,2024.1.4,Win32,60.0240096,,,,,,,,,,,,,,74,ala,,,,,,279.67,281.003,0,1,0.797,,0,87,87,73,1,non_cognate,1,REAL,FALSA
,,,,,,,,,,001,2025-04-30_12h12.43.886,empathy_intonation_perc,2024.1.4,Win32,60.0240096,,,,,,,,,,,,,,8,kilo,,,,,,281.004,282.92,1,0,1.382,,0,88,88,7,1,three_way_cognate,1,REAL,FALSA
,,,,,,,,,,001,2025-04-30_12h12.43.886,empathy_intonation_perc,2024.1.4,Win32,60.0240096,,,,,,,,,,,,,,159,trcia,,,,,,282.921,284.536,0,1,1.073,,0,89,89,158,1,pseudoword,0,REAL,FALSA
,,,,,,,,,,001,2025-04-30_12h12.43.886,empathy_intonation_perc,2024.1.4,Win32,60.0240096,,,,,,,,,,,,,,85,enorme,,,,,,284.537,287.019,0,1,1.937,,0,90,90,84,1,non_cognate,1,REAL,FALSA
,,,,,,,,,,001,2025-04-30_12h12.43.886,empathy_intonation_perc,2024.1.4,Win32,60.0240096,,,,,,,,,,,,,,163,llzan,,,,,,287.021,289.336,1,0,1.765,,0,91,91,162,1,pseudoword,0,REAL,FALSA
,,,,,,,,,,001,2025-04-30_12h12.43.886,empathy_intonation_perc,2024.1.4,Win32,60.0240096,,,,,,,,,,,,,,188,amplir,,,,,,289.336,291.202,1,0,1.345,,0,92,92,187,1,pseudoword,0,REAL,FALSA
,,,,,,,,,,001,2025-04-30_12h12.43.886,empathy_intonation_perc,2024.1.4,Win32,60.0240096,,,,,,,,,,,,,,172,dogue,,,,,,291.204,293.669,0,1,1.925,,0,93,93,171,1,pseudoword,0,REAL,FALSA
,,,,,,,,,,001,2025-04-30_12h12.43.886,empathy_intonation_perc,2024.1.4,Win32,60.0240096,,,,,,,,,,,,,,15,test,,,,,,293.67,296.102,1,0,1.899,,0,94,94,14,1,three_way_cognate,1,REAL,FALSA
,,,,,,,,,,001,2025-04-30_12h12.43.886,empathy_intonation_perc,2024.1.4,Win32,60.0240096,,,,,,,,,,,,,,107,plago,,,,,,296.104,298.269,0,1,1.616,,0,95,95,106,1,pseudoword,0,REAL,FALSA
,,,,,,,,,,001,2025-04-30_12h12.43.886,empathy_intonation_perc,2024.1.4,Win32,60.0240096,,,,,,,,,,,,,,146,gió,,,,,,298.27,301.736,0,1,2.938,,0,96,96,145,1,pseudoword,0,REAL,FALSA
,,,,,,,,,,001,2025-04-30_12h12.43.886,empathy_intonation_perc,2024.1.4,Win32,60.0240096,,,,,,,,,,,,,,16,chat,,,,,,301.736,305.471,1,0,3.209,,0,97,97,15,1,three_way_cognate,1,REAL,FALSA
,,,,,,,,,,001,2025-04-30_12h12.43.886,empathy_intonation_perc,2024.1.4,Win32,60.0240096,,,,,,,,,,,,,,154,harvé,,,,,,305.475,307.987,0,1,1.962,,0,98,98,153,1,pseudoword,0,REAL,FALSA
,,,,,,,,,,001,2025-04-30_12h12.43.886,empathy_intonation_perc,2024.1.4,Win32,60.0240096,,,,,,,,,,,,,,96,caro,,,,,,307.988,311.136,1,0,2.6,,0,99,99,95,1,non_cognate,1,REAL,FALSA
,,,,,,,,,,001,2025-04-30_12h12.43.886,empathy_intonation_perc,2024.1.4,Win32,60.0240096,,,,,,,,,,,,,,30,fiscal,,,,,,311.136,313.186,1,0,1.501,,0,100,100,29,1,two_way_cognate,1,REAL,FALSA
,,,,,,,,,,001,2025-04-30_12h12.43.886,empathy_intonation_perc,2024.1.4,Win32,60.0240096,,,,,,,,,,,,,,13,plan,,,,,,313.188,316.352,1,0,2.623,,0,101,101,12,1,three_way_cognate,1,REAL,FALSA
,,,,,,,,,,001,2025-04-30_12h12.43.886,empathy_intonation_perc,2024.1.4,Win32,60.0240096,,,,,,,,,,,,,,100,épinas,,,,,,316.354,318.236,0,1,1.331,,0,102,102,99,1,pseudoword,0,REAL,FALSA
,,,,,,,,,,001,2025-04-30_12h12.43.886,empathy_intonation_perc,2024.1.4,Win32,60.0240096,,,,,,,,,,,,,,20,trauma,,,,,,318.237,320.185,1,0,1.404,,0,103,103,19,1,three_way_cognate,1,REAL,FALSA
,,,,,,,,,,001,2025-04-30_12h12.43.886,empathy_intonation_perc,2024.1.4,Win32,60.0240096,,,,,,,,,,,,,,28,ardor,,,,,,320.186,322.319,1,0,1.605,,0,104,104,27,1,two_way_cognate,1,REAL,FALSA
,,,,,,,,,,001,2025-04-30_12h12.43.886,empathy_intonation_perc,2024.1.4,Win32,60.0240096,,,,,,,,,,,,,,48,pelvis,,,,,,322.32,323.869,0,1,1.009,,0,105,105,47,1,two_way_cognate,1,REAL,FALSA
,,,,,,,,,,001,2025-04-30_12h12.43.886,empathy_intonation_perc,2024.1.4,Win32,60.0240096,,,,,,,,,,,,,,25,vigor,,,,,,323.87,326.119,1,0,1.702,,0,106,106,24,1,two_way_cognate,1,REAL,FALSA
,,,,,,,,,,001,2025-04-30_12h12.43.886,empathy_intonation_perc,2024.1.4,Win32,60.0240096,,,,,,,,,,,,,,3,disco,,,,,,326.121,327.82,1,0,1.149,,0,107,107,2,1,three_way_cognate,1,REAL,FALSA
,,,,,,,,,,001,2025-04-30_12h12.43.886,empathy_intonation_perc,2024.1.4,Win32,60.0240096,,,,,,,,,,,,,,70,ánimo,,,,,,327.821,332.219,1,0,3.854,,0,108,108,69,1,non_cognate,1,REAL,FALSA
,,,,,,,,,,001,2025-04-30_12h12.43.886,empathy_intonation_perc,2024.1.4,Win32,60.0240096,,,,,,,,,,,,,,64,rizado,,,,,,332.221,335.586,0,1,2.827,,0,109,109,63,1,non_cognate,1,REAL,FALSA
,,,,,,,,,,001,2025-04-30_12h12.43.886,empathy_intonation_perc,2024.1.4,Win32,60.0240096,,,,,,,,,,,,,,21,hotel,,,,,,335.587,337.12,1,0,0.978,,0,110,110,20,1,three_way_cognate,1,REAL,FALSA
,,,,,,,,,,001,2025-04-30_12h12.43.886,empathy_intonation_perc,2024.1.4,Win32,60.0240096,,,,,,,,,,,,,,180,pupica,,,,,,337.123,339.803,1,0,2.13,,0,111,111,179,1,pseudoword,0,REAL,FALSA
,,,,,,,,,,001,2025-04-30_12h12.43.886,empathy_intonation_perc,2024.1.4,Win32,60.0240096,,,,,,,,,,,,,,152,prave,,,,,,339.803,341.286,1,0,0.933,,0,112,112,151,1,pseudoword,0,REAL,FALSA
,,,,,,,,,,001,2025-04-30_12h12.43.886,empathy_intonation_perc,2024.1.4,Win32,60.0240096,,,,,,,,,,,,,,113,nasce,,,,,,341.288,342.77,1,0,0.931,,0,113,113,112,1,pseudoword,0,REAL,FALSA
,,,,,,,,,,001,2025-04-30_12h12.43.886,empathy_intonation_perc,2024.1.4,Win32,60.0240096,,,,,,,,,,,,,,39,casual,,,,,,342.771,345.369,0,1,2.052,,0,114,114,38,1,two_way_cognate,1,REAL,FALSA
,,,,,,,,,,001,2025-04-30_12h12.43.886,empathy_intonation_perc,2024.1.4,Win32,60.0240096,,,,,,,,,,,,,,116,grigir,,,,,,345.37,347.436,0,1,1.531,,0,115,115,115,1,pseudoword,0,REAL,FALSA
,,,,,,,,,,001,2025-04-30_12h12.43.886,empathy_intonation_perc,2024.1.4,Win32,60.0240096,,,,,,,,,,,,,,151,prías,,,,,,347.437,349.57,0,1,1.592,,0,116,116,150,1,pseudoword,0,REAL,FALSA
,,,,,,,,,,001,2025-04-30_12h12.43.886,empathy_intonation_perc,2024.1.4,Win32,60.0240096,,,,,,,,,,,,,,139,sasos,,,,,,349.572,351.32,0,1,1.203,,0,117,117,138,1,pseudoword,0,REAL,FALSA
,,,,,,,,,,001,2025-04-30_12h12.43.886,empathy_intonation_perc,2024.1.4,Win32,60.0240096,,,,,,,,,,,,,,135,panté,,,,,,351.32,353.936,1,0,2.095,,0,118,118,134,1,pseudoword,0,REAL,FALSA
,,,,,,,,,,001,2025-04-30_12h12.43.886,empathy_intonation_perc,2024.1.4,Win32,60.0240096,,,,,,,,,,,,,,175,tradía,,,,,,353.937,355.553,1,0,1.074,,0,119,119,174,1,pseudoword,0,REAL,FALSA
,,,,,,,,,,001,2025-04-30_12h12.43.886,empathy_intonation_perc,2024.1.4,Win32,60.0240096,,,,,,,,,,,,,,45,total,,,,,,355.553,357.069,1,0,0.97,,0,120,120,44,1,two_way_cognate,1,REAL,FALSA
,,,,,,,,,,001,2025-04-30_12h12.43.886,empathy_intonation_perc,2024.1.4,Win32,60.0240096,,,,,,,,,,,,,,75,patada,,,,,,357.07,359.352,1,0,1.763,,0,121,121,74,1,non_cognate,1,REAL,FALSA
,,,,,,,,,,001,2025-04-30_12h12.43.886,empathy_intonation_perc,2024.1.4,Win32,60.0240096,,,,,,,,,,,,,,83,hálito,,,,,,359.354,364.103,0,1,4.211,,0,122,122,82,1,non_cognate,1,REAL,FALSA
,,,,,,,,,,001,2025-04-30_12h12.43.886,empathy_intonation_perc,2024.1.4,Win32,60.0240096,,,,,,,,,,,,,,119,esís,,,,,,364.103,366.303,1,0,1.652,,0,123,123,118,1,pseudoword,0,REAL,FALSA
,,,,,,,,,,001,2025-04-30_12h12.43.886,empathy_intonation_perc,2024.1.4,Win32,60.0240096,,,,,,,,,,,,,,36,viable,,,,,,366.303,368.253,1,0,1.393,,0,124,124,35,1,two_way_cognate,1,REAL,FALSA
,,,,,,,,,,001,2025-04-30_12h12.43.886,empathy_intonation_perc,2024.1.4,Win32,60.0240096,,,,,,,,,,,,,,58,colcha,,,,,,368.254,371.437,0,1,2.649,,0,125,125,57,1,non_cognate,1,REAL,FALSA
,,,,,,,,,,001,2025-04-30_12h12.43.886,empathy_intonation_perc,2024.1.4,Win32,60.0240096,,,,,,,,,,,,,,186,rizate,,,,,,371.44,373.02,0,1,1.042,,0,126,126,185,1,pseudoword,0,REAL,FALSA
,,,,,,,,,,001,2025-04-30_12h12.43.886,empathy_intonation_perc,2024.1.4,Win32,60.0240096,,,,,,,,,,,,,,166,anfia,,,,,,373.021,374.553,1,0,0.99,,0,127,127,165,1,pseudoword,0,REAL,FALSA
,,,,,,,,,,001,2025-04-30_12h12.43.886,empathy_intonation_perc,2024.1.4,Win32,60.0240096,,,,,,,,,,,,,,44,editor,,,,,,374.553,376.153,1,0,1.046,,0,128,128,43,1,two_way_cognate,1,REAL,FALSA
,,,,,,,,,,001,2025-04-30_12h12.43.886,empathy_intonation_perc,2024.1.4,Win32,60.0240096,,,,,,,,,,,,,,73,llevar,,,,,,376.153,377.736,1,0,1.031,,0,129,129,72,1,non_cognate,1,REAL,FALSA
,,,,,,,,,,001,2025-04-30_12h12.43.886,empathy_intonation_perc,2024.1.4,Win32,60.0240096,,,,,,,,,,,,,,182,desaro,,,,,,377.737,380.186,1,0,1.906,,0,130,130,181,1,pseudoword,0,REAL,FALSA
,,,,,,,,,,001,2025-04-30_12h12.43.886,empathy_intonation_perc,2024.1.4,Win32,60.0240096,,,,,,,,,,,,,,41,pasta,,,,,,380.188,387.02,0,1,6.298,,0,131,131,40,1,two_way_cognate,1,REAL,FALSA
,,,,,,,,,,001,2025-04-30_12h12.43.886,empathy_intonation_perc,2024.1.4,Win32,60.0240096,,,,,,,,,,,,,,60,siglo,,,,,,387.021,388.886,1,0,1.336,,0,132,132,59,1,non_cognate,1,REAL,FALSA
,,,,,,,,,,001,2025-04-30_12h12.43.886,empathy_intonation_perc,2024.1.4,Win32,60.0240096,,,,,,,,,,,,,,91,equipo,,,,,,388.887,390.703,1,0,1.276,,0,133,133,90,1,non_cognate,1,REAL,FALSA
,,,,,,,,,,001,2025-04-30_12h12.43.886,empathy_intonation_perc,2024.1.4,Win32,60.0240096,,,,,,,,,,,,,,35,aurora,,,,,,390.703,392.486,1,0,1.237,,0,134,134,34,1,two_way_cognate,1,REAL,FALSA
,,,,,,,,,,001,2025-04-30_12h12.43.886,empathy_intonation_perc,2024.1.4,Win32,60.0240096,,,,,,,,,,,,,,106,diebro,,,,,,392.486,394.486,1,0,1.452,,0,135,135,105,1,pseudoword,0,REAL,FALSA
,,,,,,,,,,001,2025-04-30_12h12.43.886,empathy_intonation_perc,2024.1.4,Win32,60.0240096,,,,,,,,,,,,,,109,laras,,,,,,394.488,395.97,0,1,0.939,,0,136,136,108,1,pseudoword,0,REAL,FALSA
,,,,,,,,,,001,2025-04-30_12h12.43.886,empathy_intonation_perc,2024.1.4,Win32,60.0240096,,,,,,,,,,,,,,76,chocar,,,,,,395.97,397.835,0,1,1.333,,0,137,137,75,1,non_cognate,1,REAL,FALSA
,,,,,,,,,,001,2025-04-30_12h12.43.886,empathy_intonation_perc,2024.1.4,Win32,60.0240096,,,,,,,,,,,,,,184,huenos,,,,,,397.836,399.385,1,0,1.011,,0,138,138,183,1,pseudoword,0,REAL,FALSA
,,,,,,,,,,001,2025-04-30_12h12.43.886,empathy_intonation_perc,2024.1.4,Win32,60.0240096,,,,,,,,,,,,,,11,golf,,,,,,399.386,401.503,1,0,1.6,,0,139,139,10,1,three_way_cognate,1,REAL,FALSA
,,,,,,,,,,001,2025-04-30_12h12.43.886,empathy_intonation_perc,2024.1.4,Win32,60.0240096,,,,,,,,,,,,,,46,mortal,,,,,,401.503,404.187,0,1,2.148,,0,140,140,45,1,two_way_cognate,1,REAL,FALSA
,,,,,,,,,,001,2025-04-30_12h12.43.886,empathy_intonation_perc,2024.1.4,Win32,60.0240096,,,,,,,,,,,,,,191,frasis,,,,,,404.19,407.504,1,0,2.783,,0,141,141,190,1,pseudoword,0,REAL,FALSA
,,,,,,,,,,001,2025-04-30_12h12.43.886,empathy_intonation_perc,2024.1.4,Win32,60.0240096,,,,,,,,,,,,,,84,aviso,,,,,,407.505,409.153,1,0,1.104,,0,142,142,83,1,non_cognate,1,REAL,FALSA
,,,,,,,,,,001,2025-04-30_12h12.43.886,empathy_intonation_perc,2024.1.4,Win32,60.0240096,,,,,,,,,,,,,,187,nomata,,,,,,409.154,411.053,1,0,1.353,,0,143,143,186,1,pseudoword,0,REAL,FALSA
,,,,,,,,,,001,2025-04-30_12h12.43.886,empathy_intonation_perc,2024.1.4,Win32,60.0240096,,,,,,,,,,,,,,161,civas,,,,,,411.053,412.82,1,0,1.216,,0,144,144,160,1,pseudoword,0,REAL,FALSA
,,,,,,,,,,001,2025-04-30_12h12.43.886,empathy_intonation_perc,2024.1.4,Win32,60.0240096,,,,,,,,,,,,,,90,venado,,,,,,412.82,415.32,1,0,1.967,,0,145,145,89,1,non_cognate,1,REAL,FALSA
,,,,,,,,,,001,2025-04-30_12h12.43.886,empathy_intonation_perc,2024.1.4,Win32,60.0240096,,,,,,,,,,,,,,54,tapón,,,,,,415.321,417.07,0,1,1.195,,0,146,146,53,1,non_cognate,1,REAL,FALSA
,,,,,,,,,,001,2025-04-30_12h12.43.886,empathy_intonation_perc,2024.1.4,Win32,60.0240096,,,,,,,,,,,,,,26,enigma,,,,,,417.071,419.086,1,0,1.473,,0,147,147,25,1,two_way_cognate,1,REAL,FALSA
,,,,,,,,,,001,2025-04-30_12h12.43.886,empathy_intonation_perc,2024.1.4,Win32,60.0240096,,,,,,,,,,,,,,168,cobén,,,,,,419.087,421.386,1,0,1.751,,0,148,148,167,1,pseudoword,0,REAL,FALSA
,,,,,,,,,,001,2025-04-30_12h12.43.886,empathy_intonation_perc,2024.1.4,Win32,60.0240096,,,,,,,,,,,,,,55,maldad,,,,,,421.387,427.485,0,1,5.557,,0,149,149,54,1,non_cognate,1,REAL,FALSA
,,,,,,,,,,001,2025-04-30_12h12.43.886,empathy_intonation_perc,2024.1.4,Win32,60.0240096,,,,,,,,,,,,,,111,monue,,,,,,427.486,428.786,0,1,0.761,,0,150,150,110,1,pseudoword,0,REAL,FALSA
,,,,,,,,,,001,2025-04-30_12h12.43.886,empathy_intonation_perc,2024.1.4,Win32,60.0240096,,,,,,,,,,,,,,185,aljizo,,,,,,428.787,431.336,1,0,2.009,,0,151,151,184,1,pseudoword,0,REAL,FALSA
,,,,,,,,,,001,2025-04-30_12h12.43.886,empathy_intonation_perc,2024.1.4,Win32,60.0240096,,,,,,,,,,,,,,141,virios,,,,,,431.337,433.204,1,0,1.315,,0,152,152,140,1,pseudoword,0,REAL,FALSA
,,,,,,,,,,001,2025-04-30_12h12.43.886,empathy_intonation_perc,2024.1.4,Win32,60.0240096,,,,,,,,,,,,,,144,diroco,,,,,,433.204,435.07,0,1,1.31,,0,153,153,143,1,pseudoword,0,REAL,FALSA
,,,,,,,,,,001,2025-04-30_12h12.43.886,empathy_intonation_perc,2024.1.4,Win32,60.0240096,,,,,,,,,,,,,,68,puñal,,,,,,435.071,436.636,1,0,1.019,,0,154,154,67,1,non_cognate,1,REAL,FALSA
,,,,,,,,,,001,2025-04-30_12h12.43.886,empathy_intonation_perc,2024.1.4,Win32,60.0240096,,,,,,,,,,,,,,66,aleta,,,,,,436.637,437.986,1,0,0.81,,0,155,155,65,1,non_cognate,1,REAL,FALSA
,,,,,,,,,,001,2025-04-30_12h12.43.886,empathy_intonation_perc,2024.1.4,Win32,60.0240096,,,,,,,,,,,,,,147,alla,,,,,,437.989,440.803,1,0,2.281,,0,156,156,146,1,pseudoword,0,REAL,FALSA
,,,,,,,,,,001,2025-04-30_12h12.43.886,empathy_intonation_perc,2024.1.4,Win32,60.0240096,,,,,,,,,,,,,,155,kugis,,,,,,440.805,444.804,0,1,3.447,,0,157,157,154,1,pseudoword,0,REAL,FALSA
,,,,,,,,,,001,2025-04-30_12h12.43.886,empathy_intonation_perc,2024.1.4,Win32,60.0240096,,,,,,,,,,,,,,176,gripar,,,,,,444.805,446.603,1,0,1.248,,0,158,158,175,1,pseudoword,0,REAL,FALSA
,,,,,,,,,,001,2025-04-30_12h12.43.886,empathy_intonation_perc,2024.1.4,Win32,60.0240096,,,,,,,,,,,,,,136,hueas,,,,,,446.605,448.703,1,0,1.562,,0,159,159,135,1,pseudoword,0,REAL,FALSA
,,,,,,,,,,001,2025-04-30_12h12.43.886,empathy_intonation_perc,2024.1.4,Win32,60.0240096,,,,,,,,,,,,,,171,gotro,,,,,,448.705,450.786,1,0,1.538,,0,160,160,170,1,pseudoword,0,REAL,FALSA
,,,,,,,,,,001,2025-04-30_12h12.43.886,empathy_intonation_perc,2024.1.4,Win32,60.0240096,,,,,,,,,,,,,,4,flora,,,,,,450.787,452.236,1,0,0.909,,0,161,161,3,1,three_way_cognate,1,REAL,FALSA
,,,,,,,,,,001,2025-04-30_12h12.43.886,empathy_intonation_perc,2024.1.4,Win32,60.0240096,,,,,,,,,,,,,,93,tapa,,,,,,452.237,455.27,1,0,2.485,,0,162,162,92,1,non_cognate,1,REAL,FALSA
,,,,,,,,,,001,2025-04-30_12h12.43.886,empathy_intonation_perc,2024.1.4,Win32,60.0240096,,,,,,,,,,,,,,27,piano,,,,,,455.271,458.187,0,1,2.367,,0,163,163,26,1,two_way_cognate,1,REAL,FALSA
,,,,,,,,,,001,2025-04-30_12h12.43.886,empathy_intonation_perc,2024.1.4,Win32,60.0240096,,,,,,,,,,,,,,23,plural,,,,,,458.188,460.453,1,0,1.728,,0,164,164,22,1,three_way_cognate,1,REAL,FALSA
,,,,,,,,,,001,2025-04-30_12h12.43.886,empathy_intonation_perc,2024.1.4,Win32,60.0240096,,,,,,,,,,,,,,47,color,,,,,,460.454,462.252,0,1,1.259,,0,165,165,46,1,two_way_cognate,1,REAL,FALSA
,,,,,,,,,,001,2025-04-30_12h12.43.886,empathy_intonation_perc,2024.1.4,Win32,60.0240096,,,,,,,,,,,,,,37,torso,,,,,,462.253,463.903,1,0,1.107,,0,166,166,36,1,two_way_cognate,1,REAL,FALSA
,,,,,,,,,,001,2025-04-30_12h12.43.886,empathy_intonation_perc,2024.1.4,Win32,60.0240096,,,,,,,,,,,,,,165,chote,,,,,,463.904,465.486,1,0,1.046,,0,167,167,164,1,pseudoword,0,REAL,FALSA
,,,,,,,,,,001,2025-04-30_12h12.43.886,empathy_intonation_perc,2024.1.4,Win32,60.0240096,,,,,,,,,,,,,,31,civil,,,,,,465.486,467.186,1,0,1.185,,0,168,168,30,1,two_way_cognate,1,REAL,FALSA
,,,,,,,,,,001,2025-04-30_12h12.43.886,empathy_intonation_perc,2024.1.4,Win32,60.0240096,,,,,,,,,,,,,,67,llamar,,,,,,467.186,468.637,1,0,0.913,,0,169,169,66,1,non_cognate,1,REAL,FALSA
,,,,,,,,,,001,2025-04-30_12h12.43.886,empathy_intonation_perc,2024.1.4,Win32,60.0240096,,,,,,,,,,,,,,140,chorde,,,,,,468.638,470.487,0,1,1.314,,0,170,170,139,1,pseudoword,0,REAL,FALSA
,,,,,,,,,,001,2025-04-30_12h12.43.886,empathy_intonation_perc,2024.1.4,Win32,60.0240096,,,,,,,,,,,,,,22,mango,,,,,,470.487,473.088,1,0,2.058,,0,171,171,21,1,three_way_cognate,1,REAL,FALSA
,,,,,,,,,,001,2025-04-30_12h12.43.886,empathy_intonation_perc,2024.1.4,Win32,60.0240096,,,,,,,,,,,,,,14,aura,,,,,,473.091,475.019,0,1,1.392,,0,172,172,13,1,three_way_cognate,1,REAL,FALSA
,,,,,,,,,,001,2025-04-30_12h12.43.886,empathy_intonation_perc,2024.1.4,Win32,60.0240096,,,,,,,,,,,,,,38,halo,,,,,,475.021,477.271,1,0,1.696,,0,173,173,37,1,two_way_cognate,1,REAL,FALSA
,,,,,,,,,,001,2025-04-30_12h12.43.886,empathy_intonation_perc,2024.1.4,Win32,60.0240096,,,,,,,,,,,,,,17,clan,,,,,,477.271,480.286,0,1,2.476,,0,174,174,16,1,three_way_cognate,1,REAL,FALSA
,,,,,,,,,,001,2025-04-30_12h12.43.886,empathy_intonation_perc,2024.1.4,Win32,60.0240096,,,,,,,,,,,,,,130,dubo,,,,,,480.288,483.186,0,1,2.35,,0,175,175,129,1,pseudoword,0,REAL,FALSA
,,,,,,,,,,001,2025-04-30_12h12.43.886,empathy_intonation_perc,2024.1.4,Win32,60.0240096,,,,,,,,,,,,,,167,dobbo,,,,,,483.186,484.921,1,0,1.196,,0,176,176,166,1,pseudoword,0,REAL,FALSA
,,,,,,,,,,001,2025-04-30_12h12.43.886,empathy_intonation_perc,2024.1.4,Win32,60.0240096,,,,,,,,,,,,,,120,mauja,,,,,,484.923,486.553,0,1,1.085,,0,177,177,119,1,pseudoword,0,REAL,FALSA
,,,,,,,,,,001,2025-04-30_12h12.43.886,empathy_intonation_perc,2024.1.4,Win32,60.0240096,,,,,,,,,,,,,,103,vueras,,,,,,486.554,487.886,1,0,0.778,,0,178,178,102,1,pseudoword,0,REAL,FALSA
,,,,,,,,,,001,2025-04-30_12h12.43.886,empathy_intonation_perc,2024.1.4,Win32,60.0240096,,,,,,,,,,,,,,82,brillo,,,,,,487.886,489.736,1,0,1.319,,0,179,179,81,1,non_cognate,1,REAL,FALSA
,,,,,,,,,,001,2025-04-30_12h12.43.886,empathy_intonation_perc,2024.1.4,Win32,60.0240096,,,,,,,,,,,,,,49,teñir,,,,,,489.737,491.171,1,0,0.9,,0,180,180,48,1,non_cognate,1,REAL,FALSA
,,,,,,,,,,001,2025-04-30_12h12.43.886,empathy_intonation_perc,2024.1.4,Win32,60.0240096,,,,,,,,,,,,,,181,gravés,,,,,,491.171,494.269,0,1,2.558,,0,181,181,180,1,pseudoword,0,REAL,FALSA
,,,,,,,,,,001,2025-04-30_12h12.43.886,empathy_intonation_perc,2024.1.4,Win32,60.0240096,,,,,,,,,,,,,,164,tecia,,,,,,494.27,497.286,0,1,2.489,,0,182,182,163,1,pseudoword,0,REAL,FALSA
,,,,,,,,,,001,2025-04-30_12h12.43.886,empathy_intonation_perc,2024.1.4,Win32,60.0240096,,,,,,,,,,,,,,65,guerra,,,,,,497.287,498.67,1,0,0.858,,0,183,183,64,1,non_cognate,1,REAL,FALSA
,,,,,,,,,,001,2025-04-30_12h12.43.886,empathy_intonation_perc,2024.1.4,Win32,60.0240096,,,,,,,,,,,,,,86,cuenco,,,,,,498.67,500.82,1,0,1.608,,0,184,184,85,1,non_cognate,1,REAL,FALSA
,,,,,,,,,,001,2025-04-30_12h12.43.886,empathy_intonation_perc,2024.1.4,Win32,60.0240096,,,,,,,,,,,,,,128,pelí,,,,,,500.82,503.903,0,1,2.572,,0,185,185,127,1,pseudoword,0,REAL,FALSA
,,,,,,,,,,001,2025-04-30_12h12.43.886,empathy_intonation_perc,2024.1.4,Win32,60.0240096,,,,,,,,,,,,,,62,pegar,,,,,,503.904,505.17,1,0,0.717,,0,186,186,61,1,non_cognate,1,REAL,FALSA
,,,,,,,,,,001,2025-04-30_12h12.43.886,empathy_intonation_perc,2024.1.4,Win32,60.0240096,,,,,,,,,,,,,,133,conso,,,,,,505.17,510.303,0,1,4.6,,0,187,187,132,1,pseudoword,0,REAL,FALSA
,,,,,,,,,,001,2025-04-30_12h12.43.886,empathy_intonation_perc,2024.1.4,Win32,60.0240096,,,,,,,,,,,,,,149,emén,,,,,,510.305,512.421,0,1,1.568,,0,188,188,148,1,pseudoword,0,REAL,FALSA
,,,,,,,,,,001,2025-04-30_12h12.43.886,empathy_intonation_perc,2024.1.4,Win32,60.0240096,,,,,,,,,,,,,,112,samón,,,,,,512.422,514.453,1,0,1.476,,0,189,189,111,1,pseudoword,0,REAL,FALSA
,,,,,,,,,,001,2025-04-30_12h12.43.886,empathy_intonation_perc,2024.1.4,Win32,60.0240096,,,,,,,,,,,,,,95,listo,,,,,,514.453,516.453,1,0,1.479,,0,190,190,94,1,non_cognate,1,REAL,FALSA
,,,,,,,,,,001,2025-04-30_12h12.43.886,empathy_intonation_perc,2024.1.4,Win32,60.0240096,,,,,,,,,,,,,,170,diabo,,,,,,516.454,518.654,1,0,1.653,,0,191,191,169,1,pseudoword,0,REAL,FALSA
