lextale_instructions.started,lextale_instructions.stopped,lextale_instructions_loop.thisRepN,lextale_instructions_loop.thisTrialN,lextale_instructions_loop.thisN,lextale_instructions_loop.thisIndex,lextale_instructions_loop.ran,instructions_text,continue_text,participant,session,date,expName,psychopyVersion,OS,frameRate,lextale_practice.started,lextale_practice.stopped,key_resp_lextale_practice.keys,key_resp_lextale_practice.corr,key_resp_lextale_practice.rt,key_resp_lextale_practice.duration,lextale_practice_feedback.started,lextale_practice_feedback.stopped,lextale_practice_trials.thisRepN,lextale_practice_trials.thisTrialN,lextale_practice_trials.thisN,lextale_practice_trials.thisIndex,lextale_practice_trials.ran,stim,word,correct_response,prac_button_real,prac_button_false,lextale_check.started,lextale_check.stopped,lextale_trial.started,lextale_trial.stopped,key_resp_lextale_trial.keys,key_resp_lextale_trial.corr,key_resp_lextale_trial.rt,key_resp_lextale_trial.duration,lextail_trials.thisRepN,lextail_trials.thisTrialN,lextail_trials.thisN,lextail_trials.thisIndex,lextail_trials.ran,type,correct_reponse,button_real,button_false
0.0053,6.9008,0,0,0,0,1,"Este es un test de vocabulario en español. 
  
  A continuación vas a ver 90 secuencias de letras que parecen 'españolas'.
  
  Solo algunas de ellas son palabras de verdad.",(presiona la barra espaciadora para continuar),,001,2025-05-08_16h52.06.578,empathy_intonation_perc,2024.1.4,Win32,60.60606061,,,,,,,,,,,,,,,,,,,,,,,,,,,,,,,,,,,
6.9022,29.7682,0,1,1,1,1,"Por favor, señala las palabras que tú conoces (aquellas que estás convencido que son palabras españolas, incluso aunque no seas capaz de dar el significado preciso).",(presiona la barra espaciadora para continuar),,001,2025-05-08_16h52.06.578,empathy_intonation_perc,2024.1.4,Win32,60.60606061,,,,,,,,,,,,,,,,,,,,,,,,,,,,,,,,,,,
29.7686,36.9681,0,2,2,2,1,Pero cuidado: los errores se penalizan. Por eso no tiene sentido tratar de incrementar tu puntuación marcando como reales palabras que nunca has visto.,(presiona la barra espaciadora para continuar),,001,2025-05-08_16h52.06.578,empathy_intonation_perc,2024.1.4,Win32,60.60606061,,,,,,,,,,,,,,,,,,,,,,,,,,,,,,,,,,,
36.9687,43.301,0,3,3,3,1,"Presiona la tecla 1 si piensas que es una palabra real y la tecla 
  0 si piensas que es una palabra falsa. 
  
  Vamos a practicar un poco...",(presiona la barra espaciadora para continuar),,001,2025-05-08_16h52.06.578,empathy_intonation_perc,2024.1.4,Win32,60.60606061,,,,,,,,,,,,,,,,,,,,,,,,,,,,,,,,,,,
,,,,,,,,,,001,2025-05-08_16h52.06.578,empathy_intonation_perc,2024.1.4,Win32,60.60606061,43.3048,47.0684,1,0,3.2304,,47.0688,48.068,0,0,0,0,1,0,depiste,0,REAL,FALSA,,,,,,,,,,,,,,,,,
,,,,,,,,,,001,2025-05-08_16h52.06.578,empathy_intonation_perc,2024.1.4,Win32,60.60606061,48.0688,49.7678,1,1,1.1559,,49.768,50.7681,0,1,1,1,1,0,sí,1,REAL,FALSA,,,,,,,,,,,,,,,,,
,,,,,,,,,,001,2025-05-08_16h52.06.578,empathy_intonation_perc,2024.1.4,Win32,60.60606061,50.7686,52.4509,0,1,1.1436,,52.4513,53.4511,0,2,2,2,1,0,coné,0,REAL,FALSA,,,,,,,,,,,,,,,,,
,,,,,,,,,,001,2025-05-08_16h52.06.578,empathy_intonation_perc,2024.1.4,Win32,60.60606061,53.4516,55.0013,0,1,1.0083,,55.0014,56.001,0,3,3,3,1,0,calpar,0,REAL,FALSA,,,,,,,,,,,,,,,,,
,,,,,,,,,,001,2025-05-08_16h52.06.578,empathy_intonation_perc,2024.1.4,Win32,60.60606061,56.0016,57.3855,0,1,0.8356,,57.3857,58.3846,0,4,4,4,1,0,joten,0,REAL,FALSA,,,,,,,,,,,,,,,,,
,,,,,,,,,,001,2025-05-08_16h52.06.578,empathy_intonation_perc,2024.1.4,Win32,60.60606061,58.3852,60.4184,1,1,1.4873,,60.4186,61.4186,0,5,5,5,1,0,sacapuntas,1,REAL,FALSA,,,,,,,,,,,,,,,,,
,,,,,,,,,,001,2025-05-08_16h52.06.578,empathy_intonation_perc,2024.1.4,Win32,60.60606061,61.4191,62.768,0,1,0.8051,,62.7682,63.7682,0,6,6,6,1,0,priba,0,REAL,FALSA,,,,,,,,,,,,,,,,,
,,,,,,,,,,001,2025-05-08_16h52.06.578,empathy_intonation_perc,2024.1.4,Win32,60.60606061,63.7688,65.2519,0,1,0.9361,,65.2523,66.2512,0,7,7,7,1,0,pelasula,0,REAL,FALSA,,,,,,,,,,,,,,,,,
,,,,,,,,,,001,2025-05-08_16h52.06.578,empathy_intonation_perc,2024.1.4,Win32,60.60606061,66.2521,67.5406,1,1,0.7513,,67.5407,68.5353,0,8,8,8,1,0,bien,1,REAL,FALSA,,,,,,,,,,,,,,,,,
,,,,,,,,,,001,2025-05-08_16h52.06.578,empathy_intonation_perc,2024.1.4,Win32,60.60606061,68.5359,69.6516,1,1,0.5749,,69.6517,70.6519,0,9,9,9,1,0,casa,1,REAL,FALSA,,,,,,,,,,,,,,,,,
,,,,,,,,,,001,2025-05-08_16h52.06.578,empathy_intonation_perc,2024.1.4,Win32,60.60606061,70.6526,72.3855,0,1,1.1877,,72.3855,73.3846,0,10,10,10,1,0,lejo,0,REAL,FALSA,,,,,,,,,,,,,,,,,
,,,,,,,,,,001,2025-05-08_16h52.06.578,empathy_intonation_perc,2024.1.4,Win32,60.60606061,73.3855,74.8019,0,1,0.8676,,74.802,75.8019,0,11,11,11,1,0,pretantas,0,REAL,FALSA,,,,,,,,,,,,,,,,,
,,,,,,,,,,001,2025-05-08_16h52.06.578,empathy_intonation_perc,2024.1.4,Win32,60.60606061,,,,,,,,,,,,,,,,,,,75.8023,77.1914,,,,,,,,,,,,,,,
,,,,,,,,,,001,2025-05-08_16h52.06.578,empathy_intonation_perc,2024.1.4,Win32,60.60606061,,,,,,,,,,,,,,142,parre,,,,,,77.1982,78.9855,0,1,1.2537,,0,0,0,141,1,pseudoword,0,REAL,FALSA
,,,,,,,,,,001,2025-05-08_16h52.06.578,empathy_intonation_perc,2024.1.4,Win32,60.60606061,,,,,,,,,,,,,,43,honor,,,,,,78.986,80.3183,1,0,0.7857,,0,1,1,42,1,two_way_cognate,1,REAL,FALSA
,,,,,,,,,,001,2025-05-08_16h52.06.578,empathy_intonation_perc,2024.1.4,Win32,60.60606061,,,,,,,,,,,,,,187,nomata,,,,,,80.3192,81.5697,0,1,0.7046,,0,2,2,186,1,pseudoword,0,REAL,FALSA
,,,,,,,,,,001,2025-05-08_16h52.06.578,empathy_intonation_perc,2024.1.4,Win32,60.60606061,,,,,,,,,,,,,,5,extra,,,,,,81.5707,82.7186,1,0,0.602,,0,3,3,4,1,three_way_cognate,1,REAL,FALSA
,,,,,,,,,,001,2025-05-08_16h52.06.578,empathy_intonation_perc,2024.1.4,Win32,60.60606061,,,,,,,,,,,,,,94,forro,,,,,,82.7194,84.1185,1,0,0.8521,,0,4,4,93,1,non_cognate,1,REAL,FALSA
,,,,,,,,,,001,2025-05-08_16h52.06.578,empathy_intonation_perc,2024.1.4,Win32,60.60606061,,,,,,,,,,,,,,177,entodo,,,,,,84.1191,85.9193,0,1,1.2519,,0,5,5,176,1,pseudoword,0,REAL,FALSA
,,,,,,,,,,001,2025-05-08_16h52.06.578,empathy_intonation_perc,2024.1.4,Win32,60.60606061,,,,,,,,,,,,,,122,boñaz,,,,,,85.9198,87.2859,0,1,0.8193,,0,6,6,121,1,pseudoword,0,REAL,FALSA
,,,,,,,,,,001,2025-05-08_16h52.06.578,empathy_intonation_perc,2024.1.4,Win32,60.60606061,,,,,,,,,,,,,,172,dogue,,,,,,87.2863,88.5843,0,1,0.7591,,0,7,7,171,1,pseudoword,0,REAL,FALSA
,,,,,,,,,,001,2025-05-08_16h52.06.578,empathy_intonation_perc,2024.1.4,Win32,60.60606061,,,,,,,,,,,,,,39,casual,,,,,,88.5852,89.769,1,0,0.6515,,0,8,8,38,1,two_way_cognate,1,REAL,FALSA
,,,,,,,,,,001,2025-05-08_16h52.06.578,empathy_intonation_perc,2024.1.4,Win32,60.60606061,,,,,,,,,,,,,,80,cuenco,,,,,,89.7696,91.3359,1,0,1.0198,,0,9,9,79,1,non_cognate,1,REAL,FALSA
,,,,,,,,,,001,2025-05-08_16h52.06.578,empathy_intonation_perc,2024.1.4,Win32,60.60606061,,,,,,,,,,,,,,17,clan,,,,,,91.3366,93.0024,1,0,1.1196,,0,10,10,16,1,three_way_cognate,1,REAL,FALSA
,,,,,,,,,,001,2025-05-08_16h52.06.578,empathy_intonation_perc,2024.1.4,Win32,60.60606061,,,,,,,,,,,,,,69,tiza,,,,,,93.0029,94.8189,1,0,1.2779,,0,11,11,68,1,non_cognate,1,REAL,FALSA
,,,,,,,,,,001,2025-05-08_16h52.06.578,empathy_intonation_perc,2024.1.4,Win32,60.60606061,,,,,,,,,,,,,,97,nocita,,,,,,94.8194,96.1183,0,1,0.7583,,0,12,12,96,1,pseudoword,0,REAL,FALSA
,,,,,,,,,,001,2025-05-08_16h52.06.578,empathy_intonation_perc,2024.1.4,Win32,60.60606061,,,,,,,,,,,,,,38,halo,,,,,,96.1193,98.8193,0,1,2.1531,,0,13,13,37,1,two_way_cognate,1,REAL,FALSA
,,,,,,,,,,001,2025-05-08_16h52.06.578,empathy_intonation_perc,2024.1.4,Win32,60.60606061,,,,,,,,,,,,,,34,actor,,,,,,98.8198,99.986,1,0,0.6205,,0,14,14,33,1,two_way_cognate,1,REAL,FALSA
,,,,,,,,,,001,2025-05-08_16h52.06.578,empathy_intonation_perc,2024.1.4,Win32,60.60606061,,,,,,,,,,,,,,158,babrá,,,,,,99.9864,101.4018,0,1,0.8689,,0,15,15,157,1,pseudoword,0,REAL,FALSA
,,,,,,,,,,001,2025-05-08_16h52.06.578,empathy_intonation_perc,2024.1.4,Win32,60.60606061,,,,,,,,,,,,,,175,tradía,,,,,,101.403,103.9184,0,1,1.9728,,0,16,16,174,1,pseudoword,0,REAL,FALSA
,,,,,,,,,,001,2025-05-08_16h52.06.578,empathy_intonation_perc,2024.1.4,Win32,60.60606061,,,,,,,,,,,,,,181,gravés,,,,,,103.9198,105.4195,0,1,0.9624,,0,17,17,180,1,pseudoword,0,REAL,FALSA
,,,,,,,,,,001,2025-05-08_16h52.06.578,empathy_intonation_perc,2024.1.4,Win32,60.60606061,,,,,,,,,,,,,,101,losco,,,,,,105.4202,106.652,0,1,0.6927,,0,18,18,100,1,pseudoword,0,REAL,FALSA
,,,,,,,,,,001,2025-05-08_16h52.06.578,empathy_intonation_perc,2024.1.4,Win32,60.60606061,,,,,,,,,,,,,,180,pupica,,,,,,106.6527,108.0027,0,1,0.8025,,0,19,19,179,1,pseudoword,0,REAL,FALSA
,,,,,,,,,,001,2025-05-08_16h52.06.578,empathy_intonation_perc,2024.1.4,Win32,60.60606061,,,,,,,,,,,,,,182,desaro,,,,,,108.0033,109.4026,0,1,0.8541,,0,20,20,181,1,pseudoword,0,REAL,FALSA
,,,,,,,,,,001,2025-05-08_16h52.06.578,empathy_intonation_perc,2024.1.4,Win32,60.60606061,,,,,,,,,,,,,,28,ardor,,,,,,109.4032,110.6182,0,1,0.6723,,0,21,21,27,1,two_way_cognate,1,REAL,FALSA
,,,,,,,,,,001,2025-05-08_16h52.06.578,empathy_intonation_perc,2024.1.4,Win32,60.60606061,,,,,,,,,,,,,,51,listo,,,,,,110.619,111.7522,1,0,0.5857,,0,22,22,50,1,non_cognate,1,REAL,FALSA
,,,,,,,,,,001,2025-05-08_16h52.06.578,empathy_intonation_perc,2024.1.4,Win32,60.60606061,,,,,,,,,,,,,,141,virios,,,,,,111.753,114.0413,0,1,1.7508,,0,23,23,140,1,pseudoword,0,REAL,FALSA
,,,,,,,,,,001,2025-05-08_16h52.06.578,empathy_intonation_perc,2024.1.4,Win32,60.60606061,,,,,,,,,,,,,,19,mafia,,,,,,114.0417,115.1697,1,0,0.5869,,0,24,24,18,1,three_way_cognate,1,REAL,FALSA
,,,,,,,,,,001,2025-05-08_16h52.06.578,empathy_intonation_perc,2024.1.4,Win32,60.60606061,,,,,,,,,,,,,,143,hurcos,,,,,,115.1702,116.4525,0,1,0.7423,,0,25,25,142,1,pseudoword,0,REAL,FALSA
,,,,,,,,,,001,2025-05-08_16h52.06.578,empathy_intonation_perc,2024.1.4,Win32,60.60606061,,,,,,,,,,,,,,37,torso,,,,,,116.4533,117.8356,1,0,0.8593,,0,26,26,36,1,two_way_cognate,1,REAL,FALSA
,,,,,,,,,,001,2025-05-08_16h52.06.578,empathy_intonation_perc,2024.1.4,Win32,60.60606061,,,,,,,,,,,,,,111,monue,,,,,,117.8365,119.1186,0,1,0.7446,,0,27,27,110,1,pseudoword,0,REAL,FALSA
,,,,,,,,,,001,2025-05-08_16h52.06.578,empathy_intonation_perc,2024.1.4,Win32,60.60606061,,,,,,,,,,,,,,118,bará,,,,,,119.1195,120.4019,0,1,0.734,,0,28,28,117,1,pseudoword,0,REAL,FALSA
,,,,,,,,,,001,2025-05-08_16h52.06.578,empathy_intonation_perc,2024.1.4,Win32,60.60606061,,,,,,,,,,,,,,130,dubo,,,,,,120.4027,122.0364,0,1,1.0855,,0,29,29,129,1,pseudoword,0,REAL,FALSA
,,,,,,,,,,001,2025-05-08_16h52.06.578,empathy_intonation_perc,2024.1.4,Win32,60.60606061,,,,,,,,,,,,,,4,flora,,,,,,122.037,123.1529,1,0,0.5688,,0,30,30,3,1,three_way_cognate,1,REAL,FALSA
,,,,,,,,,,001,2025-05-08_16h52.06.578,empathy_intonation_perc,2024.1.4,Win32,60.60606061,,,,,,,,,,,,,,60,siglo,,,,,,123.1535,124.4364,1,0,0.7376,,0,31,31,59,1,non_cognate,1,REAL,FALSA
,,,,,,,,,,001,2025-05-08_16h52.06.578,empathy_intonation_perc,2024.1.4,Win32,60.60606061,,,,,,,,,,,,,,29,clamor,,,,,,124.4371,125.7528,1,0,0.7691,,0,32,32,28,1,two_way_cognate,1,REAL,FALSA
,,,,,,,,,,001,2025-05-08_16h52.06.578,empathy_intonation_perc,2024.1.4,Win32,60.60606061,,,,,,,,,,,,,,116,grigir,,,,,,125.7535,127.0029,0,1,0.7061,,0,33,33,115,1,pseudoword,0,REAL,FALSA
,,,,,,,,,,001,2025-05-08_16h52.06.578,empathy_intonation_perc,2024.1.4,Win32,60.60606061,,,,,,,,,,,,,,27,piano,,,,,,127.0034,128.1866,1,0,0.6372,,0,34,34,26,1,two_way_cognate,1,REAL,FALSA
,,,,,,,,,,001,2025-05-08_16h52.06.578,empathy_intonation_perc,2024.1.4,Win32,60.60606061,,,,,,,,,,,,,,165,chote,,,,,,128.1872,129.7584,0,1,1.0509,,0,35,35,164,1,pseudoword,0,REAL,FALSA
,,,,,,,,,,001,2025-05-08_16h52.06.578,empathy_intonation_perc,2024.1.4,Win32,60.60606061,,,,,,,,,,,,,,114,dibrea,,,,,,129.7588,130.9753,0,1,0.6842,,0,36,36,113,1,pseudoword,0,REAL,FALSA
,,,,,,,,,,001,2025-05-08_16h52.06.578,empathy_intonation_perc,2024.1.4,Win32,60.60606061,,,,,,,,,,,,,,157,seled,,,,,,130.9758,132.2367,0,1,0.7186,,0,37,37,156,1,pseudoword,0,REAL,FALSA
,,,,,,,,,,001,2025-05-08_16h52.06.578,empathy_intonation_perc,2024.1.4,Win32,60.60606061,,,,,,,,,,,,,,48,pelvis,,,,,,132.2375,134.2695,1,0,1.4846,,0,38,38,47,1,two_way_cognate,1,REAL,FALSA
,,,,,,,,,,001,2025-05-08_16h52.06.578,empathy_intonation_perc,2024.1.4,Win32,60.60606061,,,,,,,,,,,,,,83,hálito,,,,,,134.2704,135.5536,0,1,0.7488,,0,39,39,82,1,non_cognate,1,REAL,FALSA
,,,,,,,,,,001,2025-05-08_16h52.06.578,empathy_intonation_perc,2024.1.4,Win32,60.60606061,,,,,,,,,,,,,,153,golla,,,,,,135.5543,137.4197,1,0,1.3198,,0,40,40,152,1,pseudoword,0,REAL,FALSA
,,,,,,,,,,001,2025-05-08_16h52.06.578,empathy_intonation_perc,2024.1.4,Win32,60.60606061,,,,,,,,,,,,,,167,dobbo,,,,,,137.4204,138.7368,0,1,0.7694,,0,41,41,166,1,pseudoword,0,REAL,FALSA
,,,,,,,,,,001,2025-05-08_16h52.06.578,empathy_intonation_perc,2024.1.4,Win32,60.60606061,,,,,,,,,,,,,,13,plan,,,,,,138.7375,140.0034,1,0,0.721,,0,42,42,12,1,three_way_cognate,1,REAL,FALSA
,,,,,,,,,,001,2025-05-08_16h52.06.578,empathy_intonation_perc,2024.1.4,Win32,60.60606061,,,,,,,,,,,,,,22,mango,,,,,,140.004,141.1198,1,0,0.5733,,0,43,43,21,1,three_way_cognate,1,REAL,FALSA
,,,,,,,,,,001,2025-05-08_16h52.06.578,empathy_intonation_perc,2024.1.4,Win32,60.60606061,,,,,,,,,,,,,,7,albino,,,,,,141.1204,142.3864,1,0,0.7278,,0,44,44,6,1,three_way_cognate,1,REAL,FALSA
,,,,,,,,,,001,2025-05-08_16h52.06.578,empathy_intonation_perc,2024.1.4,Win32,60.60606061,,,,,,,,,,,,,,91,equipo,,,,,,142.3872,143.5028,1,0,0.5757,,0,45,45,90,1,non_cognate,1,REAL,FALSA
,,,,,,,,,,001,2025-05-08_16h52.06.578,empathy_intonation_perc,2024.1.4,Win32,60.60606061,,,,,,,,,,,,,,12,dogma,,,,,,143.5036,144.7864,1,0,0.7362,,0,46,46,11,1,three_way_cognate,1,REAL,FALSA
,,,,,,,,,,001,2025-05-08_16h52.06.578,empathy_intonation_perc,2024.1.4,Win32,60.60606061,,,,,,,,,,,,,,148,gino,,,,,,144.7876,147.0421,0,1,1.7174,,0,47,47,147,1,pseudoword,0,REAL,FALSA
,,,,,,,,,,001,2025-05-08_16h52.06.578,empathy_intonation_perc,2024.1.4,Win32,60.60606061,,,,,,,,,,,,,,174,pabea,,,,,,147.0424,148.3025,0,1,0.722,,0,48,48,173,1,pseudoword,0,REAL,FALSA
,,,,,,,,,,001,2025-05-08_16h52.06.578,empathy_intonation_perc,2024.1.4,Win32,60.60606061,,,,,,,,,,,,,,77,suave,,,,,,148.3035,149.803,1,0,0.962,,0,49,49,76,1,non_cognate,1,REAL,FALSA
,,,,,,,,,,001,2025-05-08_16h52.06.578,empathy_intonation_perc,2024.1.4,Win32,60.60606061,,,,,,,,,,,,,,11,golf,,,,,,149.8036,150.9864,1,0,0.6348,,0,50,50,10,1,three_way_cognate,1,REAL,FALSA
,,,,,,,,,,001,2025-05-08_16h52.06.578,empathy_intonation_perc,2024.1.4,Win32,60.60606061,,,,,,,,,,,,,,65,guerra,,,,,,150.9871,152.1537,1,0,0.6192,,0,51,51,64,1,non_cognate,1,REAL,FALSA
,,,,,,,,,,001,2025-05-08_16h52.06.578,empathy_intonation_perc,2024.1.4,Win32,60.60606061,,,,,,,,,,,,,,98,martir,,,,,,152.1541,153.9223,1,0,1.2305,,0,52,52,97,1,pseudoword,0,REAL,FALSA
,,,,,,,,,,001,2025-05-08_16h52.06.578,empathy_intonation_perc,2024.1.4,Win32,60.60606061,,,,,,,,,,,,,,173,mibro,,,,,,153.9229,155.2364,0,1,0.7749,,0,53,53,172,1,pseudoword,0,REAL,FALSA
,,,,,,,,,,001,2025-05-08_16h52.06.578,empathy_intonation_perc,2024.1.4,Win32,60.60606061,,,,,,,,,,,,,,178,inichó,,,,,,155.2372,156.5358,0,1,0.75,,0,54,54,177,1,pseudoword,0,REAL,FALSA
,,,,,,,,,,001,2025-05-08_16h52.06.578,empathy_intonation_perc,2024.1.4,Win32,60.60606061,,,,,,,,,,,,,,25,vigor,,,,,,156.537,157.8196,1,0,0.7359,,0,55,55,24,1,two_way_cognate,1,REAL,FALSA
,,,,,,,,,,001,2025-05-08_16h52.06.578,empathy_intonation_perc,2024.1.4,Win32,60.60606061,,,,,,,,,,,,,,96,caro,,,,,,157.8207,158.9362,1,0,0.5703,,0,56,56,95,1,non_cognate,1,REAL,FALSA
,,,,,,,,,,001,2025-05-08_16h52.06.578,empathy_intonation_perc,2024.1.4,Win32,60.60606061,,,,,,,,,,,,,,103,vueras,,,,,,158.9371,160.2432,0,1,0.7684,,0,57,57,102,1,pseudoword,0,REAL,FALSA
,,,,,,,,,,001,2025-05-08_16h52.06.578,empathy_intonation_perc,2024.1.4,Win32,60.60606061,,,,,,,,,,,,,,45,total,,,,,,160.244,161.3591,1,0,0.5839,,0,58,58,44,1,two_way_cognate,1,REAL,FALSA
,,,,,,,,,,001,2025-05-08_16h52.06.578,empathy_intonation_perc,2024.1.4,Win32,60.60606061,,,,,,,,,,,,,,21,hotel,,,,,,161.3596,162.4035,1,0,0.503,,0,59,59,20,1,three_way_cognate,1,REAL,FALSA
,,,,,,,,,,001,2025-05-08_16h52.06.578,empathy_intonation_perc,2024.1.4,Win32,60.60606061,,,,,,,,,,,,,,61,aduana,,,,,,162.4041,163.6205,0,1,0.6694,,0,60,60,60,1,non_cognate,1,REAL,FALSA
,,,,,,,,,,001,2025-05-08_16h52.06.578,empathy_intonation_perc,2024.1.4,Win32,60.60606061,,,,,,,,,,,,,,10,drama,,,,,,163.621,164.9704,1,0,0.8036,,0,61,61,9,1,three_way_cognate,1,REAL,FALSA
,,,,,,,,,,001,2025-05-08_16h52.06.578,empathy_intonation_perc,2024.1.4,Win32,60.60606061,,,,,,,,,,,,,,88,percha,,,,,,164.9712,166.4874,1,0,0.974,,0,62,62,87,1,non_cognate,1,REAL,FALSA
,,,,,,,,,,001,2025-05-08_16h52.06.578,empathy_intonation_perc,2024.1.4,Win32,60.60606061,,,,,,,,,,,,,,3,disco,,,,,,166.4878,167.9081,1,0,0.8827,,0,63,63,2,1,three_way_cognate,1,REAL,FALSA
,,,,,,,,,,001,2025-05-08_16h52.06.578,empathy_intonation_perc,2024.1.4,Win32,60.60606061,,,,,,,,,,,,,,192,próces,,,,,,167.9086,169.121,1,0,0.6715,,0,64,64,191,1,pseudoword,0,REAL,FALSA
,,,,,,,,,,001,2025-05-08_16h52.06.578,empathy_intonation_perc,2024.1.4,Win32,60.60606061,,,,,,,,,,,,,,166,anfia,,,,,,169.1216,171.1873,0,1,1.5196,,0,65,65,165,1,pseudoword,0,REAL,FALSA
,,,,,,,,,,001,2025-05-08_16h52.06.578,empathy_intonation_perc,2024.1.4,Win32,60.60606061,,,,,,,,,,,,,,46,mortal,,,,,,171.188,172.3586,1,0,0.6333,,0,66,66,45,1,two_way_cognate,1,REAL,FALSA
,,,,,,,,,,001,2025-05-08_16h52.06.578,empathy_intonation_perc,2024.1.4,Win32,60.60606061,,,,,,,,,,,,,,154,harvé,,,,,,172.3592,173.7206,0,1,0.818,,0,67,67,153,1,pseudoword,0,REAL,FALSA
,,,,,,,,,,001,2025-05-08_16h52.06.578,empathy_intonation_perc,2024.1.4,Win32,60.60606061,,,,,,,,,,,,,,74,ala,,,,,,173.7214,175.1207,0,1,0.8611,,0,68,68,73,1,non_cognate,1,REAL,FALSA
,,,,,,,,,,001,2025-05-08_16h52.06.578,empathy_intonation_perc,2024.1.4,Win32,60.60606061,,,,,,,,,,,,,,102,coyo,,,,,,175.121,176.7415,0,1,1.0833,,0,69,69,101,1,pseudoword,0,REAL,FALSA
,,,,,,,,,,001,2025-05-08_16h52.06.578,empathy_intonation_perc,2024.1.4,Win32,60.60606061,,,,,,,,,,,,,,107,plago,,,,,,176.7417,178.237,0,1,0.9596,,0,70,70,106,1,pseudoword,0,REAL,FALSA
,,,,,,,,,,001,2025-05-08_16h52.06.578,empathy_intonation_perc,2024.1.4,Win32,60.60606061,,,,,,,,,,,,,,82,brillo,,,,,,178.2379,179.5549,1,0,0.7707,,0,71,71,81,1,non_cognate,1,REAL,FALSA
,,,,,,,,,,001,2025-05-08_16h52.06.578,empathy_intonation_perc,2024.1.4,Win32,60.60606061,,,,,,,,,,,,,,185,aljizo,,,,,,179.5554,180.8876,0,1,0.7893,,0,72,72,184,1,pseudoword,0,REAL,FALSA
,,,,,,,,,,001,2025-05-08_16h52.06.578,empathy_intonation_perc,2024.1.4,Win32,60.60606061,,,,,,,,,,,,,,41,pasta,,,,,,180.8881,182.0197,1,0,0.5891,,0,73,73,40,1,two_way_cognate,1,REAL,FALSA
,,,,,,,,,,001,2025-05-08_16h52.06.578,empathy_intonation_perc,2024.1.4,Win32,60.60606061,,,,,,,,,,,,,,44,editor,,,,,,182.0208,183.3212,1,0,0.7512,,0,74,74,43,1,two_way_cognate,1,REAL,FALSA
,,,,,,,,,,001,2025-05-08_16h52.06.578,empathy_intonation_perc,2024.1.4,Win32,60.60606061,,,,,,,,,,,,,,54,tapón,,,,,,183.3222,184.6875,0,1,0.8188,,0,75,75,53,1,non_cognate,1,REAL,FALSA
,,,,,,,,,,001,2025-05-08_16h52.06.578,empathy_intonation_perc,2024.1.4,Win32,60.60606061,,,,,,,,,,,,,,24,retina,,,,,,184.6883,185.9545,1,0,0.7176,,0,76,76,23,1,three_way_cognate,1,REAL,FALSA
,,,,,,,,,,001,2025-05-08_16h52.06.578,empathy_intonation_perc,2024.1.4,Win32,60.60606061,,,,,,,,,,,,,,6,horror,,,,,,185.955,188.0712,1,0,1.5735,,0,77,77,5,1,three_way_cognate,1,REAL,FALSA
,,,,,,,,,,001,2025-05-08_16h52.06.578,empathy_intonation_perc,2024.1.4,Win32,60.60606061,,,,,,,,,,,,,,16,chat,,,,,,188.072,189.3539,1,0,0.735,,0,78,78,15,1,three_way_cognate,1,REAL,FALSA
,,,,,,,,,,001,2025-05-08_16h52.06.578,empathy_intonation_perc,2024.1.4,Win32,60.60606061,,,,,,,,,,,,,,23,plural,,,,,,189.3548,190.4212,1,0,0.5204,,0,79,79,22,1,three_way_cognate,1,REAL,FALSA
,,,,,,,,,,001,2025-05-08_16h52.06.578,empathy_intonation_perc,2024.1.4,Win32,60.60606061,,,,,,,,,,,,,,168,cobén,,,,,,190.4217,191.6207,0,1,0.6518,,0,80,80,167,1,pseudoword,0,REAL,FALSA
,,,,,,,,,,001,2025-05-08_16h52.06.578,empathy_intonation_perc,2024.1.4,Win32,60.60606061,,,,,,,,,,,,,,84,aviso,,,,,,191.6215,192.8546,1,0,0.6836,,0,81,81,83,1,non_cognate,1,REAL,FALSA
,,,,,,,,,,001,2025-05-08_16h52.06.578,empathy_intonation_perc,2024.1.4,Win32,60.60606061,,,,,,,,,,,,,,81,sacar,,,,,,192.8548,194.0209,1,0,0.6285,,0,82,82,80,1,non_cognate,1,REAL,FALSA
,,,,,,,,,,001,2025-05-08_16h52.06.578,empathy_intonation_perc,2024.1.4,Win32,60.60606061,,,,,,,,,,,,,,56,pico,,,,,,194.0217,195.1716,1,0,0.6026,,0,83,83,55,1,non_cognate,1,REAL,FALSA
,,,,,,,,,,001,2025-05-08_16h52.06.578,empathy_intonation_perc,2024.1.4,Win32,60.60606061,,,,,,,,,,,,,,134,molor,,,,,,195.1722,196.354,0,1,0.6427,,0,84,84,133,1,pseudoword,0,REAL,FALSA
,,,,,,,,,,001,2025-05-08_16h52.06.578,empathy_intonation_perc,2024.1.4,Win32,60.60606061,,,,,,,,,,,,,,8,kilo,,,,,,196.3548,197.4931,1,0,0.6004,,0,85,85,7,1,three_way_cognate,1,REAL,FALSA
,,,,,,,,,,001,2025-05-08_16h52.06.578,empathy_intonation_perc,2024.1.4,Win32,60.60606061,,,,,,,,,,,,,,117,morrá,,,,,,197.4935,198.6881,0,1,0.652,,0,86,86,116,1,pseudoword,0,REAL,FALSA
,,,,,,,,,,001,2025-05-08_16h52.06.578,empathy_intonation_perc,2024.1.4,Win32,60.60606061,,,,,,,,,,,,,,109,laras,,,,,,198.6886,199.8375,0,1,0.6079,,0,87,87,108,1,pseudoword,0,REAL,FALSA
,,,,,,,,,,001,2025-05-08_16h52.06.578,empathy_intonation_perc,2024.1.4,Win32,60.60606061,,,,,,,,,,,,,,59,feo,,,,,,199.8383,201.0374,1,0,0.6519,,0,88,88,58,1,non_cognate,1,REAL,FALSA
,,,,,,,,,,001,2025-05-08_16h52.06.578,empathy_intonation_perc,2024.1.4,Win32,60.60606061,,,,,,,,,,,,,,123,arane,,,,,,201.0384,202.2875,0,1,0.7016,,0,89,89,122,1,pseudoword,0,REAL,FALSA
,,,,,,,,,,001,2025-05-08_16h52.06.578,empathy_intonation_perc,2024.1.4,Win32,60.60606061,,,,,,,,,,,,,,30,fiscal,,,,,,202.2884,203.7551,1,0,0.9188,,0,90,90,29,1,two_way_cognate,1,REAL,FALSA
,,,,,,,,,,001,2025-05-08_16h52.06.578,empathy_intonation_perc,2024.1.4,Win32,60.60606061,,,,,,,,,,,,,,20,trauma,,,,,,203.7554,204.9881,1,0,0.6941,,0,91,91,19,1,three_way_cognate,1,REAL,FALSA
,,,,,,,,,,001,2025-05-08_16h52.06.578,empathy_intonation_perc,2024.1.4,Win32,60.60606061,,,,,,,,,,,,,,160,fomeó,,,,,,204.9887,206.2055,0,1,0.6869,,0,92,92,159,1,pseudoword,0,REAL,FALSA
,,,,,,,,,,001,2025-05-08_16h52.06.578,empathy_intonation_perc,2024.1.4,Win32,60.60606061,,,,,,,,,,,,,,112,samón,,,,,,206.2061,207.3879,0,1,0.6342,,0,93,93,111,1,pseudoword,0,REAL,FALSA
,,,,,,,,,,001,2025-05-08_16h52.06.578,empathy_intonation_perc,2024.1.4,Win32,60.60606061,,,,,,,,,,,,,,189,medium,,,,,,207.3886,208.5875,1,0,0.6606,,0,94,94,188,1,pseudoword,0,REAL,FALSA
,,,,,,,,,,001,2025-05-08_16h52.06.578,empathy_intonation_perc,2024.1.4,Win32,60.60606061,,,,,,,,,,,,,,42,rumor,,,,,,208.5884,209.8415,1,0,0.7143,,0,95,95,41,1,two_way_cognate,1,REAL,FALSA
,,,,,,,,,,001,2025-05-08_16h52.06.578,empathy_intonation_perc,2024.1.4,Win32,60.60606061,,,,,,,,,,,,,,136,hueas,,,,,,209.842,211.072,0,1,0.6857,,0,96,96,135,1,pseudoword,0,REAL,FALSA
,,,,,,,,,,001,2025-05-08_16h52.06.578,empathy_intonation_perc,2024.1.4,Win32,60.60606061,,,,,,,,,,,,,,113,nasce,,,,,,211.0725,212.3553,0,1,0.7372,,0,97,97,112,1,pseudoword,0,REAL,FALSA
,,,,,,,,,,001,2025-05-08_16h52.06.578,empathy_intonation_perc,2024.1.4,Win32,60.60606061,,,,,,,,,,,,,,100,épinas,,,,,,212.3559,213.8376,0,1,0.9406,,0,98,98,99,1,pseudoword,0,REAL,FALSA
,,,,,,,,,,001,2025-05-08_16h52.06.578,empathy_intonation_perc,2024.1.4,Win32,60.60606061,,,,,,,,,,,,,,52,blando,,,,,,213.8384,215.0373,1,0,0.6677,,0,99,99,51,1,non_cognate,1,REAL,FALSA
,,,,,,,,,,001,2025-05-08_16h52.06.578,empathy_intonation_perc,2024.1.4,Win32,60.60606061,,,,,,,,,,,,,,129,vinzó,,,,,,215.0382,216.3231,0,1,0.7479,,0,100,100,128,1,pseudoword,0,REAL,FALSA
,,,,,,,,,,001,2025-05-08_16h52.06.578,empathy_intonation_perc,2024.1.4,Win32,60.60606061,,,,,,,,,,,,,,145,rúo,,,,,,216.3236,218.4044,0,1,1.5374,,0,101,101,144,1,pseudoword,0,REAL,FALSA
,,,,,,,,,,001,2025-05-08_16h52.06.578,empathy_intonation_perc,2024.1.4,Win32,60.60606061,,,,,,,,,,,,,,57,regalo,,,,,,218.4054,219.5379,1,0,0.5849,,0,102,102,56,1,non_cognate,1,REAL,FALSA
,,,,,,,,,,001,2025-05-08_16h52.06.578,empathy_intonation_perc,2024.1.4,Win32,60.60606061,,,,,,,,,,,,,,58,colcha,,,,,,219.5387,221.0875,0,1,1.0039,,0,103,103,57,1,non_cognate,1,REAL,FALSA
,,,,,,,,,,001,2025-05-08_16h52.06.578,empathy_intonation_perc,2024.1.4,Win32,60.60606061,,,,,,,,,,,,,,190,asumie,,,,,,221.0886,222.2884,0,1,0.656,,0,104,104,189,1,pseudoword,0,REAL,FALSA
,,,,,,,,,,001,2025-05-08_16h52.06.578,empathy_intonation_perc,2024.1.4,Win32,60.60606061,,,,,,,,,,,,,,137,trugo,,,,,,222.289,223.5221,0,1,0.6856,,0,105,105,136,1,pseudoword,0,REAL,FALSA
,,,,,,,,,,001,2025-05-08_16h52.06.578,empathy_intonation_perc,2024.1.4,Win32,60.60606061,,,,,,,,,,,,,,155,kugis,,,,,,223.5226,225.8376,0,1,1.7681,,0,106,106,154,1,pseudoword,0,REAL,FALSA
,,,,,,,,,,001,2025-05-08_16h52.06.578,empathy_intonation_perc,2024.1.4,Win32,60.60606061,,,,,,,,,,,,,,2,tumor,,,,,,225.8386,227.1226,1,0,0.7355,,0,107,107,1,1,three_way_cognate,1,REAL,FALSA
,,,,,,,,,,001,2025-05-08_16h52.06.578,empathy_intonation_perc,2024.1.4,Win32,60.60606061,,,,,,,,,,,,,,1,moral,,,,,,227.123,228.3057,1,0,0.6348,,0,108,108,0,1,three_way_cognate,1,REAL,FALSA
,,,,,,,,,,001,2025-05-08_16h52.06.578,empathy_intonation_perc,2024.1.4,Win32,60.60606061,,,,,,,,,,,,,,72,rostro,,,,,,228.3065,229.4378,1,0,0.5913,,0,109,109,71,1,non_cognate,1,REAL,FALSA
,,,,,,,,,,001,2025-05-08_16h52.06.578,empathy_intonation_perc,2024.1.4,Win32,60.60606061,,,,,,,,,,,,,,66,aleta,,,,,,229.4391,230.588,0,1,0.6101,,0,110,110,65,1,non_cognate,1,REAL,FALSA
,,,,,,,,,,001,2025-05-08_16h52.06.578,empathy_intonation_perc,2024.1.4,Win32,60.60606061,,,,,,,,,,,,,,75,patada,,,,,,230.589,232.0048,1,0,0.8764,,0,111,111,74,1,non_cognate,1,REAL,FALSA
,,,,,,,,,,001,2025-05-08_16h52.06.578,empathy_intonation_perc,2024.1.4,Win32,60.60606061,,,,,,,,,,,,,,188,amplir,,,,,,232.0059,233.7048,1,0,1.1535,,0,112,112,187,1,pseudoword,0,REAL,FALSA
,,,,,,,,,,001,2025-05-08_16h52.06.578,empathy_intonation_perc,2024.1.4,Win32,60.60606061,,,,,,,,,,,,,,55,maldad,,,,,,233.7057,235.039,1,0,0.7851,,0,113,113,54,1,non_cognate,1,REAL,FALSA
,,,,,,,,,,001,2025-05-08_16h52.06.578,empathy_intonation_perc,2024.1.4,Win32,60.60606061,,,,,,,,,,,,,,147,alla,,,,,,235.0395,236.6774,1,0,1.1007,,0,114,114,146,1,pseudoword,0,REAL,FALSA
,,,,,,,,,,001,2025-05-08_16h52.06.578,empathy_intonation_perc,2024.1.4,Win32,60.60606061,,,,,,,,,,,,,,164,tecia,,,,,,236.6779,238.0048,0,1,0.7931,,0,115,115,163,1,pseudoword,0,REAL,FALSA
,,,,,,,,,,001,2025-05-08_16h52.06.578,empathy_intonation_perc,2024.1.4,Win32,60.60606061,,,,,,,,,,,,,,159,trcia,,,,,,238.006,239.289,0,1,0.7382,,0,116,116,158,1,pseudoword,0,REAL,FALSA
,,,,,,,,,,001,2025-05-08_16h52.06.578,empathy_intonation_perc,2024.1.4,Win32,60.60606061,,,,,,,,,,,,,,131,fuar,,,,,,239.2897,240.8558,0,1,1.0186,,0,117,117,130,1,pseudoword,0,REAL,FALSA
,,,,,,,,,,001,2025-05-08_16h52.06.578,empathy_intonation_perc,2024.1.4,Win32,60.60606061,,,,,,,,,,,,,,85,enorme,,,,,,240.8565,242.039,1,0,0.6358,,0,118,118,84,1,non_cognate,1,REAL,FALSA
,,,,,,,,,,001,2025-05-08_16h52.06.578,empathy_intonation_perc,2024.1.4,Win32,60.60606061,,,,,,,,,,,,,,87,muleta,,,,,,242.0395,243.2886,0,1,0.7013,,0,119,119,86,1,non_cognate,1,REAL,FALSA
,,,,,,,,,,001,2025-05-08_16h52.06.578,empathy_intonation_perc,2024.1.4,Win32,60.60606061,,,,,,,,,,,,,,67,llamar,,,,,,243.2894,244.5059,1,0,0.6697,,0,120,120,66,1,non_cognate,1,REAL,FALSA
,,,,,,,,,,001,2025-05-08_16h52.06.578,empathy_intonation_perc,2024.1.4,Win32,60.60606061,,,,,,,,,,,,,,144,diroco,,,,,,244.5067,245.6883,0,1,0.6377,,0,121,121,143,1,pseudoword,0,REAL,FALSA
,,,,,,,,,,001,2025-05-08_16h52.06.578,empathy_intonation_perc,2024.1.4,Win32,60.60606061,,,,,,,,,,,,,,105,peniz,,,,,,245.6891,246.9226,0,1,0.6868,,0,122,122,104,1,pseudoword,0,REAL,FALSA
,,,,,,,,,,001,2025-05-08_16h52.06.578,empathy_intonation_perc,2024.1.4,Win32,60.60606061,,,,,,,,,,,,,,110,densó,,,,,,246.923,248.0893,0,1,0.621,,0,123,123,109,1,pseudoword,0,REAL,FALSA
,,,,,,,,,,001,2025-05-08_16h52.06.578,empathy_intonation_perc,2024.1.4,Win32,60.60606061,,,,,,,,,,,,,,53,punta,,,,,,248.0898,249.2886,1,0,0.6622,,0,124,124,52,1,non_cognate,1,REAL,FALSA
,,,,,,,,,,001,2025-05-08_16h52.06.578,empathy_intonation_perc,2024.1.4,Win32,60.60606061,,,,,,,,,,,,,,170,diabo,,,,,,249.2893,250.4723,0,1,0.635,,0,125,125,169,1,pseudoword,0,REAL,FALSA
,,,,,,,,,,001,2025-05-08_16h52.06.578,empathy_intonation_perc,2024.1.4,Win32,60.60606061,,,,,,,,,,,,,,139,sasos,,,,,,250.4732,251.7103,0,1,0.7,,0,126,126,138,1,pseudoword,0,REAL,FALSA
,,,,,,,,,,001,2025-05-08_16h52.06.578,empathy_intonation_perc,2024.1.4,Win32,60.60606061,,,,,,,,,,,,,,89,muñeca,,,,,,251.7107,252.9561,1,0,0.7016,,0,127,127,88,1,non_cognate,1,REAL,FALSA
,,,,,,,,,,001,2025-05-08_16h52.06.578,empathy_intonation_perc,2024.1.4,Win32,60.60606061,,,,,,,,,,,,,,146,gió,,,,,,252.9566,254.1719,0,1,0.6774,,0,128,128,145,1,pseudoword,0,REAL,FALSA
,,,,,,,,,,001,2025-05-08_16h52.06.578,empathy_intonation_perc,2024.1.4,Win32,60.60606061,,,,,,,,,,,,,,108,jauda,,,,,,254.1729,255.4101,0,1,0.716,,0,129,129,107,1,pseudoword,0,REAL,FALSA
,,,,,,,,,,001,2025-05-08_16h52.06.578,empathy_intonation_perc,2024.1.4,Win32,60.60606061,,,,,,,,,,,,,,127,vien,,,,,,255.4105,256.7896,0,1,0.8445,,0,130,130,126,1,pseudoword,0,REAL,FALSA
,,,,,,,,,,001,2025-05-08_16h52.06.578,empathy_intonation_perc,2024.1.4,Win32,60.60606061,,,,,,,,,,,,,,26,enigma,,,,,,256.7901,258.0392,1,0,0.7056,,0,131,131,25,1,two_way_cognate,1,REAL,FALSA
,,,,,,,,,,001,2025-05-08_16h52.06.578,empathy_intonation_perc,2024.1.4,Win32,60.60606061,,,,,,,,,,,,,,119,esís,,,,,,258.0397,259.1725,0,1,0.5948,,0,132,132,118,1,pseudoword,0,REAL,FALSA
,,,,,,,,,,001,2025-05-08_16h52.06.578,empathy_intonation_perc,2024.1.4,Win32,60.60606061,,,,,,,,,,,,,,33,collar,,,,,,259.1732,260.4063,1,0,0.6847,,0,133,133,32,1,two_way_cognate,1,REAL,FALSA
,,,,,,,,,,001,2025-05-08_16h52.06.578,empathy_intonation_perc,2024.1.4,Win32,60.60606061,,,,,,,,,,,,,,99,bugor,,,,,,260.4069,261.5561,0,1,0.6104,,0,134,134,98,1,pseudoword,0,REAL,FALSA
,,,,,,,,,,001,2025-05-08_16h52.06.578,empathy_intonation_perc,2024.1.4,Win32,60.60606061,,,,,,,,,,,,,,124,lobe,,,,,,261.5566,262.7892,0,1,0.6863,,0,135,135,123,1,pseudoword,0,REAL,FALSA
,,,,,,,,,,001,2025-05-08_16h52.06.578,empathy_intonation_perc,2024.1.4,Win32,60.60606061,,,,,,,,,,,,,,162,cengo,,,,,,262.7899,264.0563,0,1,0.7182,,0,136,136,161,1,pseudoword,0,REAL,FALSA
,,,,,,,,,,001,2025-05-08_16h52.06.578,empathy_intonation_perc,2024.1.4,Win32,60.60606061,,,,,,,,,,,,,,140,chorde,,,,,,264.0572,265.5388,0,1,0.9359,,0,137,137,139,1,pseudoword,0,REAL,FALSA
,,,,,,,,,,001,2025-05-08_16h52.06.578,empathy_intonation_perc,2024.1.4,Win32,60.60606061,,,,,,,,,,,,,,36,viable,,,,,,265.5397,266.9389,1,0,0.8542,,0,138,138,35,1,two_way_cognate,1,REAL,FALSA
,,,,,,,,,,001,2025-05-08_16h52.06.578,empathy_intonation_perc,2024.1.4,Win32,60.60606061,,,,,,,,,,,,,,152,prave,,,,,,266.9397,268.2227,0,1,0.7353,,0,139,139,151,1,pseudoword,0,REAL,FALSA
,,,,,,,,,,001,2025-05-08_16h52.06.578,empathy_intonation_perc,2024.1.4,Win32,60.60606061,,,,,,,,,,,,,,62,pegar,,,,,,268.2233,269.6903,1,0,0.9181,,0,140,140,61,1,non_cognate,1,REAL,FALSA
,,,,,,,,,,001,2025-05-08_16h52.06.578,empathy_intonation_perc,2024.1.4,Win32,60.60606061,,,,,,,,,,,,,,79,suelo,,,,,,269.6908,270.8895,1,0,0.6547,,0,141,141,78,1,non_cognate,1,REAL,FALSA
,,,,,,,,,,001,2025-05-08_16h52.06.578,empathy_intonation_perc,2024.1.4,Win32,60.60606061,,,,,,,,,,,,,,92,flecha,,,,,,270.8901,272.123,0,1,0.689,,0,142,142,91,1,non_cognate,1,REAL,FALSA
,,,,,,,,,,001,2025-05-08_16h52.06.578,empathy_intonation_perc,2024.1.4,Win32,60.60606061,,,,,,,,,,,,,,161,civas,,,,,,272.1235,273.5388,0,1,0.8772,,0,143,143,160,1,pseudoword,0,REAL,FALSA
,,,,,,,,,,001,2025-05-08_16h52.06.578,empathy_intonation_perc,2024.1.4,Win32,60.60606061,,,,,,,,,,,,,,18,altar,,,,,,273.5397,274.9566,1,0,0.8683,,0,144,144,17,1,three_way_cognate,1,REAL,FALSA
,,,,,,,,,,001,2025-05-08_16h52.06.578,empathy_intonation_perc,2024.1.4,Win32,60.60606061,,,,,,,,,,,,,,133,conso,,,,,,274.9571,276.2566,0,1,0.7571,,0,145,145,132,1,pseudoword,0,REAL,FALSA
,,,,,,,,,,001,2025-05-08_16h52.06.578,empathy_intonation_perc,2024.1.4,Win32,60.60606061,,,,,,,,,,,,,,149,emén,,,,,,276.2572,277.4398,0,1,0.6401,,0,146,146,148,1,pseudoword,0,REAL,FALSA
,,,,,,,,,,001,2025-05-08_16h52.06.578,empathy_intonation_perc,2024.1.4,Win32,60.60606061,,,,,,,,,,,,,,63,hilo,,,,,,277.4404,278.6389,0,1,0.6548,,0,147,147,62,1,non_cognate,1,REAL,FALSA
,,,,,,,,,,001,2025-05-08_16h52.06.578,empathy_intonation_perc,2024.1.4,Win32,60.60606061,,,,,,,,,,,,,,106,diebro,,,,,,278.64,279.806,0,1,0.6182,,0,148,148,105,1,pseudoword,0,REAL,FALSA
,,,,,,,,,,001,2025-05-08_16h52.06.578,empathy_intonation_perc,2024.1.4,Win32,60.60606061,,,,,,,,,,,,,,9,portal,,,,,,279.8069,280.9389,1,0,0.5927,,0,149,149,8,1,three_way_cognate,1,REAL,FALSA
,,,,,,,,,,001,2025-05-08_16h52.06.578,empathy_intonation_perc,2024.1.4,Win32,60.60606061,,,,,,,,,,,,,,50,sierra,,,,,,280.9398,282.0733,1,0,0.5857,,0,150,150,49,1,non_cognate,1,REAL,FALSA
,,,,,,,,,,001,2025-05-08_16h52.06.578,empathy_intonation_perc,2024.1.4,Win32,60.60606061,,,,,,,,,,,,,,150,cricó,,,,,,282.074,283.3235,0,1,0.7012,,0,151,151,149,1,pseudoword,0,REAL,FALSA
,,,,,,,,,,001,2025-05-08_16h52.06.578,empathy_intonation_perc,2024.1.4,Win32,60.60606061,,,,,,,,,,,,,,31,civil,,,,,,283.3239,284.5058,1,0,0.6342,,0,152,152,30,1,two_way_cognate,1,REAL,FALSA
,,,,,,,,,,001,2025-05-08_16h52.06.578,empathy_intonation_perc,2024.1.4,Win32,60.60606061,,,,,,,,,,,,,,163,llzan,,,,,,284.5067,285.9571,0,1,0.903,,0,153,153,162,1,pseudoword,0,REAL,FALSA
,,,,,,,,,,001,2025-05-08_16h52.06.578,empathy_intonation_perc,2024.1.4,Win32,60.60606061,,,,,,,,,,,,,,183,edioso,,,,,,285.9577,287.2448,0,1,0.7507,,0,154,154,182,1,pseudoword,0,REAL,FALSA
,,,,,,,,,,001,2025-05-08_16h52.06.578,empathy_intonation_perc,2024.1.4,Win32,60.60606061,,,,,,,,,,,,,,179,suelet,,,,,,287.2453,288.3731,0,1,0.6027,,0,155,155,178,1,pseudoword,0,REAL,FALSA
,,,,,,,,,,001,2025-05-08_16h52.06.578,empathy_intonation_perc,2024.1.4,Win32,60.60606061,,,,,,,,,,,,,,120,mauja,,,,,,288.3738,289.4897,0,1,0.5688,,0,156,156,119,1,pseudoword,0,REAL,FALSA
,,,,,,,,,,001,2025-05-08_16h52.06.578,empathy_intonation_perc,2024.1.4,Win32,60.60606061,,,,,,,,,,,,,,73,llevar,,,,,,289.4906,290.5897,1,0,0.5578,,0,157,157,72,1,non_cognate,1,REAL,FALSA
,,,,,,,,,,001,2025-05-08_16h52.06.578,empathy_intonation_perc,2024.1.4,Win32,60.60606061,,,,,,,,,,,,,,86,cuenco,,,,,,290.5907,291.7902,1,0,0.6513,,0,158,158,85,1,non_cognate,1,REAL,FALSA
,,,,,,,,,,001,2025-05-08_16h52.06.578,empathy_intonation_perc,2024.1.4,Win32,60.60606061,,,,,,,,,,,,,,151,prías,,,,,,291.7908,292.9239,1,0,0.5884,,0,159,159,150,1,pseudoword,0,REAL,FALSA
,,,,,,,,,,001,2025-05-08_16h52.06.578,empathy_intonation_perc,2024.1.4,Win32,60.60606061,,,,,,,,,,,,,,47,color,,,,,,292.925,294.1235,1,0,0.6532,,0,160,160,46,1,two_way_cognate,1,REAL,FALSA
,,,,,,,,,,001,2025-05-08_16h52.06.578,empathy_intonation_perc,2024.1.4,Win32,60.60606061,,,,,,,,,,,,,,126,tobre,,,,,,294.1241,295.2892,0,1,0.6195,,0,161,161,125,1,pseudoword,0,REAL,FALSA
,,,,,,,,,,001,2025-05-08_16h52.06.578,empathy_intonation_perc,2024.1.4,Win32,60.60606061,,,,,,,,,,,,,,104,estulo,,,,,,295.2903,296.5398,0,1,0.7052,,0,162,162,103,1,pseudoword,0,REAL,FALSA
,,,,,,,,,,001,2025-05-08_16h52.06.578,empathy_intonation_perc,2024.1.4,Win32,60.60606061,,,,,,,,,,,,,,186,rizate,,,,,,296.5408,297.6404,0,1,0.5538,,0,163,163,185,1,pseudoword,0,REAL,FALSA
,,,,,,,,,,001,2025-05-08_16h52.06.578,empathy_intonation_perc,2024.1.4,Win32,60.60606061,,,,,,,,,,,,,,76,chocar,,,,,,297.6409,298.8239,0,1,0.6396,,0,164,164,75,1,non_cognate,1,REAL,FALSA
,,,,,,,,,,001,2025-05-08_16h52.06.578,empathy_intonation_perc,2024.1.4,Win32,60.60606061,,,,,,,,,,,,,,90,venado,,,,,,298.8242,300.1736,0,1,0.801,,0,165,165,89,1,non_cognate,1,REAL,FALSA
,,,,,,,,,,001,2025-05-08_16h52.06.578,empathy_intonation_perc,2024.1.4,Win32,60.60606061,,,,,,,,,,,,,,135,panté,,,,,,300.1745,301.324,0,1,0.604,,0,166,166,134,1,pseudoword,0,REAL,FALSA
,,,,,,,,,,001,2025-05-08_16h52.06.578,empathy_intonation_perc,2024.1.4,Win32,60.60606061,,,,,,,,,,,,,,156,ozoso,,,,,,301.3245,302.5066,0,1,0.6416,,0,167,167,155,1,pseudoword,0,REAL,FALSA
,,,,,,,,,,001,2025-05-08_16h52.06.578,empathy_intonation_perc,2024.1.4,Win32,60.60606061,,,,,,,,,,,,,,70,ánimo,,,,,,302.5073,303.5572,1,0,0.5189,,0,168,168,69,1,non_cognate,1,REAL,FALSA
,,,,,,,,,,001,2025-05-08_16h52.06.578,empathy_intonation_perc,2024.1.4,Win32,60.60606061,,,,,,,,,,,,,,32,animal,,,,,,303.5578,304.7741,1,0,0.6689,,0,169,169,31,1,two_way_cognate,1,REAL,FALSA
,,,,,,,,,,001,2025-05-08_16h52.06.578,empathy_intonation_perc,2024.1.4,Win32,60.60606061,,,,,,,,,,,,,,176,gripar,,,,,,304.7748,306.2742,0,1,0.951,,0,170,170,175,1,pseudoword,0,REAL,FALSA
,,,,,,,,,,001,2025-05-08_16h52.06.578,empathy_intonation_perc,2024.1.4,Win32,60.60606061,,,,,,,,,,,,,,15,test,,,,,,306.2747,307.4782,1,0,0.6663,,0,171,171,14,1,three_way_cognate,1,REAL,FALSA
,,,,,,,,,,001,2025-05-08_16h52.06.578,empathy_intonation_perc,2024.1.4,Win32,60.60606061,,,,,,,,,,,,,,93,tapa,,,,,,307.4787,308.7565,1,0,0.7354,,0,172,172,92,1,non_cognate,1,REAL,FALSA
,,,,,,,,,,001,2025-05-08_16h52.06.578,empathy_intonation_perc,2024.1.4,Win32,60.60606061,,,,,,,,,,,,,,95,listo,,,,,,308.7575,309.8573,1,0,0.5525,,0,173,173,94,1,non_cognate,1,REAL,FALSA
,,,,,,,,,,001,2025-05-08_16h52.06.578,empathy_intonation_perc,2024.1.4,Win32,60.60606061,,,,,,,,,,,,,,132,nocó,,,,,,309.8578,311.0281,0,1,0.633,,0,174,174,131,1,pseudoword,0,REAL,FALSA
,,,,,,,,,,001,2025-05-08_16h52.06.578,empathy_intonation_perc,2024.1.4,Win32,60.60606061,,,,,,,,,,,,,,169,pitis,,,,,,311.0285,312.2408,0,1,0.6731,,0,175,175,168,1,pseudoword,0,REAL,FALSA
,,,,,,,,,,001,2025-05-08_16h52.06.578,empathy_intonation_perc,2024.1.4,Win32,60.60606061,,,,,,,,,,,,,,49,teñir,,,,,,312.2413,313.4406,0,1,0.6544,,0,176,176,48,1,non_cognate,1,REAL,FALSA
,,,,,,,,,,001,2025-05-08_16h52.06.578,empathy_intonation_perc,2024.1.4,Win32,60.60606061,,,,,,,,,,,,,,115,lidena,,,,,,313.4413,314.6741,0,1,0.6867,,0,177,177,114,1,pseudoword,0,REAL,FALSA
,,,,,,,,,,001,2025-05-08_16h52.06.578,empathy_intonation_perc,2024.1.4,Win32,60.60606061,,,,,,,,,,,,,,171,gotro,,,,,,314.6743,315.9565,0,1,0.7423,,0,178,178,170,1,pseudoword,0,REAL,FALSA
,,,,,,,,,,001,2025-05-08_16h52.06.578,empathy_intonation_perc,2024.1.4,Win32,60.60606061,,,,,,,,,,,,,,35,aurora,,,,,,315.9574,317.0905,1,0,0.5926,,0,179,179,34,1,two_way_cognate,1,REAL,FALSA
,,,,,,,,,,001,2025-05-08_16h52.06.578,empathy_intonation_perc,2024.1.4,Win32,60.60606061,,,,,,,,,,,,,,184,huenos,,,,,,317.0913,318.2907,0,1,0.6526,,0,180,180,183,1,pseudoword,0,REAL,FALSA
,,,,,,,,,,001,2025-05-08_16h52.06.578,empathy_intonation_perc,2024.1.4,Win32,60.60606061,,,,,,,,,,,,,,121,barbs,,,,,,318.2914,319.4569,0,1,0.6209,,0,181,181,120,1,pseudoword,0,REAL,FALSA
,,,,,,,,,,001,2025-05-08_16h52.06.578,empathy_intonation_perc,2024.1.4,Win32,60.60606061,,,,,,,,,,,,,,64,rizado,,,,,,319.4576,321.2073,0,1,1.2068,,0,182,182,63,1,non_cognate,1,REAL,FALSA
,,,,,,,,,,001,2025-05-08_16h52.06.578,empathy_intonation_perc,2024.1.4,Win32,60.60606061,,,,,,,,,,,,,,78,rendir,,,,,,321.2082,322.4074,1,0,0.6511,,0,183,183,77,1,non_cognate,1,REAL,FALSA
,,,,,,,,,,001,2025-05-08_16h52.06.578,empathy_intonation_perc,2024.1.4,Win32,60.60606061,,,,,,,,,,,,,,191,frasis,,,,,,322.4085,323.6241,0,1,0.6725,,0,184,184,190,1,pseudoword,0,REAL,FALSA
,,,,,,,,,,001,2025-05-08_16h52.06.578,empathy_intonation_perc,2024.1.4,Win32,60.60606061,,,,,,,,,,,,,,14,aura,,,,,,323.6248,325.0077,1,0,0.8442,,0,185,185,13,1,three_way_cognate,1,REAL,FALSA
,,,,,,,,,,001,2025-05-08_16h52.06.578,empathy_intonation_perc,2024.1.4,Win32,60.60606061,,,,,,,,,,,,,,68,puñal,,,,,,325.0082,326.2072,0,1,0.6515,,0,186,186,67,1,non_cognate,1,REAL,FALSA
,,,,,,,,,,001,2025-05-08_16h52.06.578,empathy_intonation_perc,2024.1.4,Win32,60.60606061,,,,,,,,,,,,,,125,ceme,,,,,,326.2079,327.4904,0,1,0.7349,,0,187,187,124,1,pseudoword,0,REAL,FALSA
,,,,,,,,,,001,2025-05-08_16h52.06.578,empathy_intonation_perc,2024.1.4,Win32,60.60606061,,,,,,,,,,,,,,128,pelí,,,,,,327.4913,328.6576,0,1,0.6186,,0,188,188,127,1,pseudoword,0,REAL,FALSA
,,,,,,,,,,001,2025-05-08_16h52.06.578,empathy_intonation_perc,2024.1.4,Win32,60.60606061,,,,,,,,,,,,,,40,pelvis,,,,,,328.6584,330.0075,0,1,0.8021,,0,189,189,39,1,two_way_cognate,1,REAL,FALSA
,,,,,,,,,,001,2025-05-08_16h52.06.578,empathy_intonation_perc,2024.1.4,Win32,60.60606061,,,,,,,,,,,,,,138,tator,,,,,,330.0082,331.3574,0,1,0.8024,,0,190,190,137,1,pseudoword,0,REAL,FALSA
,,,,,,,,,,001,2025-05-08_16h52.06.578,empathy_intonation_perc,2024.1.4,Win32,60.60606061,,,,,,,,,,,,,,71,torta,,,,,,331.3583,332.6244,1,0,0.719,,0,191,191,70,1,non_cognate,1,REAL,FALSA
