lextale_instructions.started,lextale_instructions.stopped,lextale_instructions_loop.thisRepN,lextale_instructions_loop.thisTrialN,lextale_instructions_loop.thisN,lextale_instructions_loop.thisIndex,lextale_instructions_loop.ran,instructions_text,continue_text,participant,session,date,expName,psychopyVersion,OS,frameRate,lextale_practice.started,lextale_practice.stopped,key_resp_lextale_practice.keys,key_resp_lextale_practice.corr,key_resp_lextale_practice.rt,key_resp_lextale_practice.duration,lextale_practice_feedback.started,lextale_practice_feedback.stopped,lextale_practice_trials.thisRepN,lextale_practice_trials.thisTrialN,lextale_practice_trials.thisN,lextale_practice_trials.thisIndex,lextale_practice_trials.ran,stim,word,correct_response,prac_button_real,prac_button_false,lextale_check.started,lextale_check.stopped,lextale_trial.started,lextale_trial.stopped,key_resp_lextale_trial.keys,key_resp_lextale_trial.corr,key_resp_lextale_trial.rt,key_resp_lextale_trial.duration,lextail_trials.thisRepN,lextail_trials.thisTrialN,lextail_trials.thisN,lextail_trials.thisIndex,lextail_trials.ran,type,correct_reponse,button_real,button_false
0.0055,6.0078,0,0,0,0,1,"Este es un test de vocabulario en español. 
  
  A continuación vas a ver 90 secuencias de letras que parecen 'españolas'.
  
  Solo algunas de ellas son palabras de verdad.",(presiona la barra espaciadora para continuar),,001,2025-05-02_14h49.20.740,empathy_intonation_perc,2024.1.4,Win32,59.52380952,,,,,,,,,,,,,,,,,,,,,,,,,,,,,,,,,,,
6.0083,6.8407,0,1,1,1,1,"Por favor, señala las palabras que tú conoces (aquellas que estás convencido que son palabras españolas, incluso aunque no seas capaz de dar el significado preciso).",(presiona la barra espaciadora para continuar),,001,2025-05-02_14h49.20.740,empathy_intonation_perc,2024.1.4,Win32,59.52380952,,,,,,,,,,,,,,,,,,,,,,,,,,,,,,,,,,,
6.8412,7.4908,0,2,2,2,1,Pero cuidado: los errores se penalizan. Por eso no tiene sentido tratar de incrementar tu puntuación marcando como reales palabras que nunca has visto.,(presiona la barra espaciadora para continuar),,001,2025-05-02_14h49.20.740,empathy_intonation_perc,2024.1.4,Win32,59.52380952,,,,,,,,,,,,,,,,,,,,,,,,,,,,,,,,,,,
7.4911,9.4241,0,3,3,3,1,"Presiona la tecla 1 si piensas que es una palabra real y la tecla 
  0 si piensas que es una palabra falsa. 
  
  Vamos a practicar un poco...",(presiona la barra espaciadora para continuar),,001,2025-05-02_14h49.20.740,empathy_intonation_perc,2024.1.4,Win32,59.52380952,,,,,,,,,,,,,,,,,,,,,,,,,,,,,,,,,,,
,,,,,,,,,,001,2025-05-02_14h49.20.740,empathy_intonation_perc,2024.1.4,Win32,59.52380952,9.4269,11.7245,1,0,1.7743,,11.7247,12.7242,0,0,0,0,1,0,depiste,0,REAL,FALSA,,,,,,,,,,,,,,,,,
,,,,,,,,,,001,2025-05-02_14h49.20.740,empathy_intonation_perc,2024.1.4,Win32,59.52380952,12.7247,14.1909,0,0,0.9333,,14.191,15.1908,0,1,1,1,1,0,sí,1,REAL,FALSA,,,,,,,,,,,,,,,,,
,,,,,,,,,,001,2025-05-02_14h49.20.740,empathy_intonation_perc,2024.1.4,Win32,59.52380952,15.1911,16.6741,1,0,0.9576,,16.6742,17.6742,0,2,2,2,1,0,coné,0,REAL,FALSA,,,,,,,,,,,,,,,,,
,,,,,,,,,,001,2025-05-02_14h49.20.740,empathy_intonation_perc,2024.1.4,Win32,59.52380952,17.6746,18.8576,1,0,0.6523,,18.8576,19.8576,0,3,3,3,1,0,calpar,0,REAL,FALSA,,,,,,,,,,,,,,,,,
,,,,,,,,,,001,2025-05-02_14h49.20.740,empathy_intonation_perc,2024.1.4,Win32,59.52380952,19.8579,20.6576,0,1,0.268,,20.6576,21.6575,0,4,4,4,1,0,joten,0,REAL,FALSA,,,,,,,,,,,,,,,,,
,,,,,,,,,,001,2025-05-02_14h49.20.740,empathy_intonation_perc,2024.1.4,Win32,59.52380952,21.6579,22.291,0,0,0.1036,,22.291,23.2908,0,5,5,5,1,0,sacapuntas,1,REAL,FALSA,,,,,,,,,,,,,,,,,
,,,,,,,,,,001,2025-05-02_14h49.20.740,empathy_intonation_perc,2024.1.4,Win32,59.52380952,23.2912,24.558,1,0,0.7446,,24.558,25.5576,0,6,6,6,1,0,priba,0,REAL,FALSA,,,,,,,,,,,,,,,,,
,,,,,,,,,,001,2025-05-02_14h49.20.740,empathy_intonation_perc,2024.1.4,Win32,59.52380952,25.5579,26.141,0,1,0.0573,,26.141,27.141,0,7,7,7,1,0,pelasula,0,REAL,FALSA,,,,,,,,,,,,,,,,,
,,,,,,,,,,001,2025-05-02_14h49.20.740,empathy_intonation_perc,2024.1.4,Win32,59.52380952,27.1414,27.7077,0,0,0.0372,,27.7077,28.7076,0,8,8,8,1,0,bien,1,REAL,FALSA,,,,,,,,,,,,,,,,,
,,,,,,,,,,001,2025-05-02_14h49.20.740,empathy_intonation_perc,2024.1.4,Win32,59.52380952,28.708,29.391,1,1,0.1485,,29.391,30.391,0,9,9,9,1,0,casa,1,REAL,FALSA,,,,,,,,,,,,,,,,,
,,,,,,,,,,001,2025-05-02_14h49.20.740,empathy_intonation_perc,2024.1.4,Win32,59.52380952,30.3913,31.591,0,1,0.6704,,31.591,32.5911,0,10,10,10,1,0,lejo,0,REAL,FALSA,,,,,,,,,,,,,,,,,
,,,,,,,,,,001,2025-05-02_14h49.20.740,empathy_intonation_perc,2024.1.4,Win32,59.52380952,32.5916,34.7411,1,0,1.6269,,34.7411,35.741,0,11,11,11,1,0,pretantas,0,REAL,FALSA,,,,,,,,,,,,,,,,,
,,,,,,,,,,001,2025-05-02_14h49.20.740,empathy_intonation_perc,2024.1.4,Win32,59.52380952,,,,,,,,,,,,,,,,,,,35.7413,37.2246,,,,,,,,,,,,,,,
,,,,,,,,,,001,2025-05-02_14h49.20.740,empathy_intonation_perc,2024.1.4,Win32,59.52380952,,,,,,,,,,,,,,93,tapa,,,,,,37.2349,38.9413,1,0,1.1919,,0,0,0,92,1,non_cognate,1,REAL,FALSA
,,,,,,,,,,001,2025-05-02_14h49.20.740,empathy_intonation_perc,2024.1.4,Win32,59.52380952,,,,,,,,,,,,,,180,pupica,,,,,,38.9417,42.8245,0,1,3.3512,,0,1,1,179,1,pseudoword,0,REAL,FALSA
,,,,,,,,,,001,2025-05-02_14h49.20.740,empathy_intonation_perc,2024.1.4,Win32,59.52380952,,,,,,,,,,,,,,25,vigor,,,,,,42.8248,44.1577,1,0,0.7976,,0,2,2,24,1,two_way_cognate,1,REAL,FALSA
,,,,,,,,,,001,2025-05-02_14h49.20.740,empathy_intonation_perc,2024.1.4,Win32,59.52380952,,,,,,,,,,,,,,139,sasos,,,,,,44.1581,45.3745,1,0,0.6928,,0,3,3,138,1,pseudoword,0,REAL,FALSA
,,,,,,,,,,001,2025-05-02_14h49.20.740,empathy_intonation_perc,2024.1.4,Win32,59.52380952,,,,,,,,,,,,,,106,diebro,,,,,,45.3748,47.8077,0,1,1.9001,,0,4,4,105,1,pseudoword,0,REAL,FALSA
,,,,,,,,,,001,2025-05-02_14h49.20.740,empathy_intonation_perc,2024.1.4,Win32,59.52380952,,,,,,,,,,,,,,150,cricó,,,,,,47.8082,49.0413,1,0,0.6985,,0,5,5,149,1,pseudoword,0,REAL,FALSA
,,,,,,,,,,001,2025-05-02_14h49.20.740,empathy_intonation_perc,2024.1.4,Win32,59.52380952,,,,,,,,,,,,,,105,peniz,,,,,,49.0418,50.5744,1,0,1.0004,,0,6,6,104,1,pseudoword,0,REAL,FALSA
,,,,,,,,,,001,2025-05-02_14h49.20.740,empathy_intonation_perc,2024.1.4,Win32,59.52380952,,,,,,,,,,,,,,87,muleta,,,,,,50.5748,51.6744,1,0,0.5757,,0,7,7,86,1,non_cognate,1,REAL,FALSA
,,,,,,,,,,001,2025-05-02_14h49.20.740,empathy_intonation_perc,2024.1.4,Win32,59.52380952,,,,,,,,,,,,,,127,vien,,,,,,51.6749,52.9078,0,1,0.6986,,0,8,8,126,1,pseudoword,0,REAL,FALSA
,,,,,,,,,,001,2025-05-02_14h49.20.740,empathy_intonation_perc,2024.1.4,Win32,59.52380952,,,,,,,,,,,,,,167,dobbo,,,,,,52.9082,54.1745,0,1,0.7322,,0,9,9,166,1,pseudoword,0,REAL,FALSA
,,,,,,,,,,001,2025-05-02_14h49.20.740,empathy_intonation_perc,2024.1.4,Win32,59.52380952,,,,,,,,,,,,,,15,test,,,,,,54.1749,55.758,1,0,1.0618,,0,10,10,14,1,three_way_cognate,1,REAL,FALSA
,,,,,,,,,,001,2025-05-02_14h49.20.740,empathy_intonation_perc,2024.1.4,Win32,59.52380952,,,,,,,,,,,,,,34,actor,,,,,,55.7583,57.1579,0,1,0.8668,,0,11,11,33,1,two_way_cognate,1,REAL,FALSA
,,,,,,,,,,001,2025-05-02_14h49.20.740,empathy_intonation_perc,2024.1.4,Win32,59.52380952,,,,,,,,,,,,,,90,venado,,,,,,57.1582,58.5912,1,0,0.9101,,0,12,12,89,1,non_cognate,1,REAL,FALSA
,,,,,,,,,,001,2025-05-02_14h49.20.740,empathy_intonation_perc,2024.1.4,Win32,59.52380952,,,,,,,,,,,,,,144,diroco,,,,,,58.5916,60.5913,0,1,1.4657,,0,13,13,143,1,pseudoword,0,REAL,FALSA
,,,,,,,,,,001,2025-05-02_14h49.20.740,empathy_intonation_perc,2024.1.4,Win32,59.52380952,,,,,,,,,,,,,,131,fuar,,,,,,60.5916,61.7746,0,1,0.6487,,0,14,14,130,1,pseudoword,0,REAL,FALSA
,,,,,,,,,,001,2025-05-02_14h49.20.740,empathy_intonation_perc,2024.1.4,Win32,59.52380952,,,,,,,,,,,,,,119,esís,,,,,,61.7749,63.2913,0,1,0.9828,,0,15,15,118,1,pseudoword,0,REAL,FALSA
,,,,,,,,,,001,2025-05-02_14h49.20.740,empathy_intonation_perc,2024.1.4,Win32,59.52380952,,,,,,,,,,,,,,191,frasis,,,,,,63.2917,64.4747,0,1,0.6568,,0,16,16,190,1,pseudoword,0,REAL,FALSA
,,,,,,,,,,001,2025-05-02_14h49.20.740,empathy_intonation_perc,2024.1.4,Win32,59.52380952,,,,,,,,,,,,,,65,guerra,,,,,,64.4749,65.8579,1,0,0.8496,,0,17,17,64,1,non_cognate,1,REAL,FALSA
,,,,,,,,,,001,2025-05-02_14h49.20.740,empathy_intonation_perc,2024.1.4,Win32,59.52380952,,,,,,,,,,,,,,123,arane,,,,,,65.8582,67.4414,0,1,1.0482,,0,18,18,122,1,pseudoword,0,REAL,FALSA
,,,,,,,,,,001,2025-05-02_14h49.20.740,empathy_intonation_perc,2024.1.4,Win32,59.52380952,,,,,,,,,,,,,,55,maldad,,,,,,67.4417,70.1082,0,1,2.135,,0,19,19,54,1,non_cognate,1,REAL,FALSA
,,,,,,,,,,001,2025-05-02_14h49.20.740,empathy_intonation_perc,2024.1.4,Win32,59.52380952,,,,,,,,,,,,,,40,pelvis,,,,,,70.1085,74.9081,0,1,4.2712,,0,20,20,39,1,two_way_cognate,1,REAL,FALSA
,,,,,,,,,,001,2025-05-02_14h49.20.740,empathy_intonation_perc,2024.1.4,Win32,59.52380952,,,,,,,,,,,,,,110,densó,,,,,,74.9084,76.3581,0,1,0.9233,,0,21,21,109,1,pseudoword,0,REAL,FALSA
,,,,,,,,,,001,2025-05-02_14h49.20.740,empathy_intonation_perc,2024.1.4,Win32,59.52380952,,,,,,,,,,,,,,97,nocita,,,,,,76.3584,77.6581,0,1,0.7655,,0,22,22,96,1,pseudoword,0,REAL,FALSA
,,,,,,,,,,001,2025-05-02_14h49.20.740,empathy_intonation_perc,2024.1.4,Win32,59.52380952,,,,,,,,,,,,,,183,edioso,,,,,,77.6584,78.8749,1,0,0.6874,,0,23,23,182,1,pseudoword,0,REAL,FALSA
,,,,,,,,,,001,2025-05-02_14h49.20.740,empathy_intonation_perc,2024.1.4,Win32,59.52380952,,,,,,,,,,,,,,143,hurcos,,,,,,78.8752,79.8415,1,0,0.4378,,0,24,24,142,1,pseudoword,0,REAL,FALSA
,,,,,,,,,,001,2025-05-02_14h49.20.740,empathy_intonation_perc,2024.1.4,Win32,59.52380952,,,,,,,,,,,,,,188,amplir,,,,,,79.8418,81.4081,1,0,1.0371,,0,25,25,187,1,pseudoword,0,REAL,FALSA
,,,,,,,,,,001,2025-05-02_14h49.20.740,empathy_intonation_perc,2024.1.4,Win32,59.52380952,,,,,,,,,,,,,,57,regalo,,,,,,81.4085,82.4748,0,1,0.536,,0,26,26,56,1,non_cognate,1,REAL,FALSA
,,,,,,,,,,001,2025-05-02_14h49.20.740,empathy_intonation_perc,2024.1.4,Win32,59.52380952,,,,,,,,,,,,,,20,trauma,,,,,,82.4752,84.2416,0,1,1.2327,,0,27,27,19,1,three_way_cognate,1,REAL,FALSA
,,,,,,,,,,001,2025-05-02_14h49.20.740,empathy_intonation_perc,2024.1.4,Win32,59.52380952,,,,,,,,,,,,,,186,rizate,,,,,,84.2419,85.4582,0,1,0.6879,,0,28,28,185,1,pseudoword,0,REAL,FALSA
,,,,,,,,,,001,2025-05-02_14h49.20.740,empathy_intonation_perc,2024.1.4,Win32,59.52380952,,,,,,,,,,,,,,32,animal,,,,,,85.4585,87.1082,0,1,1.1226,,0,29,29,31,1,two_way_cognate,1,REAL,FALSA
,,,,,,,,,,001,2025-05-02_14h49.20.740,empathy_intonation_perc,2024.1.4,Win32,59.52380952,,,,,,,,,,,,,,132,nocó,,,,,,87.1086,88.225,1,0,0.5943,,0,30,30,131,1,pseudoword,0,REAL,FALSA
,,,,,,,,,,001,2025-05-02_14h49.20.740,empathy_intonation_perc,2024.1.4,Win32,59.52380952,,,,,,,,,,,,,,19,mafia,,,,,,88.2254,89.675,1,0,0.9235,,0,31,31,18,1,three_way_cognate,1,REAL,FALSA
,,,,,,,,,,001,2025-05-02_14h49.20.740,empathy_intonation_perc,2024.1.4,Win32,59.52380952,,,,,,,,,,,,,,163,llzan,,,,,,89.6753,92.1916,1,0,1.9824,,0,32,32,162,1,pseudoword,0,REAL,FALSA
,,,,,,,,,,001,2025-05-02_14h49.20.740,empathy_intonation_perc,2024.1.4,Win32,59.52380952,,,,,,,,,,,,,,67,llamar,,,,,,92.192,94.7417,1,0,2.0227,,0,33,33,66,1,non_cognate,1,REAL,FALSA
,,,,,,,,,,001,2025-05-02_14h49.20.740,empathy_intonation_perc,2024.1.4,Win32,59.52380952,,,,,,,,,,,,,,50,sierra,,,,,,94.742,96.775,1,0,1.5066,,0,34,34,49,1,non_cognate,1,REAL,FALSA
,,,,,,,,,,001,2025-05-02_14h49.20.740,empathy_intonation_perc,2024.1.4,Win32,59.52380952,,,,,,,,,,,,,,18,altar,,,,,,96.7753,98.4919,1,0,1.1942,,0,35,35,17,1,three_way_cognate,1,REAL,FALSA
,,,,,,,,,,001,2025-05-02_14h49.20.740,empathy_intonation_perc,2024.1.4,Win32,59.52380952,,,,,,,,,,,,,,104,estulo,,,,,,98.4923,100.1917,0,1,1.1672,,0,36,36,103,1,pseudoword,0,REAL,FALSA
,,,,,,,,,,001,2025-05-02_14h49.20.740,empathy_intonation_perc,2024.1.4,Win32,59.52380952,,,,,,,,,,,,,,166,anfia,,,,,,100.192,104.1917,1,0,3.4733,,0,37,37,165,1,pseudoword,0,REAL,FALSA
,,,,,,,,,,001,2025-05-02_14h49.20.740,empathy_intonation_perc,2024.1.4,Win32,59.52380952,,,,,,,,,,,,,,86,cuenco,,,,,,104.1921,105.3418,1,0,0.6172,,0,38,38,85,1,non_cognate,1,REAL,FALSA
,,,,,,,,,,001,2025-05-02_14h49.20.740,empathy_intonation_perc,2024.1.4,Win32,59.52380952,,,,,,,,,,,,,,47,color,,,,,,105.342,106.3084,0,1,0.4339,,0,39,39,46,1,two_way_cognate,1,REAL,FALSA
,,,,,,,,,,001,2025-05-02_14h49.20.740,empathy_intonation_perc,2024.1.4,Win32,59.52380952,,,,,,,,,,,,,,96,caro,,,,,,106.3088,107.5584,0,1,0.7166,,0,40,40,95,1,non_cognate,1,REAL,FALSA
,,,,,,,,,,001,2025-05-02_14h49.20.740,empathy_intonation_perc,2024.1.4,Win32,59.52380952,,,,,,,,,,,,,,125,ceme,,,,,,107.5589,109.6585,0,1,1.5752,,0,41,41,124,1,pseudoword,0,REAL,FALSA
,,,,,,,,,,001,2025-05-02_14h49.20.740,empathy_intonation_perc,2024.1.4,Win32,59.52380952,,,,,,,,,,,,,,115,lidena,,,,,,109.6588,110.8418,0,1,0.6457,,0,42,42,114,1,pseudoword,0,REAL,FALSA
,,,,,,,,,,001,2025-05-02_14h49.20.740,empathy_intonation_perc,2024.1.4,Win32,59.52380952,,,,,,,,,,,,,,12,dogma,,,,,,110.8422,112.5085,0,1,1.1335,,0,43,43,11,1,three_way_cognate,1,REAL,FALSA
,,,,,,,,,,001,2025-05-02_14h49.20.740,empathy_intonation_perc,2024.1.4,Win32,59.52380952,,,,,,,,,,,,,,157,seled,,,,,,112.5088,115.5586,0,1,2.5167,,0,44,44,156,1,pseudoword,0,REAL,FALSA
,,,,,,,,,,001,2025-05-02_14h49.20.740,empathy_intonation_perc,2024.1.4,Win32,59.52380952,,,,,,,,,,,,,,33,collar,,,,,,115.5589,117.3252,0,1,1.2316,,0,45,45,32,1,two_way_cognate,1,REAL,FALSA
,,,,,,,,,,001,2025-05-02_14h49.20.740,empathy_intonation_perc,2024.1.4,Win32,59.52380952,,,,,,,,,,,,,,107,plago,,,,,,117.3257,119.0419,1,0,1.1895,,0,46,46,106,1,pseudoword,0,REAL,FALSA
,,,,,,,,,,001,2025-05-02_14h49.20.740,empathy_intonation_perc,2024.1.4,Win32,59.52380952,,,,,,,,,,,,,,189,medium,,,,,,119.0422,120.5086,1,0,0.9371,,0,47,47,188,1,pseudoword,0,REAL,FALSA
,,,,,,,,,,001,2025-05-02_14h49.20.740,empathy_intonation_perc,2024.1.4,Win32,59.52380952,,,,,,,,,,,,,,54,tapón,,,,,,120.5089,121.7086,1,0,0.6676,,0,48,48,53,1,non_cognate,1,REAL,FALSA
,,,,,,,,,,001,2025-05-02_14h49.20.740,empathy_intonation_perc,2024.1.4,Win32,59.52380952,,,,,,,,,,,,,,58,colcha,,,,,,121.709,122.9086,1,0,0.676,,0,49,49,57,1,non_cognate,1,REAL,FALSA
,,,,,,,,,,001,2025-05-02_14h49.20.740,empathy_intonation_perc,2024.1.4,Win32,59.52380952,,,,,,,,,,,,,,83,hálito,,,,,,122.909,124.3586,1,0,0.9087,,0,50,50,82,1,non_cognate,1,REAL,FALSA
,,,,,,,,,,001,2025-05-02_14h49.20.740,empathy_intonation_perc,2024.1.4,Win32,59.52380952,,,,,,,,,,,,,,85,enorme,,,,,,124.359,125.6253,0,1,0.7354,,0,51,51,84,1,non_cognate,1,REAL,FALSA
,,,,,,,,,,001,2025-05-02_14h49.20.740,empathy_intonation_perc,2024.1.4,Win32,59.52380952,,,,,,,,,,,,,,155,kugis,,,,,,125.6257,126.9586,0,1,0.803,,0,52,52,154,1,pseudoword,0,REAL,FALSA
,,,,,,,,,,001,2025-05-02_14h49.20.740,empathy_intonation_perc,2024.1.4,Win32,59.52380952,,,,,,,,,,,,,,74,ala,,,,,,126.959,128.292,1,0,0.7996,,0,53,53,73,1,non_cognate,1,REAL,FALSA
,,,,,,,,,,001,2025-05-02_14h49.20.740,empathy_intonation_perc,2024.1.4,Win32,59.52380952,,,,,,,,,,,,,,129,vinzó,,,,,,128.2924,129.5087,1,0,0.6938,,0,54,54,128,1,pseudoword,0,REAL,FALSA
,,,,,,,,,,001,2025-05-02_14h49.20.740,empathy_intonation_perc,2024.1.4,Win32,59.52380952,,,,,,,,,,,,,,109,laras,,,,,,129.509,130.7254,0,1,0.6904,,0,55,55,108,1,pseudoword,0,REAL,FALSA
,,,,,,,,,,001,2025-05-02_14h49.20.740,empathy_intonation_perc,2024.1.4,Win32,59.52380952,,,,,,,,,,,,,,68,puñal,,,,,,130.7256,132.9922,0,1,1.7383,,0,56,56,67,1,non_cognate,1,REAL,FALSA
,,,,,,,,,,001,2025-05-02_14h49.20.740,empathy_intonation_perc,2024.1.4,Win32,59.52380952,,,,,,,,,,,,,,5,extra,,,,,,132.9926,135.0588,0,1,1.5298,,0,57,57,4,1,three_way_cognate,1,REAL,FALSA
,,,,,,,,,,001,2025-05-02_14h49.20.740,empathy_intonation_perc,2024.1.4,Win32,59.52380952,,,,,,,,,,,,,,42,rumor,,,,,,135.0592,136.6922,0,1,1.0986,,0,58,58,41,1,two_way_cognate,1,REAL,FALSA
,,,,,,,,,,001,2025-05-02_14h49.20.740,empathy_intonation_perc,2024.1.4,Win32,59.52380952,,,,,,,,,,,,,,4,flora,,,,,,136.6924,137.9421,1,0,0.7192,,0,59,59,3,1,three_way_cognate,1,REAL,FALSA
,,,,,,,,,,001,2025-05-02_14h49.20.740,empathy_intonation_perc,2024.1.4,Win32,59.52380952,,,,,,,,,,,,,,77,suave,,,,,,137.9424,139.0921,1,0,0.6244,,0,60,60,76,1,non_cognate,1,REAL,FALSA
,,,,,,,,,,001,2025-05-02_14h49.20.740,empathy_intonation_perc,2024.1.4,Win32,59.52380952,,,,,,,,,,,,,,89,muñeca,,,,,,139.0924,140.6254,0,1,0.9961,,0,61,61,88,1,non_cognate,1,REAL,FALSA
,,,,,,,,,,001,2025-05-02_14h49.20.740,empathy_intonation_perc,2024.1.4,Win32,59.52380952,,,,,,,,,,,,,,176,gripar,,,,,,140.6259,141.8421,0,1,0.688,,0,62,62,175,1,pseudoword,0,REAL,FALSA
,,,,,,,,,,001,2025-05-02_14h49.20.740,empathy_intonation_perc,2024.1.4,Win32,59.52380952,,,,,,,,,,,,,,126,tobre,,,,,,141.8425,143.2762,0,1,0.9109,,0,63,63,125,1,pseudoword,0,REAL,FALSA
,,,,,,,,,,001,2025-05-02_14h49.20.740,empathy_intonation_perc,2024.1.4,Win32,59.52380952,,,,,,,,,,,,,,17,clan,,,,,,143.2764,144.809,1,0,0.9977,,0,64,64,16,1,three_way_cognate,1,REAL,FALSA
,,,,,,,,,,001,2025-05-02_14h49.20.740,empathy_intonation_perc,2024.1.4,Win32,59.52380952,,,,,,,,,,,,,,7,albino,,,,,,144.8093,146.0588,1,0,0.7199,,0,65,65,6,1,three_way_cognate,1,REAL,FALSA
,,,,,,,,,,001,2025-05-02_14h49.20.740,empathy_intonation_perc,2024.1.4,Win32,59.52380952,,,,,,,,,,,,,,82,brillo,,,,,,146.0591,147.9922,1,0,1.3991,,0,66,66,81,1,non_cognate,1,REAL,FALSA
,,,,,,,,,,001,2025-05-02_14h49.20.740,empathy_intonation_perc,2024.1.4,Win32,59.52380952,,,,,,,,,,,,,,37,torso,,,,,,147.9925,152.3923,1,0,3.871,,0,67,67,36,1,two_way_cognate,1,REAL,FALSA
,,,,,,,,,,001,2025-05-02_14h49.20.740,empathy_intonation_perc,2024.1.4,Win32,59.52380952,,,,,,,,,,,,,,175,tradía,,,,,,152.3926,155.1256,0,1,2.1984,,0,68,68,174,1,pseudoword,0,REAL,FALSA
,,,,,,,,,,001,2025-05-02_14h49.20.740,empathy_intonation_perc,2024.1.4,Win32,59.52380952,,,,,,,,,,,,,,130,dubo,,,,,,155.126,156.359,0,1,0.699,,0,69,69,129,1,pseudoword,0,REAL,FALSA
,,,,,,,,,,001,2025-05-02_14h49.20.740,empathy_intonation_perc,2024.1.4,Win32,59.52380952,,,,,,,,,,,,,,117,morrá,,,,,,156.3594,162.8923,0,1,6.0017,,0,70,70,116,1,pseudoword,0,REAL,FALSA
,,,,,,,,,,001,2025-05-02_14h49.20.740,empathy_intonation_perc,2024.1.4,Win32,59.52380952,,,,,,,,,,,,,,66,aleta,,,,,,162.8926,164.559,1,0,1.1344,,0,71,71,65,1,non_cognate,1,REAL,FALSA
,,,,,,,,,,001,2025-05-02_14h49.20.740,empathy_intonation_perc,2024.1.4,Win32,59.52380952,,,,,,,,,,,,,,173,mibro,,,,,,164.5593,166.2758,1,0,1.1835,,0,72,72,172,1,pseudoword,0,REAL,FALSA
,,,,,,,,,,001,2025-05-02_14h49.20.740,empathy_intonation_perc,2024.1.4,Win32,59.52380952,,,,,,,,,,,,,,30,fiscal,,,,,,166.2761,167.1424,0,1,0.3428,,0,73,73,29,1,two_way_cognate,1,REAL,FALSA
,,,,,,,,,,001,2025-05-02_14h49.20.740,empathy_intonation_perc,2024.1.4,Win32,59.52380952,,,,,,,,,,,,,,141,virios,,,,,,167.1427,168.2259,0,1,0.5622,,0,74,74,140,1,pseudoword,0,REAL,FALSA
,,,,,,,,,,001,2025-05-02_14h49.20.740,empathy_intonation_perc,2024.1.4,Win32,59.52380952,,,,,,,,,,,,,,111,monue,,,,,,168.2263,169.3591,1,0,0.6028,,0,75,75,110,1,pseudoword,0,REAL,FALSA
,,,,,,,,,,001,2025-05-02_14h49.20.740,empathy_intonation_perc,2024.1.4,Win32,59.52380952,,,,,,,,,,,,,,140,chorde,,,,,,169.3594,172.8758,1,0,2.9875,,0,76,76,139,1,pseudoword,0,REAL,FALSA
,,,,,,,,,,001,2025-05-02_14h49.20.740,empathy_intonation_perc,2024.1.4,Win32,59.52380952,,,,,,,,,,,,,,60,siglo,,,,,,172.8762,176.5591,1,0,3.1502,,0,77,77,59,1,non_cognate,1,REAL,FALSA
,,,,,,,,,,001,2025-05-02_14h49.20.740,empathy_intonation_perc,2024.1.4,Win32,59.52380952,,,,,,,,,,,,,,121,barbs,,,,,,176.5595,177.4591,0,1,0.3728,,0,78,78,120,1,pseudoword,0,REAL,FALSA
,,,,,,,,,,001,2025-05-02_14h49.20.740,empathy_intonation_perc,2024.1.4,Win32,59.52380952,,,,,,,,,,,,,,24,retina,,,,,,177.4596,178.6092,0,1,0.6214,,0,79,79,23,1,three_way_cognate,1,REAL,FALSA
,,,,,,,,,,001,2025-05-02_14h49.20.740,empathy_intonation_perc,2024.1.4,Win32,59.52380952,,,,,,,,,,,,,,128,pelí,,,,,,178.6095,179.7093,0,1,0.5743,,0,80,80,127,1,pseudoword,0,REAL,FALSA
,,,,,,,,,,001,2025-05-02_14h49.20.740,empathy_intonation_perc,2024.1.4,Win32,59.52380952,,,,,,,,,,,,,,69,tiza,,,,,,179.7096,180.6925,0,1,0.4522,,0,81,81,68,1,non_cognate,1,REAL,FALSA
,,,,,,,,,,001,2025-05-02_14h49.20.740,empathy_intonation_perc,2024.1.4,Win32,59.52380952,,,,,,,,,,,,,,138,tator,,,,,,180.6928,181.8927,1,0,0.6702,,0,82,82,137,1,pseudoword,0,REAL,FALSA
,,,,,,,,,,001,2025-05-02_14h49.20.740,empathy_intonation_perc,2024.1.4,Win32,59.52380952,,,,,,,,,,,,,,72,rostro,,,,,,181.8929,182.926,1,0,0.511,,0,83,83,71,1,non_cognate,1,REAL,FALSA
,,,,,,,,,,001,2025-05-02_14h49.20.740,empathy_intonation_perc,2024.1.4,Win32,59.52380952,,,,,,,,,,,,,,124,lobe,,,,,,182.9263,184.3759,1,0,0.9185,,0,84,84,123,1,pseudoword,0,REAL,FALSA
,,,,,,,,,,001,2025-05-02_14h49.20.740,empathy_intonation_perc,2024.1.4,Win32,59.52380952,,,,,,,,,,,,,,75,patada,,,,,,184.3762,186.3592,1,0,1.4491,,0,85,85,74,1,non_cognate,1,REAL,FALSA
,,,,,,,,,,001,2025-05-02_14h49.20.740,empathy_intonation_perc,2024.1.4,Win32,59.52380952,,,,,,,,,,,,,,178,inichó,,,,,,186.3596,187.5933,1,0,0.7116,,0,86,86,177,1,pseudoword,0,REAL,FALSA
,,,,,,,,,,001,2025-05-02_14h49.20.740,empathy_intonation_perc,2024.1.4,Win32,59.52380952,,,,,,,,,,,,,,120,mauja,,,,,,187.5935,189.0594,0,1,0.9435,,0,87,87,119,1,pseudoword,0,REAL,FALSA
,,,,,,,,,,001,2025-05-02_14h49.20.740,empathy_intonation_perc,2024.1.4,Win32,59.52380952,,,,,,,,,,,,,,56,pico,,,,,,189.0596,190.2427,0,1,0.6542,,0,88,88,55,1,non_cognate,1,REAL,FALSA
,,,,,,,,,,001,2025-05-02_14h49.20.740,empathy_intonation_perc,2024.1.4,Win32,59.52380952,,,,,,,,,,,,,,91,equipo,,,,,,190.2431,191.3095,1,0,0.5425,,0,89,89,90,1,non_cognate,1,REAL,FALSA
,,,,,,,,,,001,2025-05-02_14h49.20.740,empathy_intonation_perc,2024.1.4,Win32,59.52380952,,,,,,,,,,,,,,79,suelo,,,,,,191.3098,192.626,1,0,0.7942,,0,90,90,78,1,non_cognate,1,REAL,FALSA
,,,,,,,,,,001,2025-05-02_14h49.20.740,empathy_intonation_perc,2024.1.4,Win32,59.52380952,,,,,,,,,,,,,,11,golf,,,,,,192.6263,194.3595,1,0,1.1987,,0,91,91,10,1,three_way_cognate,1,REAL,FALSA
,,,,,,,,,,001,2025-05-02_14h49.20.740,empathy_intonation_perc,2024.1.4,Win32,59.52380952,,,,,,,,,,,,,,9,portal,,,,,,194.3598,195.426,0,1,0.5421,,0,92,92,8,1,three_way_cognate,1,REAL,FALSA
,,,,,,,,,,001,2025-05-02_14h49.20.740,empathy_intonation_perc,2024.1.4,Win32,59.52380952,,,,,,,,,,,,,,49,teñir,,,,,,195.4264,196.5093,0,1,0.5492,,0,93,93,48,1,non_cognate,1,REAL,FALSA
,,,,,,,,,,001,2025-05-02_14h49.20.740,empathy_intonation_perc,2024.1.4,Win32,59.52380952,,,,,,,,,,,,,,177,entodo,,,,,,196.5097,197.7428,0,1,0.7022,,0,94,94,176,1,pseudoword,0,REAL,FALSA
,,,,,,,,,,001,2025-05-02_14h49.20.740,empathy_intonation_perc,2024.1.4,Win32,59.52380952,,,,,,,,,,,,,,26,enigma,,,,,,197.7431,199.676,0,1,1.4078,,0,95,95,25,1,two_way_cognate,1,REAL,FALSA
,,,,,,,,,,001,2025-05-02_14h49.20.740,empathy_intonation_perc,2024.1.4,Win32,59.52380952,,,,,,,,,,,,,,156,ozoso,,,,,,199.6764,200.6761,1,0,0.4656,,0,96,96,155,1,pseudoword,0,REAL,FALSA
,,,,,,,,,,001,2025-05-02_14h49.20.740,empathy_intonation_perc,2024.1.4,Win32,59.52380952,,,,,,,,,,,,,,22,mango,,,,,,200.6764,201.8094,1,0,0.6065,,0,97,97,21,1,three_way_cognate,1,REAL,FALSA
,,,,,,,,,,001,2025-05-02_14h49.20.740,empathy_intonation_perc,2024.1.4,Win32,59.52380952,,,,,,,,,,,,,,80,cuenco,,,,,,201.8097,202.6927,0,1,0.356,,0,98,98,79,1,non_cognate,1,REAL,FALSA
,,,,,,,,,,001,2025-05-02_14h49.20.740,empathy_intonation_perc,2024.1.4,Win32,59.52380952,,,,,,,,,,,,,,70,ánimo,,,,,,202.6931,205.6927,0,1,2.4756,,0,99,99,69,1,non_cognate,1,REAL,FALSA
,,,,,,,,,,001,2025-05-02_14h49.20.740,empathy_intonation_perc,2024.1.4,Win32,59.52380952,,,,,,,,,,,,,,154,harvé,,,,,,205.6931,206.6431,0,1,0.4259,,0,100,100,153,1,pseudoword,0,REAL,FALSA
,,,,,,,,,,001,2025-05-02_14h49.20.740,empathy_intonation_perc,2024.1.4,Win32,59.52380952,,,,,,,,,,,,,,169,pitis,,,,,,206.6437,207.343,1,0,0.1787,,0,101,101,168,1,pseudoword,0,REAL,FALSA
,,,,,,,,,,001,2025-05-02_14h49.20.740,empathy_intonation_perc,2024.1.4,Win32,59.52380952,,,,,,,,,,,,,,53,punta,,,,,,207.3436,208.6095,0,1,0.7361,,0,102,102,52,1,non_cognate,1,REAL,FALSA
,,,,,,,,,,001,2025-05-02_14h49.20.740,empathy_intonation_perc,2024.1.4,Win32,59.52380952,,,,,,,,,,,,,,142,parre,,,,,,208.6098,209.6928,0,1,0.5503,,0,103,103,141,1,pseudoword,0,REAL,FALSA
,,,,,,,,,,001,2025-05-02_14h49.20.740,empathy_intonation_perc,2024.1.4,Win32,59.52380952,,,,,,,,,,,,,,192,próces,,,,,,209.6932,210.7103,1,0,0.4955,,0,104,104,191,1,pseudoword,0,REAL,FALSA
,,,,,,,,,,001,2025-05-02_14h49.20.740,empathy_intonation_perc,2024.1.4,Win32,59.52380952,,,,,,,,,,,,,,160,fomeó,,,,,,210.7105,215.4428,1,0,4.1991,,0,105,105,159,1,pseudoword,0,REAL,FALSA
,,,,,,,,,,001,2025-05-02_14h49.20.740,empathy_intonation_perc,2024.1.4,Win32,59.52380952,,,,,,,,,,,,,,108,jauda,,,,,,215.4433,216.943,1,0,0.9649,,0,106,106,107,1,pseudoword,0,REAL,FALSA
,,,,,,,,,,001,2025-05-02_14h49.20.740,empathy_intonation_perc,2024.1.4,Win32,59.52380952,,,,,,,,,,,,,,28,ardor,,,,,,216.9432,218.5429,0,1,1.0662,,0,107,107,27,1,two_way_cognate,1,REAL,FALSA
,,,,,,,,,,001,2025-05-02_14h49.20.740,empathy_intonation_perc,2024.1.4,Win32,59.52380952,,,,,,,,,,,,,,31,civil,,,,,,218.5432,220.2934,0,1,1.2275,,0,108,108,30,1,two_way_cognate,1,REAL,FALSA
,,,,,,,,,,001,2025-05-02_14h49.20.740,empathy_intonation_perc,2024.1.4,Win32,59.52380952,,,,,,,,,,,,,,59,feo,,,,,,220.2938,221.3429,0,1,0.5238,,0,109,109,58,1,non_cognate,1,REAL,FALSA
,,,,,,,,,,001,2025-05-02_14h49.20.740,empathy_intonation_perc,2024.1.4,Win32,59.52380952,,,,,,,,,,,,,,61,aduana,,,,,,221.3432,222.5763,0,1,0.7064,,0,110,110,60,1,non_cognate,1,REAL,FALSA
,,,,,,,,,,001,2025-05-02_14h49.20.740,empathy_intonation_perc,2024.1.4,Win32,59.52380952,,,,,,,,,,,,,,71,torta,,,,,,222.5767,223.4263,1,0,0.321,,0,111,111,70,1,non_cognate,1,REAL,FALSA
,,,,,,,,,,001,2025-05-02_14h49.20.740,empathy_intonation_perc,2024.1.4,Win32,59.52380952,,,,,,,,,,,,,,158,babrá,,,,,,223.4267,224.3763,1,0,0.4166,,0,112,112,157,1,pseudoword,0,REAL,FALSA
,,,,,,,,,,001,2025-05-02_14h49.20.740,empathy_intonation_perc,2024.1.4,Win32,59.52380952,,,,,,,,,,,,,,174,pabea,,,,,,224.3768,225.9096,1,0,1.0006,,0,113,113,173,1,pseudoword,0,REAL,FALSA
,,,,,,,,,,001,2025-05-02_14h49.20.740,empathy_intonation_perc,2024.1.4,Win32,59.52380952,,,,,,,,,,,,,,147,alla,,,,,,225.91,228.8097,1,0,2.3714,,0,114,114,146,1,pseudoword,0,REAL,FALSA
,,,,,,,,,,001,2025-05-02_14h49.20.740,empathy_intonation_perc,2024.1.4,Win32,59.52380952,,,,,,,,,,,,,,35,aurora,,,,,,228.8101,229.9431,1,0,0.6076,,0,115,115,34,1,two_way_cognate,1,REAL,FALSA
,,,,,,,,,,001,2025-05-02_14h49.20.740,empathy_intonation_perc,2024.1.4,Win32,59.52380952,,,,,,,,,,,,,,45,total,,,,,,229.9433,231.6764,1,0,1.2095,,0,116,116,44,1,two_way_cognate,1,REAL,FALSA
,,,,,,,,,,001,2025-05-02_14h49.20.740,empathy_intonation_perc,2024.1.4,Win32,59.52380952,,,,,,,,,,,,,,43,honor,,,,,,231.6767,232.9265,1,0,0.7243,,0,117,117,42,1,two_way_cognate,1,REAL,FALSA
,,,,,,,,,,001,2025-05-02_14h49.20.740,empathy_intonation_perc,2024.1.4,Win32,59.52380952,,,,,,,,,,,,,,114,dibrea,,,,,,232.9268,234.0431,0,1,0.5818,,0,118,118,113,1,pseudoword,0,REAL,FALSA
,,,,,,,,,,001,2025-05-02_14h49.20.740,empathy_intonation_perc,2024.1.4,Win32,59.52380952,,,,,,,,,,,,,,36,viable,,,,,,234.0434,235.4766,0,1,0.8998,,0,119,119,35,1,two_way_cognate,1,REAL,FALSA
,,,,,,,,,,001,2025-05-02_14h49.20.740,empathy_intonation_perc,2024.1.4,Win32,59.52380952,,,,,,,,,,,,,,151,prías,,,,,,235.4771,236.5931,1,0,0.5837,,0,120,120,150,1,pseudoword,0,REAL,FALSA
,,,,,,,,,,001,2025-05-02_14h49.20.740,empathy_intonation_perc,2024.1.4,Win32,59.52380952,,,,,,,,,,,,,,145,rúo,,,,,,236.5936,237.7433,1,0,0.6222,,0,121,121,144,1,pseudoword,0,REAL,FALSA
,,,,,,,,,,001,2025-05-02_14h49.20.740,empathy_intonation_perc,2024.1.4,Win32,59.52380952,,,,,,,,,,,,,,29,clamor,,,,,,237.7436,238.7764,0,1,0.4994,,0,122,122,28,1,two_way_cognate,1,REAL,FALSA
,,,,,,,,,,001,2025-05-02_14h49.20.740,empathy_intonation_perc,2024.1.4,Win32,59.52380952,,,,,,,,,,,,,,122,boñaz,,,,,,238.7768,239.9933,0,1,0.683,,0,123,123,121,1,pseudoword,0,REAL,FALSA
,,,,,,,,,,001,2025-05-02_14h49.20.740,empathy_intonation_perc,2024.1.4,Win32,59.52380952,,,,,,,,,,,,,,182,desaro,,,,,,239.9936,243.8099,1,0,3.2934,,0,124,124,181,1,pseudoword,0,REAL,FALSA
,,,,,,,,,,001,2025-05-02_14h49.20.740,empathy_intonation_perc,2024.1.4,Win32,59.52380952,,,,,,,,,,,,,,136,hueas,,,,,,243.8102,245.6102,1,0,1.2785,,0,125,125,135,1,pseudoword,0,REAL,FALSA
,,,,,,,,,,001,2025-05-02_14h49.20.740,empathy_intonation_perc,2024.1.4,Win32,59.52380952,,,,,,,,,,,,,,38,halo,,,,,,245.6106,247.0767,1,0,0.9323,,0,126,126,37,1,two_way_cognate,1,REAL,FALSA
,,,,,,,,,,001,2025-05-02_14h49.20.740,empathy_intonation_perc,2024.1.4,Win32,59.52380952,,,,,,,,,,,,,,64,rizado,,,,,,247.077,248.3933,0,1,0.7827,,0,127,127,63,1,non_cognate,1,REAL,FALSA
,,,,,,,,,,001,2025-05-02_14h49.20.740,empathy_intonation_perc,2024.1.4,Win32,59.52380952,,,,,,,,,,,,,,48,pelvis,,,,,,248.3936,249.9933,0,1,1.0774,,0,128,128,47,1,two_way_cognate,1,REAL,FALSA
,,,,,,,,,,001,2025-05-02_14h49.20.740,empathy_intonation_perc,2024.1.4,Win32,59.52380952,,,,,,,,,,,,,,172,dogue,,,,,,249.9936,251.2434,0,1,0.7263,,0,129,129,171,1,pseudoword,0,REAL,FALSA
,,,,,,,,,,001,2025-05-02_14h49.20.740,empathy_intonation_perc,2024.1.4,Win32,59.52380952,,,,,,,,,,,,,,149,emén,,,,,,251.2437,252.1599,1,0,0.3869,,0,130,130,148,1,pseudoword,0,REAL,FALSA
,,,,,,,,,,001,2025-05-02_14h49.20.740,empathy_intonation_perc,2024.1.4,Win32,59.52380952,,,,,,,,,,,,,,184,huenos,,,,,,252.1602,253.2933,1,0,0.6007,,0,131,131,183,1,pseudoword,0,REAL,FALSA
,,,,,,,,,,001,2025-05-02_14h49.20.740,empathy_intonation_perc,2024.1.4,Win32,59.52380952,,,,,,,,,,,,,,1,moral,,,,,,253.2937,261.8435,1,0,8.0272,,0,132,132,0,1,three_way_cognate,1,REAL,FALSA
,,,,,,,,,,001,2025-05-02_14h49.20.740,empathy_intonation_perc,2024.1.4,Win32,59.52380952,,,,,,,,,,,,,,81,sacar,,,,,,261.8438,263.5778,1,0,1.2067,,0,133,133,80,1,non_cognate,1,REAL,FALSA
,,,,,,,,,,001,2025-05-02_14h49.20.740,empathy_intonation_perc,2024.1.4,Win32,59.52380952,,,,,,,,,,,,,,181,gravés,,,,,,263.5781,265.0602,0,1,0.9543,,0,134,134,180,1,pseudoword,0,REAL,FALSA
,,,,,,,,,,001,2025-05-02_14h49.20.740,empathy_intonation_perc,2024.1.4,Win32,59.52380952,,,,,,,,,,,,,,171,gotro,,,,,,265.0605,266.2768,0,1,0.6843,,0,135,135,170,1,pseudoword,0,REAL,FALSA
,,,,,,,,,,001,2025-05-02_14h49.20.740,empathy_intonation_perc,2024.1.4,Win32,59.52380952,,,,,,,,,,,,,,21,hotel,,,,,,266.2772,267.6269,1,0,0.8206,,0,136,136,20,1,three_way_cognate,1,REAL,FALSA
,,,,,,,,,,001,2025-05-02_14h49.20.740,empathy_intonation_perc,2024.1.4,Win32,59.52380952,,,,,,,,,,,,,,62,pegar,,,,,,267.6271,269.1602,0,1,0.9975,,0,137,137,61,1,non_cognate,1,REAL,FALSA
,,,,,,,,,,001,2025-05-02_14h49.20.740,empathy_intonation_perc,2024.1.4,Win32,59.52380952,,,,,,,,,,,,,,51,listo,,,,,,269.1605,270.5773,1,0,0.8959,,0,138,138,50,1,non_cognate,1,REAL,FALSA
,,,,,,,,,,001,2025-05-02_14h49.20.740,empathy_intonation_perc,2024.1.4,Win32,59.52380952,,,,,,,,,,,,,,73,llevar,,,,,,270.5777,271.8104,1,0,0.7027,,0,139,139,72,1,non_cognate,1,REAL,FALSA
,,,,,,,,,,001,2025-05-02_14h49.20.740,empathy_intonation_perc,2024.1.4,Win32,59.52380952,,,,,,,,,,,,,,134,molor,,,,,,271.8106,273.2769,0,1,0.9394,,0,140,140,133,1,pseudoword,0,REAL,FALSA
,,,,,,,,,,001,2025-05-02_14h49.20.740,empathy_intonation_perc,2024.1.4,Win32,59.52380952,,,,,,,,,,,,,,112,samón,,,,,,273.2772,274.2937,0,1,0.4885,,0,141,141,111,1,pseudoword,0,REAL,FALSA
,,,,,,,,,,001,2025-05-02_14h49.20.740,empathy_intonation_perc,2024.1.4,Win32,59.52380952,,,,,,,,,,,,,,187,nomata,,,,,,274.294,275.6603,0,1,0.8443,,0,142,142,186,1,pseudoword,0,REAL,FALSA
,,,,,,,,,,001,2025-05-02_14h49.20.740,empathy_intonation_perc,2024.1.4,Win32,59.52380952,,,,,,,,,,,,,,3,disco,,,,,,275.6606,276.477,1,0,0.2815,,0,143,143,2,1,three_way_cognate,1,REAL,FALSA
,,,,,,,,,,001,2025-05-02_14h49.20.740,empathy_intonation_perc,2024.1.4,Win32,59.52380952,,,,,,,,,,,,,,88,percha,,,,,,276.4772,279.5103,1,0,2.508,,0,144,144,87,1,non_cognate,1,REAL,FALSA
,,,,,,,,,,001,2025-05-02_14h49.20.740,empathy_intonation_perc,2024.1.4,Win32,59.52380952,,,,,,,,,,,,,,135,panté,,,,,,279.5107,280.377,1,0,0.334,,0,145,145,134,1,pseudoword,0,REAL,FALSA
,,,,,,,,,,001,2025-05-02_14h49.20.740,empathy_intonation_perc,2024.1.4,Win32,59.52380952,,,,,,,,,,,,,,46,mortal,,,,,,280.3773,281.8105,1,0,0.8985,,0,146,146,45,1,two_way_cognate,1,REAL,FALSA
,,,,,,,,,,001,2025-05-02_14h49.20.740,empathy_intonation_perc,2024.1.4,Win32,59.52380952,,,,,,,,,,,,,,23,plural,,,,,,281.8108,282.877,1,0,0.5311,,0,147,147,22,1,three_way_cognate,1,REAL,FALSA
,,,,,,,,,,001,2025-05-02_14h49.20.740,empathy_intonation_perc,2024.1.4,Win32,59.52380952,,,,,,,,,,,,,,152,prave,,,,,,282.8773,288.2603,1,0,4.8545,,0,148,148,151,1,pseudoword,0,REAL,FALSA
,,,,,,,,,,001,2025-05-02_14h49.20.740,empathy_intonation_perc,2024.1.4,Win32,59.52380952,,,,,,,,,,,,,,113,nasce,,,,,,288.2605,289.0605,0,1,0.2514,,0,149,149,112,1,pseudoword,0,REAL,FALSA
,,,,,,,,,,001,2025-05-02_14h49.20.740,empathy_intonation_perc,2024.1.4,Win32,59.52380952,,,,,,,,,,,,,,179,suelet,,,,,,289.0608,290.4965,0,1,0.9171,,0,150,150,178,1,pseudoword,0,REAL,FALSA
,,,,,,,,,,001,2025-05-02_14h49.20.740,empathy_intonation_perc,2024.1.4,Win32,59.52380952,,,,,,,,,,,,,,153,golla,,,,,,290.4967,291.5467,0,1,0.517,,0,151,151,152,1,pseudoword,0,REAL,FALSA
,,,,,,,,,,001,2025-05-02_14h49.20.740,empathy_intonation_perc,2024.1.4,Win32,59.52380952,,,,,,,,,,,,,,101,losco,,,,,,291.547,292.7467,0,1,0.667,,0,152,152,100,1,pseudoword,0,REAL,FALSA
,,,,,,,,,,001,2025-05-02_14h49.20.740,empathy_intonation_perc,2024.1.4,Win32,59.52380952,,,,,,,,,,,,,,16,chat,,,,,,292.7469,293.6799,0,1,0.4003,,0,153,153,15,1,three_way_cognate,1,REAL,FALSA
,,,,,,,,,,001,2025-05-02_14h49.20.740,empathy_intonation_perc,2024.1.4,Win32,59.52380952,,,,,,,,,,,,,,159,trcia,,,,,,293.6802,296.5299,0,1,2.3168,,0,154,154,158,1,pseudoword,0,REAL,FALSA
,,,,,,,,,,001,2025-05-02_14h49.20.740,empathy_intonation_perc,2024.1.4,Win32,59.52380952,,,,,,,,,,,,,,118,bará,,,,,,296.5302,298.08,1,0,1.0168,,0,155,155,117,1,pseudoword,0,REAL,FALSA
,,,,,,,,,,001,2025-05-02_14h49.20.740,empathy_intonation_perc,2024.1.4,Win32,59.52380952,,,,,,,,,,,,,,116,grigir,,,,,,298.0803,299.4819,1,0,0.8687,,0,156,156,115,1,pseudoword,0,REAL,FALSA
,,,,,,,,,,001,2025-05-02_14h49.20.740,empathy_intonation_perc,2024.1.4,Win32,59.52380952,,,,,,,,,,,,,,92,flecha,,,,,,299.4822,300.58,1,0,0.5669,,0,157,157,91,1,non_cognate,1,REAL,FALSA
,,,,,,,,,,001,2025-05-02_14h49.20.740,empathy_intonation_perc,2024.1.4,Win32,59.52380952,,,,,,,,,,,,,,41,pasta,,,,,,300.5803,301.7968,0,1,0.6836,,0,158,158,40,1,two_way_cognate,1,REAL,FALSA
,,,,,,,,,,001,2025-05-02_14h49.20.740,empathy_intonation_perc,2024.1.4,Win32,59.52380952,,,,,,,,,,,,,,52,blando,,,,,,301.797,302.6967,0,1,0.3669,,0,159,159,51,1,non_cognate,1,REAL,FALSA
,,,,,,,,,,001,2025-05-02_14h49.20.740,empathy_intonation_perc,2024.1.4,Win32,59.52380952,,,,,,,,,,,,,,98,martir,,,,,,302.697,303.7134,1,0,0.4835,,0,160,160,97,1,pseudoword,0,REAL,FALSA
,,,,,,,,,,001,2025-05-02_14h49.20.740,empathy_intonation_perc,2024.1.4,Win32,59.52380952,,,,,,,,,,,,,,39,casual,,,,,,303.7136,304.3651,1,0,0.133,,0,161,161,38,1,two_way_cognate,1,REAL,FALSA
,,,,,,,,,,001,2025-05-02_14h49.20.740,empathy_intonation_perc,2024.1.4,Win32,59.52380952,,,,,,,,,,,,,,165,chote,,,,,,304.3654,308.2135,1,0,3.3116,,0,162,162,164,1,pseudoword,0,REAL,FALSA
,,,,,,,,,,001,2025-05-02_14h49.20.740,empathy_intonation_perc,2024.1.4,Win32,59.52380952,,,,,,,,,,,,,,168,cobén,,,,,,308.2138,309.1606,0,1,0.4103,,0,163,163,167,1,pseudoword,0,REAL,FALSA
,,,,,,,,,,001,2025-05-02_14h49.20.740,empathy_intonation_perc,2024.1.4,Win32,59.52380952,,,,,,,,,,,,,,8,kilo,,,,,,309.1609,310.0939,1,0,0.384,,0,164,164,7,1,three_way_cognate,1,REAL,FALSA
,,,,,,,,,,001,2025-05-02_14h49.20.740,empathy_intonation_perc,2024.1.4,Win32,59.52380952,,,,,,,,,,,,,,185,aljizo,,,,,,310.0942,310.8773,1,0,0.2409,,0,165,165,184,1,pseudoword,0,REAL,FALSA
,,,,,,,,,,001,2025-05-02_14h49.20.740,empathy_intonation_perc,2024.1.4,Win32,59.52380952,,,,,,,,,,,,,,14,aura,,,,,,310.8776,311.8108,1,0,0.3859,,0,166,166,13,1,three_way_cognate,1,REAL,FALSA
,,,,,,,,,,001,2025-05-02_14h49.20.740,empathy_intonation_perc,2024.1.4,Win32,59.52380952,,,,,,,,,,,,,,161,civas,,,,,,311.8111,313.7773,0,1,1.4214,,0,167,167,160,1,pseudoword,0,REAL,FALSA
,,,,,,,,,,001,2025-05-02_14h49.20.740,empathy_intonation_perc,2024.1.4,Win32,59.52380952,,,,,,,,,,,,,,27,piano,,,,,,313.7775,314.7108,0,1,0.3876,,0,168,168,26,1,two_way_cognate,1,REAL,FALSA
,,,,,,,,,,001,2025-05-02_14h49.20.740,empathy_intonation_perc,2024.1.4,Win32,59.52380952,,,,,,,,,,,,,,190,asumie,,,,,,314.7111,317.6273,0,1,2.3762,,0,169,169,189,1,pseudoword,0,REAL,FALSA
,,,,,,,,,,001,2025-05-02_14h49.20.740,empathy_intonation_perc,2024.1.4,Win32,59.52380952,,,,,,,,,,,,,,6,horror,,,,,,317.6277,318.5773,0,1,0.4045,,0,170,170,5,1,three_way_cognate,1,REAL,FALSA
,,,,,,,,,,001,2025-05-02_14h49.20.740,empathy_intonation_perc,2024.1.4,Win32,59.52380952,,,,,,,,,,,,,,164,tecia,,,,,,318.5777,319.6441,0,1,0.5188,,0,171,171,163,1,pseudoword,0,REAL,FALSA
,,,,,,,,,,001,2025-05-02_14h49.20.740,empathy_intonation_perc,2024.1.4,Win32,59.52380952,,,,,,,,,,,,,,133,conso,,,,,,319.6443,320.8274,0,1,0.641,,0,172,172,132,1,pseudoword,0,REAL,FALSA
,,,,,,,,,,001,2025-05-02_14h49.20.740,empathy_intonation_perc,2024.1.4,Win32,59.52380952,,,,,,,,,,,,,,146,gió,,,,,,320.8278,321.8108,1,0,0.4345,,0,173,173,145,1,pseudoword,0,REAL,FALSA
,,,,,,,,,,001,2025-05-02_14h49.20.740,empathy_intonation_perc,2024.1.4,Win32,59.52380952,,,,,,,,,,,,,,148,gino,,,,,,321.8111,322.5774,1,0,0.2271,,0,174,174,147,1,pseudoword,0,REAL,FALSA
,,,,,,,,,,001,2025-05-02_14h49.20.740,empathy_intonation_perc,2024.1.4,Win32,59.52380952,,,,,,,,,,,,,,10,drama,,,,,,322.5777,323.3108,1,0,0.1934,,0,175,175,9,1,three_way_cognate,1,REAL,FALSA
,,,,,,,,,,001,2025-05-02_14h49.20.740,empathy_intonation_perc,2024.1.4,Win32,59.52380952,,,,,,,,,,,,,,100,épinas,,,,,,323.311,324.0108,1,0,0.1524,,0,176,176,99,1,pseudoword,0,REAL,FALSA
,,,,,,,,,,001,2025-05-02_14h49.20.740,empathy_intonation_perc,2024.1.4,Win32,59.52380952,,,,,,,,,,,,,,76,chocar,,,,,,324.0111,324.8274,0,1,0.2667,,0,177,177,75,1,non_cognate,1,REAL,FALSA
,,,,,,,,,,001,2025-05-02_14h49.20.740,empathy_intonation_perc,2024.1.4,Win32,59.52380952,,,,,,,,,,,,,,137,trugo,,,,,,324.8277,325.9108,0,1,0.5415,,0,178,178,136,1,pseudoword,0,REAL,FALSA
,,,,,,,,,,001,2025-05-02_14h49.20.740,empathy_intonation_perc,2024.1.4,Win32,59.52380952,,,,,,,,,,,,,,103,vueras,,,,,,325.911,326.7628,0,1,0.3159,,0,179,179,102,1,pseudoword,0,REAL,FALSA
,,,,,,,,,,001,2025-05-02_14h49.20.740,empathy_intonation_perc,2024.1.4,Win32,59.52380952,,,,,,,,,,,,,,102,coyo,,,,,,326.7631,327.6462,0,1,0.3494,,0,180,180,101,1,pseudoword,0,REAL,FALSA
,,,,,,,,,,001,2025-05-02_14h49.20.740,empathy_intonation_perc,2024.1.4,Win32,59.52380952,,,,,,,,,,,,,,170,diabo,,,,,,327.6464,328.513,0,1,0.3494,,0,181,181,169,1,pseudoword,0,REAL,FALSA
,,,,,,,,,,001,2025-05-02_14h49.20.740,empathy_intonation_perc,2024.1.4,Win32,59.52380952,,,,,,,,,,,,,,2,tumor,,,,,,328.5133,329.2942,0,1,0.2334,,0,182,182,1,1,three_way_cognate,1,REAL,FALSA
,,,,,,,,,,001,2025-05-02_14h49.20.740,empathy_intonation_perc,2024.1.4,Win32,59.52380952,,,,,,,,,,,,,,63,hilo,,,,,,329.2944,330.2108,1,0,0.3668,,0,183,183,62,1,non_cognate,1,REAL,FALSA
,,,,,,,,,,001,2025-05-02_14h49.20.740,empathy_intonation_perc,2024.1.4,Win32,59.52380952,,,,,,,,,,,,,,78,rendir,,,,,,330.2111,331.1441,1,0,0.3902,,0,184,184,77,1,non_cognate,1,REAL,FALSA
,,,,,,,,,,001,2025-05-02_14h49.20.740,empathy_intonation_perc,2024.1.4,Win32,59.52380952,,,,,,,,,,,,,,44,editor,,,,,,331.1445,331.9942,0,1,0.3008,,0,185,185,43,1,two_way_cognate,1,REAL,FALSA
,,,,,,,,,,001,2025-05-02_14h49.20.740,empathy_intonation_perc,2024.1.4,Win32,59.52380952,,,,,,,,,,,,,,84,aviso,,,,,,331.9945,332.9108,0,1,0.3717,,0,186,186,83,1,non_cognate,1,REAL,FALSA
,,,,,,,,,,001,2025-05-02_14h49.20.740,empathy_intonation_perc,2024.1.4,Win32,59.52380952,,,,,,,,,,,,,,94,forro,,,,,,332.9111,333.5942,1,0,0.1431,,0,187,187,93,1,non_cognate,1,REAL,FALSA
,,,,,,,,,,001,2025-05-02_14h49.20.740,empathy_intonation_perc,2024.1.4,Win32,59.52380952,,,,,,,,,,,,,,95,listo,,,,,,333.5945,334.3276,1,0,0.1848,,0,188,188,94,1,non_cognate,1,REAL,FALSA
,,,,,,,,,,001,2025-05-02_14h49.20.740,empathy_intonation_perc,2024.1.4,Win32,59.52380952,,,,,,,,,,,,,,13,plan,,,,,,334.3278,335.1776,1,0,0.3047,,0,189,189,12,1,three_way_cognate,1,REAL,FALSA
,,,,,,,,,,001,2025-05-02_14h49.20.740,empathy_intonation_perc,2024.1.4,Win32,59.52380952,,,,,,,,,,,,,,99,bugor,,,,,,335.1779,337.9776,1,0,2.2526,,0,190,190,98,1,pseudoword,0,REAL,FALSA
,,,,,,,,,,001,2025-05-02_14h49.20.740,empathy_intonation_perc,2024.1.4,Win32,59.52380952,,,,,,,,,,,,,,162,cengo,,,,,,337.9779,339.6109,1,0,1.0852,,0,191,191,161,1,pseudoword,0,REAL,FALSA
