lextale_instructions.started,lextale_instructions.stopped,lextale_instructions_loop.thisRepN,lextale_instructions_loop.thisTrialN,lextale_instructions_loop.thisN,lextale_instructions_loop.thisIndex,lextale_instructions_loop.ran,instructions_text,continue_text,participant,session,date,expName,psychopyVersion,OS,frameRate,lextale_practice.started,lextale_practice.stopped,key_resp_lextale_practice.keys,key_resp_lextale_practice.corr,key_resp_lextale_practice.rt,key_resp_lextale_practice.duration,lextale_practice_feedback.started,lextale_practice_feedback.stopped,lextale_practice_trials.thisRepN,lextale_practice_trials.thisTrialN,lextale_practice_trials.thisN,lextale_practice_trials.thisIndex,lextale_practice_trials.ran,stim,word,correct_response,prac_button_real,prac_button_false,lextale_check.started,lextale_check.stopped,lextale_trial.started,lextale_trial.stopped,key_resp_lextale_trial.keys,key_resp_lextale_trial.corr,key_resp_lextale_trial.rt,key_resp_lextale_trial.duration,lextail_trials.thisRepN,lextail_trials.thisTrialN,lextail_trials.thisN,lextail_trials.thisIndex,lextail_trials.ran,type,correct_reponse,button_real,button_false
0.008,4.753,0,0,0,0,1,"Este es un test de vocabulario en español. 
  
  A continuación vas a ver 90 secuencias de letras que parecen 'españolas'.
  
  Solo algunas de ellas son palabras de verdad.",(presiona la barra espaciadora para continuar),Greblicki,001,2024-06-20_08h25.24.089,empathy_intonation_perc,2024.1.4,MacIntel,33.33333333,,,,,,,,,,,,,,,,,,,,,,,,,,,,,,,,,,,
4.754,11.119,0,1,1,1,1,"Por favor, señala las palabras que tú conoces (aquellas que estás convencido que son palabras españolas, incluso aunque no seas capaz de dar el significado preciso).",(presiona la barra espaciadora para continuar),Greblicki,001,2024-06-20_08h25.24.089,empathy_intonation_perc,2024.1.4,MacIntel,33.33333333,,,,,,,,,,,,,,,,,,,,,,,,,,,,,,,,,,,
11.119,16.786,0,2,2,2,1,Pero cuidado: los errores se penalizan. Por eso no tiene sentido tratar de incrementar tu puntuación marcando como reales palabras que nunca has visto.,(presiona la barra espaciadora para continuar),Greblicki,001,2024-06-20_08h25.24.089,empathy_intonation_perc,2024.1.4,MacIntel,33.33333333,,,,,,,,,,,,,,,,,,,,,,,,,,,,,,,,,,,
16.786,26.719,0,3,3,3,1,"Presiona la tecla 1 si piensas que es una palabra real y la tecla 
  0 si piensas que es una palabra falsa. 
  
  Vamos a practicar un poco...",(presiona la barra espaciadora para continuar),Greblicki,001,2024-06-20_08h25.24.089,empathy_intonation_perc,2024.1.4,MacIntel,33.33333333,,,,,,,,,,,,,,,,,,,,,,,,,,,,,,,,,,,
,,,,,,,,,Greblicki,001,2024-06-20_08h25.24.089,empathy_intonation_perc,2024.1.4,MacIntel,33.33333333,26.727,28.553,0,1,1.263,,28.554,29.553,0,0,0,0,1,0,depiste,0,REAL,FALSA,,,,,,,,,,,,,,,,,
,,,,,,,,,Greblicki,001,2024-06-20_08h25.24.089,empathy_intonation_perc,2024.1.4,MacIntel,33.33333333,29.554,30.753,1,1,0.631,,30.753,31.753,0,1,1,1,1,0,sí,1,REAL,FALSA,,,,,,,,,,,,,,,,,
,,,,,,,,,Greblicki,001,2024-06-20_08h25.24.089,empathy_intonation_perc,2024.1.4,MacIntel,33.33333333,31.753,33.153,0,1,0.859,,33.153,34.153,0,2,2,2,1,0,coné,0,REAL,FALSA,,,,,,,,,,,,,,,,,
,,,,,,,,,Greblicki,001,2024-06-20_08h25.24.089,empathy_intonation_perc,2024.1.4,MacIntel,33.33333333,34.153,36.053,0,1,1.374,,36.053,37.053,0,3,3,3,1,0,calpar,0,REAL,FALSA,,,,,,,,,,,,,,,,,
,,,,,,,,,Greblicki,001,2024-06-20_08h25.24.089,empathy_intonation_perc,2024.1.4,MacIntel,33.33333333,37.053,38.253,0,1,0.666,,38.253,39.253,0,4,4,4,1,0,joten,0,REAL,FALSA,,,,,,,,,,,,,,,,,
,,,,,,,,,Greblicki,001,2024-06-20_08h25.24.089,empathy_intonation_perc,2024.1.4,MacIntel,33.33333333,39.253,40.752,1,1,0.925,,40.752,41.753,0,5,5,5,1,0,sacapuntas,1,REAL,FALSA,,,,,,,,,,,,,,,,,
,,,,,,,,,Greblicki,001,2024-06-20_08h25.24.089,empathy_intonation_perc,2024.1.4,MacIntel,33.33333333,41.753,43.319,0,1,0.994,,43.319,44.319,0,6,6,6,1,0,priba,0,REAL,FALSA,,,,,,,,,,,,,,,,,
,,,,,,,,,Greblicki,001,2024-06-20_08h25.24.089,empathy_intonation_perc,2024.1.4,MacIntel,33.33333333,44.319,45.92,0,1,1.062,,45.92,46.92,0,7,7,7,1,0,pelasula,0,REAL,FALSA,,,,,,,,,,,,,,,,,
,,,,,,,,,Greblicki,001,2024-06-20_08h25.24.089,empathy_intonation_perc,2024.1.4,MacIntel,33.33333333,46.92,48.118,1,1,0.627,,48.119,49.119,0,8,8,8,1,0,bien,1,REAL,FALSA,,,,,,,,,,,,,,,,,
,,,,,,,,,Greblicki,001,2024-06-20_08h25.24.089,empathy_intonation_perc,2024.1.4,MacIntel,33.33333333,49.12,50.286,1,1,0.592,,50.286,51.286,0,9,9,9,1,0,casa,1,REAL,FALSA,,,,,,,,,,,,,,,,,
,,,,,,,,,Greblicki,001,2024-06-20_08h25.24.089,empathy_intonation_perc,2024.1.4,MacIntel,33.33333333,51.286,52.452,1,0,0.6,,52.452,53.452,0,10,10,10,1,0,lejo,0,REAL,FALSA,,,,,,,,,,,,,,,,,
,,,,,,,,,Greblicki,001,2024-06-20_08h25.24.089,empathy_intonation_perc,2024.1.4,MacIntel,33.33333333,53.453,55.085,0,1,1.065,,55.085,56.085,0,11,11,11,1,0,pretantas,0,REAL,FALSA,,,,,,,,,,,,,,,,,
,,,,,,,,,Greblicki,001,2024-06-20_08h25.24.089,empathy_intonation_perc,2024.1.4,MacIntel,33.33333333,,,,,,,,,,,,,,,,,,,56.086,64.919,,,,,,,,,,,,,,,
,,,,,,,,,Greblicki,001,2024-06-20_08h25.24.089,empathy_intonation_perc,2024.1.4,MacIntel,33.33333333,,,,,,,,,,,,,,147,alla,,,,,,64.935,66.719,0,1,1.234,,0,0,0,146,1,pseudoword,0,REAL,FALSA
,,,,,,,,,Greblicki,001,2024-06-20_08h25.24.089,empathy_intonation_perc,2024.1.4,MacIntel,33.33333333,,,,,,,,,,,,,,188,amplir,,,,,,66.72,68.252,1,0,0.962,,0,1,1,187,1,pseudoword,0,REAL,FALSA
,,,,,,,,,Greblicki,001,2024-06-20_08h25.24.089,empathy_intonation_perc,2024.1.4,MacIntel,33.33333333,,,,,,,,,,,,,,180,pupica,,,,,,68.253,69.619,0,1,0.792,,0,2,2,179,1,pseudoword,0,REAL,FALSA
,,,,,,,,,Greblicki,001,2024-06-20_08h25.24.089,empathy_intonation_perc,2024.1.4,MacIntel,33.33333333,,,,,,,,,,,,,,167,dobbo,,,,,,69.62,70.851,0,1,0.658,,0,3,3,166,1,pseudoword,0,REAL,FALSA
,,,,,,,,,Greblicki,001,2024-06-20_08h25.24.089,empathy_intonation_perc,2024.1.4,MacIntel,33.33333333,,,,,,,,,,,,,,103,vueras,,,,,,70.852,72.286,0,1,0.898,,0,4,4,102,1,pseudoword,0,REAL,FALSA
,,,,,,,,,Greblicki,001,2024-06-20_08h25.24.089,empathy_intonation_perc,2024.1.4,MacIntel,33.33333333,,,,,,,,,,,,,,62,pegar,,,,,,72.286,73.551,1,0,0.696,,0,5,5,61,1,non_cognate,1,REAL,FALSA
,,,,,,,,,Greblicki,001,2024-06-20_08h25.24.089,empathy_intonation_perc,2024.1.4,MacIntel,33.33333333,,,,,,,,,,,,,,5,extra,,,,,,73.552,74.985,1,0,0.864,,0,6,6,4,1,three_way_cognate,1,REAL,FALSA
,,,,,,,,,Greblicki,001,2024-06-20_08h25.24.089,empathy_intonation_perc,2024.1.4,MacIntel,33.33333333,,,,,,,,,,,,,,192,próces,,,,,,74.985,76.552,1,0,1.03,,0,7,7,191,1,pseudoword,0,REAL,FALSA
,,,,,,,,,Greblicki,001,2024-06-20_08h25.24.089,empathy_intonation_perc,2024.1.4,MacIntel,33.33333333,,,,,,,,,,,,,,35,aurora,,,,,,76.552,77.752,1,0,0.664,,0,8,8,34,1,two_way_cognate,1,REAL,FALSA
,,,,,,,,,Greblicki,001,2024-06-20_08h25.24.089,empathy_intonation_perc,2024.1.4,MacIntel,33.33333333,,,,,,,,,,,,,,151,prías,,,,,,77.752,78.952,1,0,0.668,,0,9,9,150,1,pseudoword,0,REAL,FALSA
,,,,,,,,,Greblicki,001,2024-06-20_08h25.24.089,empathy_intonation_perc,2024.1.4,MacIntel,33.33333333,,,,,,,,,,,,,,91,equipo,,,,,,78.952,80.052,1,0,0.566,,0,10,10,90,1,non_cognate,1,REAL,FALSA
,,,,,,,,,Greblicki,001,2024-06-20_08h25.24.089,empathy_intonation_perc,2024.1.4,MacIntel,33.33333333,,,,,,,,,,,,,,77,suave,,,,,,80.052,81.252,1,0,0.667,,0,11,11,76,1,non_cognate,1,REAL,FALSA
,,,,,,,,,Greblicki,001,2024-06-20_08h25.24.089,empathy_intonation_perc,2024.1.4,MacIntel,33.33333333,,,,,,,,,,,,,,145,rúo,,,,,,81.252,82.419,0,1,0.631,,0,12,12,144,1,pseudoword,0,REAL,FALSA
,,,,,,,,,Greblicki,001,2024-06-20_08h25.24.089,empathy_intonation_perc,2024.1.4,MacIntel,33.33333333,,,,,,,,,,,,,,168,cobén,,,,,,82.419,83.618,0,1,0.678,,0,13,13,167,1,pseudoword,0,REAL,FALSA
,,,,,,,,,Greblicki,001,2024-06-20_08h25.24.089,empathy_intonation_perc,2024.1.4,MacIntel,33.33333333,,,,,,,,,,,,,,115,lidena,,,,,,83.618,84.851,0,1,0.711,,0,14,14,114,1,pseudoword,0,REAL,FALSA
,,,,,,,,,Greblicki,001,2024-06-20_08h25.24.089,empathy_intonation_perc,2024.1.4,MacIntel,33.33333333,,,,,,,,,,,,,,135,panté,,,,,,84.851,86.085,0,1,0.703,,0,15,15,134,1,pseudoword,0,REAL,FALSA
,,,,,,,,,Greblicki,001,2024-06-20_08h25.24.089,empathy_intonation_perc,2024.1.4,MacIntel,33.33333333,,,,,,,,,,,,,,22,mango,,,,,,86.086,87.251,1,0,0.598,,0,16,16,21,1,three_way_cognate,1,REAL,FALSA
,,,,,,,,,Greblicki,001,2024-06-20_08h25.24.089,empathy_intonation_perc,2024.1.4,MacIntel,33.33333333,,,,,,,,,,,,,,42,rumor,,,,,,87.251,88.585,1,0,0.804,,0,17,17,41,1,two_way_cognate,1,REAL,FALSA
,,,,,,,,,Greblicki,001,2024-06-20_08h25.24.089,empathy_intonation_perc,2024.1.4,MacIntel,33.33333333,,,,,,,,,,,,,,79,suelo,,,,,,88.585,89.684,1,0,0.565,,0,18,18,78,1,non_cognate,1,REAL,FALSA
,,,,,,,,,Greblicki,001,2024-06-20_08h25.24.089,empathy_intonation_perc,2024.1.4,MacIntel,33.33333333,,,,,,,,,,,,,,67,llamar,,,,,,89.685,90.784,1,0,0.562,,0,19,19,66,1,non_cognate,1,REAL,FALSA
,,,,,,,,,Greblicki,001,2024-06-20_08h25.24.089,empathy_intonation_perc,2024.1.4,MacIntel,33.33333333,,,,,,,,,,,,,,126,tobre,,,,,,90.785,92.185,0,1,0.862,,0,20,20,125,1,pseudoword,0,REAL,FALSA
,,,,,,,,,Greblicki,001,2024-06-20_08h25.24.089,empathy_intonation_perc,2024.1.4,MacIntel,33.33333333,,,,,,,,,,,,,,6,horror,,,,,,92.185,93.352,1,0,0.627,,0,21,21,5,1,three_way_cognate,1,REAL,FALSA
,,,,,,,,,Greblicki,001,2024-06-20_08h25.24.089,empathy_intonation_perc,2024.1.4,MacIntel,33.33333333,,,,,,,,,,,,,,20,trauma,,,,,,93.352,94.552,1,0,0.631,,0,22,22,19,1,three_way_cognate,1,REAL,FALSA
,,,,,,,,,Greblicki,001,2024-06-20_08h25.24.089,empathy_intonation_perc,2024.1.4,MacIntel,33.33333333,,,,,,,,,,,,,,124,lobe,,,,,,94.552,95.819,0,1,0.7,,0,23,23,123,1,pseudoword,0,REAL,FALSA
,,,,,,,,,Greblicki,001,2024-06-20_08h25.24.089,empathy_intonation_perc,2024.1.4,MacIntel,33.33333333,,,,,,,,,,,,,,32,animal,,,,,,95.819,96.919,1,0,0.533,,0,24,24,31,1,two_way_cognate,1,REAL,FALSA
,,,,,,,,,Greblicki,001,2024-06-20_08h25.24.089,empathy_intonation_perc,2024.1.4,MacIntel,33.33333333,,,,,,,,,,,,,,13,plan,,,,,,96.919,98.152,1,0,0.665,,0,25,25,12,1,three_way_cognate,1,REAL,FALSA
,,,,,,,,,Greblicki,001,2024-06-20_08h25.24.089,empathy_intonation_perc,2024.1.4,MacIntel,33.33333333,,,,,,,,,,,,,,83,hálito,,,,,,98.152,99.451,0,1,0.726,,0,26,26,82,1,non_cognate,1,REAL,FALSA
,,,,,,,,,Greblicki,001,2024-06-20_08h25.24.089,empathy_intonation_perc,2024.1.4,MacIntel,33.33333333,,,,,,,,,,,,,,190,asumie,,,,,,99.451,100.719,0,1,0.73,,0,27,27,189,1,pseudoword,0,REAL,FALSA
,,,,,,,,,Greblicki,001,2024-06-20_08h25.24.089,empathy_intonation_perc,2024.1.4,MacIntel,33.33333333,,,,,,,,,,,,,,148,gino,,,,,,100.719,102.018,0,1,0.73,,0,28,28,147,1,pseudoword,0,REAL,FALSA
,,,,,,,,,Greblicki,001,2024-06-20_08h25.24.089,empathy_intonation_perc,2024.1.4,MacIntel,33.33333333,,,,,,,,,,,,,,92,flecha,,,,,,102.019,103.352,1,0,0.764,,0,29,29,91,1,non_cognate,1,REAL,FALSA
,,,,,,,,,Greblicki,001,2024-06-20_08h25.24.089,empathy_intonation_perc,2024.1.4,MacIntel,33.33333333,,,,,,,,,,,,,,100,épinas,,,,,,103.352,104.919,1,0,0.998,,0,30,30,99,1,pseudoword,0,REAL,FALSA
,,,,,,,,,Greblicki,001,2024-06-20_08h25.24.089,empathy_intonation_perc,2024.1.4,MacIntel,33.33333333,,,,,,,,,,,,,,146,gió,,,,,,104.919,106.152,0,1,0.665,,0,31,31,145,1,pseudoword,0,REAL,FALSA
,,,,,,,,,Greblicki,001,2024-06-20_08h25.24.089,empathy_intonation_perc,2024.1.4,MacIntel,33.33333333,,,,,,,,,,,,,,56,pico,,,,,,106.152,107.318,1,0,0.629,,0,32,32,55,1,non_cognate,1,REAL,FALSA
,,,,,,,,,Greblicki,001,2024-06-20_08h25.24.089,empathy_intonation_perc,2024.1.4,MacIntel,33.33333333,,,,,,,,,,,,,,58,colcha,,,,,,107.319,108.685,1,0,0.797,,0,33,33,57,1,non_cognate,1,REAL,FALSA
,,,,,,,,,Greblicki,001,2024-06-20_08h25.24.089,empathy_intonation_perc,2024.1.4,MacIntel,33.33333333,,,,,,,,,,,,,,104,estulo,,,,,,108.686,110.018,0,1,0.765,,0,34,34,103,1,pseudoword,0,REAL,FALSA
,,,,,,,,,Greblicki,001,2024-06-20_08h25.24.089,empathy_intonation_perc,2024.1.4,MacIntel,33.33333333,,,,,,,,,,,,,,108,jauda,,,,,,110.018,111.318,0,1,0.732,,0,35,35,107,1,pseudoword,0,REAL,FALSA
,,,,,,,,,Greblicki,001,2024-06-20_08h25.24.089,empathy_intonation_perc,2024.1.4,MacIntel,33.33333333,,,,,,,,,,,,,,127,vien,,,,,,111.319,112.651,0,1,0.767,,0,36,36,126,1,pseudoword,0,REAL,FALSA
,,,,,,,,,Greblicki,001,2024-06-20_08h25.24.089,empathy_intonation_perc,2024.1.4,MacIntel,33.33333333,,,,,,,,,,,,,,72,rostro,,,,,,112.651,114.552,1,0,1.363,,0,37,37,71,1,non_cognate,1,REAL,FALSA
,,,,,,,,,Greblicki,001,2024-06-20_08h25.24.089,empathy_intonation_perc,2024.1.4,MacIntel,33.33333333,,,,,,,,,,,,,,125,ceme,,,,,,114.552,115.785,0,1,0.664,,0,38,38,124,1,pseudoword,0,REAL,FALSA
,,,,,,,,,Greblicki,001,2024-06-20_08h25.24.089,empathy_intonation_perc,2024.1.4,MacIntel,33.33333333,,,,,,,,,,,,,,75,patada,,,,,,115.785,117.452,0,1,1.097,,0,39,39,74,1,non_cognate,1,REAL,FALSA
,,,,,,,,,Greblicki,001,2024-06-20_08h25.24.089,empathy_intonation_perc,2024.1.4,MacIntel,33.33333333,,,,,,,,,,,,,,18,altar,,,,,,117.452,118.784,1,0,0.767,,0,40,40,17,1,three_way_cognate,1,REAL,FALSA
,,,,,,,,,Greblicki,001,2024-06-20_08h25.24.089,empathy_intonation_perc,2024.1.4,MacIntel,33.33333333,,,,,,,,,,,,,,74,ala,,,,,,118.784,120.185,0,1,0.873,,0,41,41,73,1,non_cognate,1,REAL,FALSA
,,,,,,,,,Greblicki,001,2024-06-20_08h25.24.089,empathy_intonation_perc,2024.1.4,MacIntel,33.33333333,,,,,,,,,,,,,,109,laras,,,,,,120.185,122.718,0,1,1.998,,0,42,42,108,1,pseudoword,0,REAL,FALSA
,,,,,,,,,Greblicki,001,2024-06-20_08h25.24.089,empathy_intonation_perc,2024.1.4,MacIntel,33.33333333,,,,,,,,,,,,,,129,vinzó,,,,,,122.718,124.017,0,1,0.764,,0,43,43,128,1,pseudoword,0,REAL,FALSA
,,,,,,,,,Greblicki,001,2024-06-20_08h25.24.089,empathy_intonation_perc,2024.1.4,MacIntel,33.33333333,,,,,,,,,,,,,,11,golf,,,,,,124.018,126.284,1,0,1.743,,0,44,44,10,1,three_way_cognate,1,REAL,FALSA
,,,,,,,,,Greblicki,001,2024-06-20_08h25.24.089,empathy_intonation_perc,2024.1.4,MacIntel,33.33333333,,,,,,,,,,,,,,23,plural,,,,,,126.284,127.518,1,0,0.694,,0,45,45,22,1,three_way_cognate,1,REAL,FALSA
,,,,,,,,,Greblicki,001,2024-06-20_08h25.24.089,empathy_intonation_perc,2024.1.4,MacIntel,33.33333333,,,,,,,,,,,,,,141,virios,,,,,,127.518,128.851,0,1,0.797,,0,46,46,140,1,pseudoword,0,REAL,FALSA
,,,,,,,,,Greblicki,001,2024-06-20_08h25.24.089,empathy_intonation_perc,2024.1.4,MacIntel,33.33333333,,,,,,,,,,,,,,157,seled,,,,,,128.852,130.151,0,1,0.734,,0,47,47,156,1,pseudoword,0,REAL,FALSA
,,,,,,,,,Greblicki,001,2024-06-20_08h25.24.089,empathy_intonation_perc,2024.1.4,MacIntel,33.33333333,,,,,,,,,,,,,,144,diroco,,,,,,130.152,133.318,0,1,2.597,,0,48,48,143,1,pseudoword,0,REAL,FALSA
,,,,,,,,,Greblicki,001,2024-06-20_08h25.24.089,empathy_intonation_perc,2024.1.4,MacIntel,33.33333333,,,,,,,,,,,,,,99,bugor,,,,,,133.318,134.585,0,1,0.733,,0,49,49,98,1,pseudoword,0,REAL,FALSA
,,,,,,,,,Greblicki,001,2024-06-20_08h25.24.089,empathy_intonation_perc,2024.1.4,MacIntel,33.33333333,,,,,,,,,,,,,,1,moral,,,,,,134.585,135.784,1,0,0.631,,0,50,50,0,1,three_way_cognate,1,REAL,FALSA
,,,,,,,,,Greblicki,001,2024-06-20_08h25.24.089,empathy_intonation_perc,2024.1.4,MacIntel,33.33333333,,,,,,,,,,,,,,63,hilo,,,,,,135.784,137.051,1,0,0.727,,0,51,51,62,1,non_cognate,1,REAL,FALSA
,,,,,,,,,Greblicki,001,2024-06-20_08h25.24.089,empathy_intonation_perc,2024.1.4,MacIntel,33.33333333,,,,,,,,,,,,,,177,entodo,,,,,,137.052,138.351,0,1,0.729,,0,52,52,176,1,pseudoword,0,REAL,FALSA
,,,,,,,,,Greblicki,001,2024-06-20_08h25.24.089,empathy_intonation_perc,2024.1.4,MacIntel,33.33333333,,,,,,,,,,,,,,181,gravés,,,,,,138.351,141.217,0,1,2.329,,0,53,53,180,1,pseudoword,0,REAL,FALSA
,,,,,,,,,Greblicki,001,2024-06-20_08h25.24.089,empathy_intonation_perc,2024.1.4,MacIntel,33.33333333,,,,,,,,,,,,,,155,kugis,,,,,,141.217,142.484,0,1,0.729,,0,54,54,154,1,pseudoword,0,REAL,FALSA
,,,,,,,,,Greblicki,001,2024-06-20_08h25.24.089,empathy_intonation_perc,2024.1.4,MacIntel,33.33333333,,,,,,,,,,,,,,191,frasis,,,,,,142.484,143.684,1,0,0.661,,0,55,55,190,1,pseudoword,0,REAL,FALSA
,,,,,,,,,Greblicki,001,2024-06-20_08h25.24.089,empathy_intonation_perc,2024.1.4,MacIntel,33.33333333,,,,,,,,,,,,,,160,fomeó,,,,,,143.685,144.918,0,1,0.66,,0,56,56,159,1,pseudoword,0,REAL,FALSA
,,,,,,,,,Greblicki,001,2024-06-20_08h25.24.089,empathy_intonation_perc,2024.1.4,MacIntel,33.33333333,,,,,,,,,,,,,,106,diebro,,,,,,144.918,146.05,0,1,0.571,,0,57,57,105,1,pseudoword,0,REAL,FALSA
,,,,,,,,,Greblicki,001,2024-06-20_08h25.24.089,empathy_intonation_perc,2024.1.4,MacIntel,33.33333333,,,,,,,,,,,,,,55,maldad,,,,,,146.051,147.585,1,0,0.995,,0,58,58,54,1,non_cognate,1,REAL,FALSA
,,,,,,,,,Greblicki,001,2024-06-20_08h25.24.089,empathy_intonation_perc,2024.1.4,MacIntel,33.33333333,,,,,,,,,,,,,,17,clan,,,,,,147.585,149.051,1,0,0.897,,0,59,59,16,1,three_way_cognate,1,REAL,FALSA
,,,,,,,,,Greblicki,001,2024-06-20_08h25.24.089,empathy_intonation_perc,2024.1.4,MacIntel,33.33333333,,,,,,,,,,,,,,45,total,,,,,,149.051,150.284,1,0,0.665,,0,60,60,44,1,two_way_cognate,1,REAL,FALSA
,,,,,,,,,Greblicki,001,2024-06-20_08h25.24.089,empathy_intonation_perc,2024.1.4,MacIntel,33.33333333,,,,,,,,,,,,,,61,aduana,,,,,,150.285,151.551,0,1,0.697,,0,61,61,60,1,non_cognate,1,REAL,FALSA
,,,,,,,,,Greblicki,001,2024-06-20_08h25.24.089,empathy_intonation_perc,2024.1.4,MacIntel,33.33333333,,,,,,,,,,,,,,50,sierra,,,,,,151.551,152.684,1,0,0.597,,0,62,62,49,1,non_cognate,1,REAL,FALSA
,,,,,,,,,Greblicki,001,2024-06-20_08h25.24.089,empathy_intonation_perc,2024.1.4,MacIntel,33.33333333,,,,,,,,,,,,,,161,civas,,,,,,152.685,154.551,0,1,1.298,,0,63,63,160,1,pseudoword,0,REAL,FALSA
,,,,,,,,,Greblicki,001,2024-06-20_08h25.24.089,empathy_intonation_perc,2024.1.4,MacIntel,33.33333333,,,,,,,,,,,,,,27,piano,,,,,,154.551,155.718,1,0,0.607,,0,64,64,26,1,two_way_cognate,1,REAL,FALSA
,,,,,,,,,Greblicki,001,2024-06-20_08h25.24.089,empathy_intonation_perc,2024.1.4,MacIntel,33.33333333,,,,,,,,,,,,,,178,inichó,,,,,,155.718,157.518,0,1,1.23,,0,65,65,177,1,pseudoword,0,REAL,FALSA
,,,,,,,,,Greblicki,001,2024-06-20_08h25.24.089,empathy_intonation_perc,2024.1.4,MacIntel,33.33333333,,,,,,,,,,,,,,30,fiscal,,,,,,157.518,158.718,1,0,0.661,,0,66,66,29,1,two_way_cognate,1,REAL,FALSA
,,,,,,,,,Greblicki,001,2024-06-20_08h25.24.089,empathy_intonation_perc,2024.1.4,MacIntel,33.33333333,,,,,,,,,,,,,,128,pelí,,,,,,158.718,160.051,1,0,0.796,,0,67,67,127,1,pseudoword,0,REAL,FALSA
,,,,,,,,,Greblicki,001,2024-06-20_08h25.24.089,empathy_intonation_perc,2024.1.4,MacIntel,33.33333333,,,,,,,,,,,,,,8,kilo,,,,,,160.051,161.284,1,0,0.7,,0,68,68,7,1,three_way_cognate,1,REAL,FALSA
,,,,,,,,,Greblicki,001,2024-06-20_08h25.24.089,empathy_intonation_perc,2024.1.4,MacIntel,33.33333333,,,,,,,,,,,,,,21,hotel,,,,,,161.284,162.417,1,0,0.594,,0,69,69,20,1,three_way_cognate,1,REAL,FALSA
,,,,,,,,,Greblicki,001,2024-06-20_08h25.24.089,empathy_intonation_perc,2024.1.4,MacIntel,33.33333333,,,,,,,,,,,,,,114,dibrea,,,,,,162.417,163.784,0,1,0.833,,0,70,70,113,1,pseudoword,0,REAL,FALSA
,,,,,,,,,Greblicki,001,2024-06-20_08h25.24.089,empathy_intonation_perc,2024.1.4,MacIntel,33.33333333,,,,,,,,,,,,,,137,trugo,,,,,,163.784,165.017,0,1,0.699,,0,71,71,136,1,pseudoword,0,REAL,FALSA
,,,,,,,,,Greblicki,001,2024-06-20_08h25.24.089,empathy_intonation_perc,2024.1.4,MacIntel,33.33333333,,,,,,,,,,,,,,7,albino,,,,,,165.017,166.318,1,0,0.762,,0,72,72,6,1,three_way_cognate,1,REAL,FALSA
,,,,,,,,,Greblicki,001,2024-06-20_08h25.24.089,empathy_intonation_perc,2024.1.4,MacIntel,33.33333333,,,,,,,,,,,,,,97,nocita,,,,,,166.318,167.518,1,0,0.631,,0,73,73,96,1,pseudoword,0,REAL,FALSA
,,,,,,,,,Greblicki,001,2024-06-20_08h25.24.089,empathy_intonation_perc,2024.1.4,MacIntel,33.33333333,,,,,,,,,,,,,,120,mauja,,,,,,167.518,168.95,0,1,0.86,,0,74,74,119,1,pseudoword,0,REAL,FALSA
,,,,,,,,,Greblicki,001,2024-06-20_08h25.24.089,empathy_intonation_perc,2024.1.4,MacIntel,33.33333333,,,,,,,,,,,,,,105,leniz,,,,,,168.95,170.151,0,1,0.663,,0,75,75,104,1,pseudoword,0,REAL,FALSA
,,,,,,,,,Greblicki,001,2024-06-20_08h25.24.089,empathy_intonation_perc,2024.1.4,MacIntel,33.33333333,,,,,,,,,,,,,,85,enorme,,,,,,170.151,171.484,1,0,0.796,,0,76,76,84,1,non_cognate,1,REAL,FALSA
,,,,,,,,,Greblicki,001,2024-06-20_08h25.24.089,empathy_intonation_perc,2024.1.4,MacIntel,33.33333333,,,,,,,,,,,,,,33,collar,,,,,,171.484,172.883,1,0,0.831,,0,77,77,32,1,two_way_cognate,1,REAL,FALSA
,,,,,,,,,Greblicki,001,2024-06-20_08h25.24.089,empathy_intonation_perc,2024.1.4,MacIntel,33.33333333,,,,,,,,,,,,,,41,pasta,,,,,,172.884,174.018,1,0,0.597,,0,78,78,40,1,two_way_cognate,1,REAL,FALSA
,,,,,,,,,Greblicki,001,2024-06-20_08h25.24.089,empathy_intonation_perc,2024.1.4,MacIntel,33.33333333,,,,,,,,,,,,,,173,mibro,,,,,,174.018,175.283,0,1,0.695,,0,79,79,172,1,pseudoword,0,REAL,FALSA
,,,,,,,,,Greblicki,001,2024-06-20_08h25.24.089,empathy_intonation_perc,2024.1.4,MacIntel,33.33333333,,,,,,,,,,,,,,65,guerra,,,,,,175.283,176.517,1,0,0.697,,0,80,80,64,1,non_cognate,1,REAL,FALSA
,,,,,,,,,Greblicki,001,2024-06-20_08h25.24.089,empathy_intonation_perc,2024.1.4,MacIntel,33.33333333,,,,,,,,,,,,,,185,aljizo,,,,,,176.517,177.917,0,1,0.866,,0,81,81,184,1,pseudoword,0,REAL,FALSA
,,,,,,,,,Greblicki,001,2024-06-20_08h25.24.089,empathy_intonation_perc,2024.1.4,MacIntel,33.33333333,,,,,,,,,,,,,,36,viable,,,,,,177.918,179.317,1,0,0.831,,0,82,82,35,1,two_way_cognate,1,REAL,FALSA
,,,,,,,,,Greblicki,001,2024-06-20_08h25.24.089,empathy_intonation_perc,2024.1.4,MacIntel,33.33333333,,,,,,,,,,,,,,46,mortal,,,,,,179.318,180.583,1,0,0.693,,0,83,83,45,1,two_way_cognate,1,REAL,FALSA
,,,,,,,,,Greblicki,001,2024-06-20_08h25.24.089,empathy_intonation_perc,2024.1.4,MacIntel,33.33333333,,,,,,,,,,,,,,186,rizate,,,,,,180.583,181.717,0,1,0.6,,0,84,84,185,1,pseudoword,0,REAL,FALSA
,,,,,,,,,Greblicki,001,2024-06-20_08h25.24.089,empathy_intonation_perc,2024.1.4,MacIntel,33.33333333,,,,,,,,,,,,,,118,bará,,,,,,181.718,182.917,0,1,0.627,,0,85,85,117,1,pseudoword,0,REAL,FALSA
,,,,,,,,,Greblicki,001,2024-06-20_08h25.24.089,empathy_intonation_perc,2024.1.4,MacIntel,33.33333333,,,,,,,,,,,,,,12,dogma,,,,,,182.917,184.051,0,1,0.599,,0,86,86,11,1,three_way_cognate,1,REAL,FALSA
,,,,,,,,,Greblicki,001,2024-06-20_08h25.24.089,empathy_intonation_perc,2024.1.4,MacIntel,33.33333333,,,,,,,,,,,,,,131,fuar,,,,,,184.051,185.183,0,1,0.597,,0,87,87,130,1,pseudoword,0,REAL,FALSA
,,,,,,,,,Greblicki,001,2024-06-20_08h25.24.089,empathy_intonation_perc,2024.1.4,MacIntel,33.33333333,,,,,,,,,,,,,,53,punta,,,,,,185.184,186.384,1,0,0.663,,0,88,88,52,1,non_cognate,1,REAL,FALSA
,,,,,,,,,Greblicki,001,2024-06-20_08h25.24.089,empathy_intonation_perc,2024.1.4,MacIntel,33.33333333,,,,,,,,,,,,,,81,sacar,,,,,,186.384,187.551,1,0,0.633,,0,89,89,80,1,non_cognate,1,REAL,FALSA
,,,,,,,,,Greblicki,001,2024-06-20_08h25.24.089,empathy_intonation_perc,2024.1.4,MacIntel,33.33333333,,,,,,,,,,,,,,122,boñaz,,,,,,187.551,188.717,0,1,0.628,,0,90,90,121,1,pseudoword,0,REAL,FALSA
,,,,,,,,,Greblicki,001,2024-06-20_08h25.24.089,empathy_intonation_perc,2024.1.4,MacIntel,33.33333333,,,,,,,,,,,,,,158,babrá,,,,,,188.717,189.917,0,1,0.671,,0,91,91,157,1,pseudoword,0,REAL,FALSA
,,,,,,,,,Greblicki,001,2024-06-20_08h25.24.089,empathy_intonation_perc,2024.1.4,MacIntel,33.33333333,,,,,,,,,,,,,,162,cengo,,,,,,189.918,191.117,0,1,0.637,,0,92,92,161,1,pseudoword,0,REAL,FALSA
,,,,,,,,,Greblicki,001,2024-06-20_08h25.24.089,empathy_intonation_perc,2024.1.4,MacIntel,33.33333333,,,,,,,,,,,,,,60,siglo,,,,,,191.117,192.383,1,0,0.727,,0,93,93,59,1,non_cognate,1,REAL,FALSA
,,,,,,,,,Greblicki,001,2024-06-20_08h25.24.089,empathy_intonation_perc,2024.1.4,MacIntel,33.33333333,,,,,,,,,,,,,,110,densó,,,,,,192.383,193.583,0,1,0.662,,0,94,94,109,1,pseudoword,0,REAL,FALSA
,,,,,,,,,Greblicki,001,2024-06-20_08h25.24.089,empathy_intonation_perc,2024.1.4,MacIntel,33.33333333,,,,,,,,,,,,,,29,clamor,,,,,,193.583,195.084,0,1,0.967,,0,95,95,28,1,two_way_cognate,1,REAL,FALSA
,,,,,,,,,Greblicki,001,2024-06-20_08h25.24.089,empathy_intonation_perc,2024.1.4,MacIntel,33.33333333,,,,,,,,,,,,,,64,rizado,,,,,,195.084,196.284,0,1,0.634,,0,96,96,63,1,non_cognate,1,REAL,FALSA
,,,,,,,,,Greblicki,001,2024-06-20_08h25.24.089,empathy_intonation_perc,2024.1.4,MacIntel,33.33333333,,,,,,,,,,,,,,166,anfia,,,,,,196.284,197.417,0,1,0.601,,0,97,97,165,1,pseudoword,0,REAL,FALSA
,,,,,,,,,Greblicki,001,2024-06-20_08h25.24.089,empathy_intonation_perc,2024.1.4,MacIntel,33.33333333,,,,,,,,,,,,,,130,dubo,,,,,,197.417,198.584,0,1,0.598,,0,98,98,129,1,pseudoword,0,REAL,FALSA
,,,,,,,,,Greblicki,001,2024-06-20_08h25.24.089,empathy_intonation_perc,2024.1.4,MacIntel,33.33333333,,,,,,,,,,,,,,138,tator,,,,,,198.584,200.05,0,1,0.896,,0,99,99,137,1,pseudoword,0,REAL,FALSA
,,,,,,,,,Greblicki,001,2024-06-20_08h25.24.089,empathy_intonation_perc,2024.1.4,MacIntel,33.33333333,,,,,,,,,,,,,,150,cricó,,,,,,200.05,201.384,0,1,0.796,,0,100,100,149,1,pseudoword,0,REAL,FALSA
,,,,,,,,,Greblicki,001,2024-06-20_08h25.24.089,empathy_intonation_perc,2024.1.4,MacIntel,33.33333333,,,,,,,,,,,,,,49,teñir,,,,,,201.384,202.484,1,0,0.563,,0,101,101,48,1,non_cognate,1,REAL,FALSA
,,,,,,,,,Greblicki,001,2024-06-20_08h25.24.089,empathy_intonation_perc,2024.1.4,MacIntel,33.33333333,,,,,,,,,,,,,,175,tradía,,,,,,202.484,203.717,0,1,0.7,,0,102,102,174,1,pseudoword,0,REAL,FALSA
,,,,,,,,,Greblicki,001,2024-06-20_08h25.24.089,empathy_intonation_perc,2024.1.4,MacIntel,33.33333333,,,,,,,,,,,,,,107,plago,,,,,,203.717,204.851,0,1,0.596,,0,103,103,106,1,pseudoword,0,REAL,FALSA
,,,,,,,,,Greblicki,001,2024-06-20_08h25.24.089,empathy_intonation_perc,2024.1.4,MacIntel,33.33333333,,,,,,,,,,,,,,40,pelvis,,,,,,204.851,206.284,0,1,0.863,,0,104,104,39,1,two_way_cognate,1,REAL,FALSA
,,,,,,,,,Greblicki,001,2024-06-20_08h25.24.089,empathy_intonation_perc,2024.1.4,MacIntel,33.33333333,,,,,,,,,,,,,,149,emén,,,,,,206.284,207.517,0,1,0.663,,0,105,105,148,1,pseudoword,0,REAL,FALSA
,,,,,,,,,Greblicki,001,2024-06-20_08h25.24.089,empathy_intonation_perc,2024.1.4,MacIntel,33.33333333,,,,,,,,,,,,,,76,chocar,,,,,,207.518,208.757,1,0,0.663,,0,106,106,75,1,non_cognate,1,REAL,FALSA
,,,,,,,,,Greblicki,001,2024-06-20_08h25.24.089,empathy_intonation_perc,2024.1.4,MacIntel,33.33333333,,,,,,,,,,,,,,38,halo,,,,,,208.757,210.449,0,1,1.128,,0,107,107,37,1,two_way_cognate,1,REAL,FALSA
,,,,,,,,,Greblicki,001,2024-06-20_08h25.24.089,empathy_intonation_perc,2024.1.4,MacIntel,33.33333333,,,,,,,,,,,,,,9,portal,,,,,,210.45,211.616,1,0,0.628,,0,108,108,8,1,three_way_cognate,1,REAL,FALSA
,,,,,,,,,Greblicki,001,2024-06-20_08h25.24.089,empathy_intonation_perc,2024.1.4,MacIntel,33.33333333,,,,,,,,,,,,,,184,huenos,,,,,,211.616,213.084,0,1,0.929,,0,109,109,183,1,pseudoword,0,REAL,FALSA
,,,,,,,,,Greblicki,001,2024-06-20_08h25.24.089,empathy_intonation_perc,2024.1.4,MacIntel,33.33333333,,,,,,,,,,,,,,154,harvé,,,,,,213.084,214.317,0,1,0.695,,0,110,110,153,1,pseudoword,0,REAL,FALSA
,,,,,,,,,Greblicki,001,2024-06-20_08h25.24.089,empathy_intonation_perc,2024.1.4,MacIntel,33.33333333,,,,,,,,,,,,,,119,esís,,,,,,214.317,215.484,0,1,0.634,,0,111,111,118,1,pseudoword,0,REAL,FALSA
,,,,,,,,,Greblicki,001,2024-06-20_08h25.24.089,empathy_intonation_perc,2024.1.4,MacIntel,33.33333333,,,,,,,,,,,,,,153,golla,,,,,,215.484,216.849,0,1,0.8,,0,112,112,152,1,pseudoword,0,REAL,FALSA
,,,,,,,,,Greblicki,001,2024-06-20_08h25.24.089,empathy_intonation_perc,2024.1.4,MacIntel,33.33333333,,,,,,,,,,,,,,179,suelet,,,,,,216.849,218.283,0,1,0.897,,0,113,113,178,1,pseudoword,0,REAL,FALSA
,,,,,,,,,Greblicki,001,2024-06-20_08h25.24.089,empathy_intonation_perc,2024.1.4,MacIntel,33.33333333,,,,,,,,,,,,,,34,actor,,,,,,218.284,219.517,1,0,0.663,,0,114,114,33,1,two_way_cognate,1,REAL,FALSA
,,,,,,,,,Greblicki,001,2024-06-20_08h25.24.089,empathy_intonation_perc,2024.1.4,MacIntel,33.33333333,,,,,,,,,,,,,,4,flora,,,,,,219.517,220.65,1,0,0.596,,0,115,115,3,1,three_way_cognate,1,REAL,FALSA
,,,,,,,,,Greblicki,001,2024-06-20_08h25.24.089,empathy_intonation_perc,2024.1.4,MacIntel,33.33333333,,,,,,,,,,,,,,10,drama,,,,,,220.65,221.75,1,0,0.566,,0,116,116,9,1,three_way_cognate,1,REAL,FALSA
,,,,,,,,,Greblicki,001,2024-06-20_08h25.24.089,empathy_intonation_perc,2024.1.4,MacIntel,33.33333333,,,,,,,,,,,,,,51,listo,,,,,,221.75,222.817,1,0,0.53,,0,117,117,50,1,non_cognate,1,REAL,FALSA
,,,,,,,,,Greblicki,001,2024-06-20_08h25.24.089,empathy_intonation_perc,2024.1.4,MacIntel,33.33333333,,,,,,,,,,,,,,117,morrá,,,,,,222.817,224.05,0,1,0.699,,0,118,118,116,1,pseudoword,0,REAL,FALSA
,,,,,,,,,Greblicki,001,2024-06-20_08h25.24.089,empathy_intonation_perc,2024.1.4,MacIntel,33.33333333,,,,,,,,,,,,,,47,color,,,,,,224.05,225.217,1,0,0.596,,0,119,119,46,1,two_way_cognate,1,REAL,FALSA
,,,,,,,,,Greblicki,001,2024-06-20_08h25.24.089,empathy_intonation_perc,2024.1.4,MacIntel,33.33333333,,,,,,,,,,,,,,78,rendir,,,,,,225.217,226.85,1,0,1.063,,0,120,120,77,1,non_cognate,1,REAL,FALSA
,,,,,,,,,Greblicki,001,2024-06-20_08h25.24.089,empathy_intonation_perc,2024.1.4,MacIntel,33.33333333,,,,,,,,,,,,,,24,retina,,,,,,226.85,228.183,0,1,0.8,,0,121,121,23,1,three_way_cognate,1,REAL,FALSA
,,,,,,,,,Greblicki,001,2024-06-20_08h25.24.089,empathy_intonation_perc,2024.1.4,MacIntel,33.33333333,,,,,,,,,,,,,,57,regalo,,,,,,228.183,229.317,1,0,0.563,,0,122,122,56,1,non_cognate,1,REAL,FALSA
,,,,,,,,,Greblicki,001,2024-06-20_08h25.24.089,empathy_intonation_perc,2024.1.4,MacIntel,33.33333333,,,,,,,,,,,,,,43,honor,,,,,,229.317,230.483,1,0,0.601,,0,123,123,42,1,two_way_cognate,1,REAL,FALSA
,,,,,,,,,Greblicki,001,2024-06-20_08h25.24.089,empathy_intonation_perc,2024.1.4,MacIntel,33.33333333,,,,,,,,,,,,,,54,tapón,,,,,,230.483,232.15,1,0,1.131,,0,124,124,53,1,non_cognate,1,REAL,FALSA
,,,,,,,,,Greblicki,001,2024-06-20_08h25.24.089,empathy_intonation_perc,2024.1.4,MacIntel,33.33333333,,,,,,,,,,,,,,176,gripar,,,,,,232.15,233.383,0,1,0.697,,0,125,125,175,1,pseudoword,0,REAL,FALSA
,,,,,,,,,Greblicki,001,2024-06-20_08h25.24.089,empathy_intonation_perc,2024.1.4,MacIntel,33.33333333,,,,,,,,,,,,,,102,coyo,,,,,,233.384,234.617,0,1,0.664,,0,126,126,101,1,pseudoword,0,REAL,FALSA
,,,,,,,,,Greblicki,001,2024-06-20_08h25.24.089,empathy_intonation_perc,2024.1.4,MacIntel,33.33333333,,,,,,,,,,,,,,86,cuenco,,,,,,234.617,236.316,1,0,1.167,,0,127,127,85,1,non_cognate,1,REAL,FALSA
,,,,,,,,,Greblicki,001,2024-06-20_08h25.24.089,empathy_intonation_perc,2024.1.4,MacIntel,33.33333333,,,,,,,,,,,,,,93,tapa,,,,,,236.316,237.45,1,0,0.599,,0,128,128,92,1,non_cognate,1,REAL,FALSA
,,,,,,,,,Greblicki,001,2024-06-20_08h25.24.089,empathy_intonation_perc,2024.1.4,MacIntel,33.33333333,,,,,,,,,,,,,,88,percha,,,,,,237.45,238.916,0,1,0.914,,0,129,129,87,1,non_cognate,1,REAL,FALSA
,,,,,,,,,Greblicki,001,2024-06-20_08h25.24.089,empathy_intonation_perc,2024.1.4,MacIntel,33.33333333,,,,,,,,,,,,,,143,hurcos,,,,,,238.916,241.016,0,1,1.579,,0,130,130,142,1,pseudoword,0,REAL,FALSA
,,,,,,,,,Greblicki,001,2024-06-20_08h25.24.089,empathy_intonation_perc,2024.1.4,MacIntel,33.33333333,,,,,,,,,,,,,,183,edioso,,,,,,241.016,242.283,0,1,0.731,,0,131,131,182,1,pseudoword,0,REAL,FALSA
,,,,,,,,,Greblicki,001,2024-06-20_08h25.24.089,empathy_intonation_perc,2024.1.4,MacIntel,33.33333333,,,,,,,,,,,,,,84,aviso,,,,,,242.283,243.616,1,0,0.765,,0,132,132,83,1,non_cognate,1,REAL,FALSA
,,,,,,,,,Greblicki,001,2024-06-20_08h25.24.089,empathy_intonation_perc,2024.1.4,MacIntel,33.33333333,,,,,,,,,,,,,,14,aura,,,,,,243.616,244.75,1,0,0.608,,0,133,133,13,1,three_way_cognate,1,REAL,FALSA
,,,,,,,,,Greblicki,001,2024-06-20_08h25.24.089,empathy_intonation_perc,2024.1.4,MacIntel,33.33333333,,,,,,,,,,,,,,25,vigor,,,,,,244.75,246.75,1,0,1.442,,0,134,134,24,1,two_way_cognate,1,REAL,FALSA
,,,,,,,,,Greblicki,001,2024-06-20_08h25.24.089,empathy_intonation_perc,2024.1.4,MacIntel,33.33333333,,,,,,,,,,,,,,136,hueas,,,,,,246.75,248.416,0,1,1.097,,0,135,135,135,1,pseudoword,0,REAL,FALSA
,,,,,,,,,Greblicki,001,2024-06-20_08h25.24.089,empathy_intonation_perc,2024.1.4,MacIntel,33.33333333,,,,,,,,,,,,,,159,trcia,,,,,,248.417,249.716,0,1,0.73,,0,136,136,158,1,pseudoword,0,REAL,FALSA
,,,,,,,,,Greblicki,001,2024-06-20_08h25.24.089,empathy_intonation_perc,2024.1.4,MacIntel,33.33333333,,,,,,,,,,,,,,71,torta,,,,,,249.717,251.016,1,0,0.736,,0,137,137,70,1,non_cognate,1,REAL,FALSA
,,,,,,,,,Greblicki,001,2024-06-20_08h25.24.089,empathy_intonation_perc,2024.1.4,MacIntel,33.33333333,,,,,,,,,,,,,,73,llevar,,,,,,251.016,252.316,1,0,0.767,,0,138,138,72,1,non_cognate,1,REAL,FALSA
,,,,,,,,,Greblicki,001,2024-06-20_08h25.24.089,empathy_intonation_perc,2024.1.4,MacIntel,33.33333333,,,,,,,,,,,,,,39,casual,,,,,,252.317,253.483,1,0,0.599,,0,139,139,38,1,two_way_cognate,1,REAL,FALSA
,,,,,,,,,Greblicki,001,2024-06-20_08h25.24.089,empathy_intonation_perc,2024.1.4,MacIntel,33.33333333,,,,,,,,,,,,,,121,barbs,,,,,,253.483,254.816,0,1,0.797,,0,140,140,120,1,pseudoword,0,REAL,FALSA
,,,,,,,,,Greblicki,001,2024-06-20_08h25.24.089,empathy_intonation_perc,2024.1.4,MacIntel,33.33333333,,,,,,,,,,,,,,89,muñeca,,,,,,254.816,256.083,1,0,0.699,,0,141,141,88,1,non_cognate,1,REAL,FALSA
,,,,,,,,,Greblicki,001,2024-06-20_08h25.24.089,empathy_intonation_perc,2024.1.4,MacIntel,33.33333333,,,,,,,,,,,,,,96,caro,,,,,,256.083,257.25,1,0,0.63,,0,142,142,95,1,non_cognate,1,REAL,FALSA
,,,,,,,,,Greblicki,001,2024-06-20_08h25.24.089,empathy_intonation_perc,2024.1.4,MacIntel,33.33333333,,,,,,,,,,,,,,165,chote,,,,,,257.25,259.616,1,0,1.798,,0,143,143,164,1,pseudoword,0,REAL,FALSA
,,,,,,,,,Greblicki,001,2024-06-20_08h25.24.089,empathy_intonation_perc,2024.1.4,MacIntel,33.33333333,,,,,,,,,,,,,,70,ánimo,,,,,,259.617,260.783,1,0,0.596,,0,144,144,69,1,non_cognate,1,REAL,FALSA
,,,,,,,,,Greblicki,001,2024-06-20_08h25.24.089,empathy_intonation_perc,2024.1.4,MacIntel,33.33333333,,,,,,,,,,,,,,133,conso,,,,,,260.783,262.183,0,1,0.863,,0,145,145,132,1,pseudoword,0,REAL,FALSA
,,,,,,,,,Greblicki,001,2024-06-20_08h25.24.089,empathy_intonation_perc,2024.1.4,MacIntel,33.33333333,,,,,,,,,,,,,,19,mafia,,,,,,262.183,263.316,1,0,0.596,,0,146,146,18,1,three_way_cognate,1,REAL,FALSA
,,,,,,,,,Greblicki,001,2024-06-20_08h25.24.089,empathy_intonation_perc,2024.1.4,MacIntel,33.33333333,,,,,,,,,,,,,,26,enigma,,,,,,263.316,265.783,1,0,1.93,,0,147,147,25,1,two_way_cognate,1,REAL,FALSA
,,,,,,,,,Greblicki,001,2024-06-20_08h25.24.089,empathy_intonation_perc,2024.1.4,MacIntel,33.33333333,,,,,,,,,,,,,,95,listo,,,,,,265.783,266.85,1,0,0.534,,0,148,148,94,1,non_cognate,1,REAL,FALSA
,,,,,,,,,Greblicki,001,2024-06-20_08h25.24.089,empathy_intonation_perc,2024.1.4,MacIntel,33.33333333,,,,,,,,,,,,,,80,cuenco,,,,,,266.85,268.249,0,1,0.831,,0,149,149,79,1,non_cognate,1,REAL,FALSA
,,,,,,,,,Greblicki,001,2024-06-20_08h25.24.089,empathy_intonation_perc,2024.1.4,MacIntel,33.33333333,,,,,,,,,,,,,,172,dogue,,,,,,268.249,269.883,0,1,1.098,,0,150,150,171,1,pseudoword,0,REAL,FALSA
,,,,,,,,,Greblicki,001,2024-06-20_08h25.24.089,empathy_intonation_perc,2024.1.4,MacIntel,33.33333333,,,,,,,,,,,,,,69,tiza,,,,,,269.883,271.216,0,1,0.768,,0,151,151,68,1,non_cognate,1,REAL,FALSA
,,,,,,,,,Greblicki,001,2024-06-20_08h25.24.089,empathy_intonation_perc,2024.1.4,MacIntel,33.33333333,,,,,,,,,,,,,,169,pitis,,,,,,271.216,272.449,0,1,0.696,,0,152,152,168,1,pseudoword,0,REAL,FALSA
,,,,,,,,,Greblicki,001,2024-06-20_08h25.24.089,empathy_intonation_perc,2024.1.4,MacIntel,33.33333333,,,,,,,,,,,,,,139,sasos,,,,,,272.449,273.749,0,1,0.76,,0,153,153,138,1,pseudoword,0,REAL,FALSA
,,,,,,,,,Greblicki,001,2024-06-20_08h25.24.089,empathy_intonation_perc,2024.1.4,MacIntel,33.33333333,,,,,,,,,,,,,,101,losco,,,,,,273.75,275.249,0,1,0.928,,0,154,154,100,1,pseudoword,0,REAL,FALSA
,,,,,,,,,Greblicki,001,2024-06-20_08h25.24.089,empathy_intonation_perc,2024.1.4,MacIntel,33.33333333,,,,,,,,,,,,,,3,disco,,,,,,275.25,276.483,1,0,0.665,,0,155,155,2,1,three_way_cognate,1,REAL,FALSA
,,,,,,,,,Greblicki,001,2024-06-20_08h25.24.089,empathy_intonation_perc,2024.1.4,MacIntel,33.33333333,,,,,,,,,,,,,,163,olzan,,,,,,276.483,277.849,0,1,0.806,,0,156,156,162,1,pseudoword,0,REAL,FALSA
,,,,,,,,,Greblicki,001,2024-06-20_08h25.24.089,empathy_intonation_perc,2024.1.4,MacIntel,33.33333333,,,,,,,,,,,,,,48,pelvis,,,,,,277.849,280.082,1,0,1.7,,0,157,157,47,1,two_way_cognate,1,REAL,FALSA
,,,,,,,,,Greblicki,001,2024-06-20_08h25.24.089,empathy_intonation_perc,2024.1.4,MacIntel,33.33333333,,,,,,,,,,,,,,68,puñal,,,,,,280.082,281.716,0,1,1.099,,0,158,158,67,1,non_cognate,1,REAL,FALSA
,,,,,,,,,Greblicki,001,2024-06-20_08h25.24.089,empathy_intonation_perc,2024.1.4,MacIntel,33.33333333,,,,,,,,,,,,,,98,martir,,,,,,281.716,283.216,1,0,0.925,,0,159,159,97,1,pseudoword,0,REAL,FALSA
,,,,,,,,,Greblicki,001,2024-06-20_08h25.24.089,empathy_intonation_perc,2024.1.4,MacIntel,33.33333333,,,,,,,,,,,,,,111,monue,,,,,,283.216,284.415,0,1,0.63,,0,160,160,110,1,pseudoword,0,REAL,FALSA
,,,,,,,,,Greblicki,001,2024-06-20_08h25.24.089,empathy_intonation_perc,2024.1.4,MacIntel,33.33333333,,,,,,,,,,,,,,123,arane,,,,,,284.416,285.749,0,1,0.798,,0,161,161,122,1,pseudoword,0,REAL,FALSA
,,,,,,,,,Greblicki,001,2024-06-20_08h25.24.089,empathy_intonation_perc,2024.1.4,MacIntel,33.33333333,,,,,,,,,,,,,,113,nasce,,,,,,285.749,287.116,0,1,0.831,,0,162,162,112,1,pseudoword,0,REAL,FALSA
,,,,,,,,,Greblicki,001,2024-06-20_08h25.24.089,empathy_intonation_perc,2024.1.4,MacIntel,33.33333333,,,,,,,,,,,,,,44,editor,,,,,,287.116,288.249,1,0,0.596,,0,163,163,43,1,two_way_cognate,1,REAL,FALSA
,,,,,,,,,Greblicki,001,2024-06-20_08h25.24.089,empathy_intonation_perc,2024.1.4,MacIntel,33.33333333,,,,,,,,,,,,,,66,aleta,,,,,,288.249,289.749,1,0,0.964,,0,164,164,65,1,non_cognate,1,REAL,FALSA
,,,,,,,,,Greblicki,001,2024-06-20_08h25.24.089,empathy_intonation_perc,2024.1.4,MacIntel,33.33333333,,,,,,,,,,,,,,31,civil,,,,,,289.749,290.949,1,0,0.666,,0,165,165,30,1,two_way_cognate,1,REAL,FALSA
,,,,,,,,,Greblicki,001,2024-06-20_08h25.24.089,empathy_intonation_perc,2024.1.4,MacIntel,33.33333333,,,,,,,,,,,,,,52,blando,,,,,,290.949,292.383,1,0,0.897,,0,166,166,51,1,non_cognate,1,REAL,FALSA
,,,,,,,,,Greblicki,001,2024-06-20_08h25.24.089,empathy_intonation_perc,2024.1.4,MacIntel,33.33333333,,,,,,,,,,,,,,142,parre,,,,,,292.383,293.648,0,1,0.697,,0,167,167,141,1,pseudoword,0,REAL,FALSA
,,,,,,,,,Greblicki,001,2024-06-20_08h25.24.089,empathy_intonation_perc,2024.1.4,MacIntel,33.33333333,,,,,,,,,,,,,,16,chat,,,,,,293.649,295.215,1,0,1.033,,0,168,168,15,1,three_way_cognate,1,REAL,FALSA
,,,,,,,,,Greblicki,001,2024-06-20_08h25.24.089,empathy_intonation_perc,2024.1.4,MacIntel,33.33333333,,,,,,,,,,,,,,2,tumor,,,,,,295.216,296.682,1,0,0.931,,0,169,169,1,1,three_way_cognate,1,REAL,FALSA
,,,,,,,,,Greblicki,001,2024-06-20_08h25.24.089,empathy_intonation_perc,2024.1.4,MacIntel,33.33333333,,,,,,,,,,,,,,116,grigir,,,,,,296.683,297.916,0,1,0.667,,0,170,170,115,1,pseudoword,0,REAL,FALSA
,,,,,,,,,Greblicki,001,2024-06-20_08h25.24.089,empathy_intonation_perc,2024.1.4,MacIntel,33.33333333,,,,,,,,,,,,,,189,medium,,,,,,297.916,299.081,1,0,0.63,,0,171,171,188,1,pseudoword,0,REAL,FALSA
,,,,,,,,,Greblicki,001,2024-06-20_08h25.24.089,empathy_intonation_perc,2024.1.4,MacIntel,33.33333333,,,,,,,,,,,,,,15,test,,,,,,299.082,300.283,1,0,0.662,,0,172,172,14,1,three_way_cognate,1,REAL,FALSA
,,,,,,,,,Greblicki,001,2024-06-20_08h25.24.089,empathy_intonation_perc,2024.1.4,MacIntel,33.33333333,,,,,,,,,,,,,,90,venado,,,,,,300.283,301.582,0,1,0.729,,0,173,173,89,1,non_cognate,1,REAL,FALSA
,,,,,,,,,Greblicki,001,2024-06-20_08h25.24.089,empathy_intonation_perc,2024.1.4,MacIntel,33.33333333,,,,,,,,,,,,,,170,diabo,,,,,,301.583,302.715,1,0,0.597,,0,174,174,169,1,pseudoword,0,REAL,FALSA
,,,,,,,,,Greblicki,001,2024-06-20_08h25.24.089,empathy_intonation_perc,2024.1.4,MacIntel,33.33333333,,,,,,,,,,,,,,132,nocó,,,,,,302.716,303.982,0,1,0.73,,0,175,175,131,1,pseudoword,0,REAL,FALSA
,,,,,,,,,Greblicki,001,2024-06-20_08h25.24.089,empathy_intonation_perc,2024.1.4,MacIntel,33.33333333,,,,,,,,,,,,,,156,ozoso,,,,,,303.983,305.149,0,1,0.601,,0,176,176,155,1,pseudoword,0,REAL,FALSA
,,,,,,,,,Greblicki,001,2024-06-20_08h25.24.089,empathy_intonation_perc,2024.1.4,MacIntel,33.33333333,,,,,,,,,,,,,,174,pabea,,,,,,305.149,306.282,0,1,0.597,,0,177,177,173,1,pseudoword,0,REAL,FALSA
,,,,,,,,,Greblicki,001,2024-06-20_08h25.24.089,empathy_intonation_perc,2024.1.4,MacIntel,33.33333333,,,,,,,,,,,,,,152,prave,,,,,,306.283,307.449,0,1,0.593,,0,178,178,151,1,pseudoword,0,REAL,FALSA
,,,,,,,,,Greblicki,001,2024-06-20_08h25.24.089,empathy_intonation_perc,2024.1.4,MacIntel,33.33333333,,,,,,,,,,,,,,134,molor,,,,,,307.449,308.582,0,1,0.564,,0,179,179,133,1,pseudoword,0,REAL,FALSA
,,,,,,,,,Greblicki,001,2024-06-20_08h25.24.089,empathy_intonation_perc,2024.1.4,MacIntel,33.33333333,,,,,,,,,,,,,,82,brillo,,,,,,308.583,309.881,1,0,0.727,,0,180,180,81,1,non_cognate,1,REAL,FALSA
,,,,,,,,,Greblicki,001,2024-06-20_08h25.24.089,empathy_intonation_perc,2024.1.4,MacIntel,33.33333333,,,,,,,,,,,,,,94,forro,,,,,,309.882,311.082,0,1,0.662,,0,181,181,93,1,non_cognate,1,REAL,FALSA
,,,,,,,,,Greblicki,001,2024-06-20_08h25.24.089,empathy_intonation_perc,2024.1.4,MacIntel,33.33333333,,,,,,,,,,,,,,171,gotro,,,,,,311.082,312.349,0,1,0.73,,0,182,182,170,1,pseudoword,0,REAL,FALSA
,,,,,,,,,Greblicki,001,2024-06-20_08h25.24.089,empathy_intonation_perc,2024.1.4,MacIntel,33.33333333,,,,,,,,,,,,,,37,torso,,,,,,312.349,313.649,0,1,0.764,,0,183,183,36,1,two_way_cognate,1,REAL,FALSA
,,,,,,,,,Greblicki,001,2024-06-20_08h25.24.089,empathy_intonation_perc,2024.1.4,MacIntel,33.33333333,,,,,,,,,,,,,,164,tecia,,,,,,313.649,314.715,0,1,0.497,,0,184,184,163,1,pseudoword,0,REAL,FALSA
,,,,,,,,,Greblicki,001,2024-06-20_08h25.24.089,empathy_intonation_perc,2024.1.4,MacIntel,33.33333333,,,,,,,,,,,,,,140,chorde,,,,,,314.716,315.882,0,1,0.602,,0,185,185,139,1,pseudoword,0,REAL,FALSA
,,,,,,,,,Greblicki,001,2024-06-20_08h25.24.089,empathy_intonation_perc,2024.1.4,MacIntel,33.33333333,,,,,,,,,,,,,,28,ardor,,,,,,315.882,316.915,0,1,0.497,,0,186,186,27,1,two_way_cognate,1,REAL,FALSA
,,,,,,,,,Greblicki,001,2024-06-20_08h25.24.089,empathy_intonation_perc,2024.1.4,MacIntel,33.33333333,,,,,,,,,,,,,,112,samón,,,,,,316.916,318.149,0,1,0.668,,0,187,187,111,1,pseudoword,0,REAL,FALSA
,,,,,,,,,Greblicki,001,2024-06-20_08h25.24.089,empathy_intonation_perc,2024.1.4,MacIntel,33.33333333,,,,,,,,,,,,,,187,nomata,,,,,,318.149,320.382,0,1,1.695,,0,188,188,186,1,pseudoword,0,REAL,FALSA
,,,,,,,,,Greblicki,001,2024-06-20_08h25.24.089,empathy_intonation_perc,2024.1.4,MacIntel,33.33333333,,,,,,,,,,,,,,87,muleta,,,,,,320.382,321.682,0,1,0.766,,0,189,189,86,1,non_cognate,1,REAL,FALSA
,,,,,,,,,Greblicki,001,2024-06-20_08h25.24.089,empathy_intonation_perc,2024.1.4,MacIntel,33.33333333,,,,,,,,,,,,,,182,desaro,,,,,,321.682,322.882,0,1,0.664,,0,190,190,181,1,pseudoword,0,REAL,FALSA
,,,,,,,,,Greblicki,001,2024-06-20_08h25.24.089,empathy_intonation_perc,2024.1.4,MacIntel,33.33333333,,,,,,,,,,,,,,59,feo,,,,,,322.882,324.016,1,0,0.593,,0,191,191,58,1,non_cognate,1,REAL,FALSA
