lextale_instructions.started,lextale_instructions.stopped,lextale_instructions_loop.thisRepN,lextale_instructions_loop.thisTrialN,lextale_instructions_loop.thisN,lextale_instructions_loop.thisIndex,lextale_instructions_loop.ran,instructions_text,continue_text,participant,session,date,expName,psychopyVersion,OS,frameRate,lextale_practice.started,lextale_practice.stopped,key_resp_lextale_practice.keys,key_resp_lextale_practice.corr,key_resp_lextale_practice.rt,key_resp_lextale_practice.duration,lextale_practice_feedback.started,lextale_practice_feedback.stopped,lextale_practice_trials.thisRepN,lextale_practice_trials.thisTrialN,lextale_practice_trials.thisN,lextale_practice_trials.thisIndex,lextale_practice_trials.ran,stim,word,correct_response,prac_button_real,prac_button_false,lextale_check.started,lextale_check.stopped,lextale_trial.started,lextale_trial.stopped,key_resp_lextale_trial.keys,key_resp_lextale_trial.corr,key_resp_lextale_trial.rt,key_resp_lextale_trial.duration,lextail_trials.thisRepN,lextail_trials.thisTrialN,lextail_trials.thisN,lextail_trials.thisIndex,lextail_trials.ran,type,correct_reponse,button_real,button_false
0.0039,110.4402,0,0,0,0,1,"Este es un test de vocabulario en español. 
  
  A continuación vas a ver 90 secuencias de letras que parecen 'españolas'.
  
  Solo algunas de ellas son palabras de verdad.",(presiona la barra espaciadora para continuar),Raven,001,2024-06-30_06h48.47.844,empathy_intonation_perc,2024.1.4,Win32,59.17159763,,,,,,,,,,,,,,,,,,,,,,,,,,,,,,,,,,,
110.4419,115.4709,0,1,1,1,1,"Por favor, señala las palabras que tú conoces (aquellas que estás convencido que son palabras españolas, incluso aunque no seas capaz de dar el significado preciso).",(presiona la barra espaciadora para continuar),Raven,001,2024-06-30_06h48.47.844,empathy_intonation_perc,2024.1.4,Win32,59.17159763,,,,,,,,,,,,,,,,,,,,,,,,,,,,,,,,,,,
115.4946,116.37,0,2,2,2,1,Pero cuidado: los errores se penalizan. Por eso no tiene sentido tratar de incrementar tu puntuación marcando como reales palabras que nunca has visto.,(presiona la barra espaciadora para continuar),Raven,001,2024-06-30_06h48.47.844,empathy_intonation_perc,2024.1.4,Win32,59.17159763,,,,,,,,,,,,,,,,,,,,,,,,,,,,,,,,,,,
116.3706,117.6692,0,3,3,3,1,"Presiona la tecla 1 si piensas que es una palabra real y la tecla 
  0 si piensas que es una palabra falsa. 
  
  Vamos a practicar un poco...",(presiona la barra espaciadora para continuar),Raven,001,2024-06-30_06h48.47.844,empathy_intonation_perc,2024.1.4,Win32,59.17159763,,,,,,,,,,,,,,,,,,,,,,,,,,,,,,,,,,,
,,,,,,,,,Raven,001,2024-06-30_06h48.47.844,empathy_intonation_perc,2024.1.4,Win32,59.17159763,117.6731,130.0176,1,0,11.8092,,130.0263,131.0184,0,0,0,0,1,0,depiste,0,REAL,FALSA,,,,,,,,,,,,,,,,,
,,,,,,,,,Raven,001,2024-06-30_06h48.47.844,empathy_intonation_perc,2024.1.4,Win32,59.17159763,131.0194,133.1671,1,1,1.619,,133.1672,134.1674,0,1,1,1,1,0,sí,1,REAL,FALSA,,,,,,,,,,,,,,,,,
,,,,,,,,,Raven,001,2024-06-30_06h48.47.844,empathy_intonation_perc,2024.1.4,Win32,59.17159763,134.1886,134.8713,1,0,0.1652,,134.8715,135.8668,0,2,2,2,1,0,coné,0,REAL,FALSA,,,,,,,,,,,,,,,,,
,,,,,,,,,Raven,001,2024-06-30_06h48.47.844,empathy_intonation_perc,2024.1.4,Win32,59.17159763,135.8678,136.6672,1,0,0.26,,136.6673,137.6733,0,3,3,3,1,0,calpar,0,REAL,FALSA,,,,,,,,,,,,,,,,,
,,,,,,,,,Raven,001,2024-06-30_06h48.47.844,empathy_intonation_perc,2024.1.4,Win32,59.17159763,137.674,140.3336,1,0,2.1272,,140.3338,141.3333,0,4,4,4,1,0,joten,0,REAL,FALSA,,,,,,,,,,,,,,,,,
,,,,,,,,,Raven,001,2024-06-30_06h48.47.844,empathy_intonation_perc,2024.1.4,Win32,59.17159763,141.3612,148.2325,1,1,6.343,,148.2327,149.2324,0,5,5,5,1,0,sacapuntas,1,REAL,FALSA,,,,,,,,,,,,,,,,,
,,,,,,,,,Raven,001,2024-06-30_06h48.47.844,empathy_intonation_perc,2024.1.4,Win32,59.17159763,149.2575,150.3492,1,0,0.554,,150.3493,151.348,0,6,6,6,1,0,priba,0,REAL,FALSA,,,,,,,,,,,,,,,,,
,,,,,,,,,Raven,001,2024-06-30_06h48.47.844,empathy_intonation_perc,2024.1.4,Win32,59.17159763,151.3486,152.2985,0,1,0.424,,152.2988,153.2979,0,7,7,7,1,0,pelasula,0,REAL,FALSA,,,,,,,,,,,,,,,,,
,,,,,,,,,Raven,001,2024-06-30_06h48.47.844,empathy_intonation_perc,2024.1.4,Win32,59.17159763,153.2988,154.1319,0,0,0.3043,,154.132,155.1316,0,8,8,8,1,0,bien,1,REAL,FALSA,,,,,,,,,,,,,,,,,
,,,,,,,,,Raven,001,2024-06-30_06h48.47.844,empathy_intonation_perc,2024.1.4,Win32,59.17159763,155.1325,157.1012,1,1,1.4475,,157.1012,158.0972,0,9,9,9,1,0,casa,1,REAL,FALSA,,,,,,,,,,,,,,,,,
,,,,,,,,,Raven,001,2024-06-30_06h48.47.844,empathy_intonation_perc,2024.1.4,Win32,59.17159763,158.1075,158.7533,0,1,0.1162,,158.7534,159.7517,0,10,10,10,1,0,lejo,0,REAL,FALSA,,,,,,,,,,,,,,,,,
,,,,,,,,,Raven,001,2024-06-30_06h48.47.844,empathy_intonation_perc,2024.1.4,Win32,59.17159763,159.7524,162.3643,0,1,2.0697,,162.3645,163.3642,0,11,11,11,1,0,pretantas,0,REAL,FALSA,,,,,,,,,,,,,,,,,
,,,,,,,,,Raven,001,2024-06-30_06h48.47.844,empathy_intonation_perc,2024.1.4,Win32,59.17159763,,,,,,,,,,,,,,,,,,,163.3662,166.2824,,,,,,,,,,,,,,,
,,,,,,,,,Raven,001,2024-06-30_06h48.47.844,empathy_intonation_perc,2024.1.4,Win32,59.17159763,,,,,,,,,,,,,,115,lidena,,,,,,166.3172,167.3225,0,1,0.4675,,0,0,0,114,1,pseudoword,0,REAL,FALSA
,,,,,,,,,Raven,001,2024-06-30_06h48.47.844,empathy_intonation_perc,2024.1.4,Win32,59.17159763,,,,,,,,,,,,,,189,medium,,,,,,167.3236,168.2127,0,1,0.3572,,0,1,1,188,1,pseudoword,0,REAL,FALSA
,,,,,,,,,Raven,001,2024-06-30_06h48.47.844,empathy_intonation_perc,2024.1.4,Win32,59.17159763,,,,,,,,,,,,,,32,animal,,,,,,168.2141,168.8962,1,0,0.1398,,0,2,2,31,1,two_way_cognate,1,REAL,FALSA
,,,,,,,,,Raven,001,2024-06-30_06h48.47.844,empathy_intonation_perc,2024.1.4,Win32,59.17159763,,,,,,,,,,,,,,7,albino,,,,,,168.8975,169.5298,0,1,0.0946,,0,3,3,6,1,three_way_cognate,1,REAL,FALSA
,,,,,,,,,Raven,001,2024-06-30_06h48.47.844,empathy_intonation_perc,2024.1.4,Win32,59.17159763,,,,,,,,,,,,,,135,panté,,,,,,169.531,170.1633,1,0,0.0862,,0,4,4,134,1,pseudoword,0,REAL,FALSA
,,,,,,,,,Raven,001,2024-06-30_06h48.47.844,empathy_intonation_perc,2024.1.4,Win32,59.17159763,,,,,,,,,,,,,,21,hotel,,,,,,170.1646,170.9524,0,1,0.2506,,0,5,5,20,1,three_way_cognate,1,REAL,FALSA
,,,,,,,,,Raven,001,2024-06-30_06h48.47.844,empathy_intonation_perc,2024.1.4,Win32,59.17159763,,,,,,,,,,,,,,139,sasos,,,,,,170.9535,171.9845,1,0,0.4991,,0,6,6,138,1,pseudoword,0,REAL,FALSA
,,,,,,,,,Raven,001,2024-06-30_06h48.47.844,empathy_intonation_perc,2024.1.4,Win32,59.17159763,,,,,,,,,,,,,,161,civas,,,,,,171.9853,172.9628,0,1,0.4377,,0,7,7,160,1,pseudoword,0,REAL,FALSA
,,,,,,,,,Raven,001,2024-06-30_06h48.47.844,empathy_intonation_perc,2024.1.4,Win32,59.17159763,,,,,,,,,,,,,,178,inichó,,,,,,172.9641,174.0341,0,1,0.5326,,0,8,8,177,1,pseudoword,0,REAL,FALSA
,,,,,,,,,Raven,001,2024-06-30_06h48.47.844,empathy_intonation_perc,2024.1.4,Win32,59.17159763,,,,,,,,,,,,,,152,prave,,,,,,174.0344,174.8453,1,0,0.285,,0,9,9,151,1,pseudoword,0,REAL,FALSA
,,,,,,,,,Raven,001,2024-06-30_06h48.47.844,empathy_intonation_perc,2024.1.4,Win32,59.17159763,,,,,,,,,,,,,,186,rizate,,,,,,174.8467,175.7122,0,1,0.3253,,0,10,10,185,1,pseudoword,0,REAL,FALSA
,,,,,,,,,Raven,001,2024-06-30_06h48.47.844,empathy_intonation_perc,2024.1.4,Win32,59.17159763,,,,,,,,,,,,,,88,percha,,,,,,175.7135,176.262,1,0,0.0096,,0,11,11,87,1,non_cognate,1,REAL,FALSA
,,,,,,,,,Raven,001,2024-06-30_06h48.47.844,empathy_intonation_perc,2024.1.4,Win32,59.17159763,,,,,,,,,,,,,,91,equipo,,,,,,176.2629,177.3312,1,0,0.5304,,0,12,12,90,1,non_cognate,1,REAL,FALSA
,,,,,,,,,Raven,001,2024-06-30_06h48.47.844,empathy_intonation_perc,2024.1.4,Win32,59.17159763,,,,,,,,,,,,,,117,morrá,,,,,,177.3314,178.2834,1,0,0.4147,,0,13,13,116,1,pseudoword,0,REAL,FALSA
,,,,,,,,,Raven,001,2024-06-30_06h48.47.844,empathy_intonation_perc,2024.1.4,Win32,59.17159763,,,,,,,,,,,,,,3,disco,,,,,,178.2842,179.0855,1,0,0.2676,,0,14,14,2,1,three_way_cognate,1,REAL,FALSA
,,,,,,,,,Raven,001,2024-06-30_06h48.47.844,empathy_intonation_perc,2024.1.4,Win32,59.17159763,,,,,,,,,,,,,,27,piano,,,,,,179.0863,180.0456,1,0,0.42,,0,15,15,26,1,two_way_cognate,1,REAL,FALSA
,,,,,,,,,Raven,001,2024-06-30_06h48.47.844,empathy_intonation_perc,2024.1.4,Win32,59.17159763,,,,,,,,,,,,,,28,ardor,,,,,,180.047,181.0333,1,0,0.4488,,0,16,16,27,1,two_way_cognate,1,REAL,FALSA
,,,,,,,,,Raven,001,2024-06-30_06h48.47.844,empathy_intonation_perc,2024.1.4,Win32,59.17159763,,,,,,,,,,,,,,136,hueas,,,,,,181.0341,181.9284,1,0,0.3557,,0,17,17,135,1,pseudoword,0,REAL,FALSA
,,,,,,,,,Raven,001,2024-06-30_06h48.47.844,empathy_intonation_perc,2024.1.4,Win32,59.17159763,,,,,,,,,,,,,,159,trcia,,,,,,181.9294,182.8783,1,0,0.4029,,0,18,18,158,1,pseudoword,0,REAL,FALSA
,,,,,,,,,Raven,001,2024-06-30_06h48.47.844,empathy_intonation_perc,2024.1.4,Win32,59.17159763,,,,,,,,,,,,,,37,torso,,,,,,182.8795,184.1103,1,0,0.6867,,0,19,19,36,1,two_way_cognate,1,REAL,FALSA
,,,,,,,,,Raven,001,2024-06-30_06h48.47.844,empathy_intonation_perc,2024.1.4,Win32,59.17159763,,,,,,,,,,,,,,133,conso,,,,,,184.1107,185.1436,1,0,0.5008,,0,20,20,132,1,pseudoword,0,REAL,FALSA
,,,,,,,,,Raven,001,2024-06-30_06h48.47.844,empathy_intonation_perc,2024.1.4,Win32,59.17159763,,,,,,,,,,,,,,164,tecia,,,,,,185.1448,186.5103,0,1,0.8347,,0,21,21,163,1,pseudoword,0,REAL,FALSA
,,,,,,,,,Raven,001,2024-06-30_06h48.47.844,empathy_intonation_perc,2024.1.4,Win32,59.17159763,,,,,,,,,,,,,,154,harvé,,,,,,186.5112,187.5099,0,1,0.4559,,0,22,22,153,1,pseudoword,0,REAL,FALSA
,,,,,,,,,Raven,001,2024-06-30_06h48.47.844,empathy_intonation_perc,2024.1.4,Win32,59.17159763,,,,,,,,,,,,,,86,cuenco,,,,,,187.5107,188.3434,1,0,0.2836,,0,23,23,85,1,non_cognate,1,REAL,FALSA
,,,,,,,,,Raven,001,2024-06-30_06h48.47.844,empathy_intonation_perc,2024.1.4,Win32,59.17159763,,,,,,,,,,,,,,157,seled,,,,,,188.3451,189.0106,0,1,0.1196,,0,24,24,156,1,pseudoword,0,REAL,FALSA
,,,,,,,,,Raven,001,2024-06-30_06h48.47.844,empathy_intonation_perc,2024.1.4,Win32,59.17159763,,,,,,,,,,,,,,163,olzan,,,,,,189.0117,189.6104,1,0,0.0568,,0,25,25,162,1,pseudoword,0,REAL,FALSA
,,,,,,,,,Raven,001,2024-06-30_06h48.47.844,empathy_intonation_perc,2024.1.4,Win32,59.17159763,,,,,,,,,,,,,,23,plural,,,,,,189.6117,190.9096,1,0,0.7534,,0,26,26,22,1,three_way_cognate,1,REAL,FALSA
,,,,,,,,,Raven,001,2024-06-30_06h48.47.844,empathy_intonation_perc,2024.1.4,Win32,59.17159763,,,,,,,,,,,,,,79,suelo,,,,,,190.9111,192.6102,0,1,1.1517,,0,27,27,78,1,non_cognate,1,REAL,FALSA
,,,,,,,,,Raven,001,2024-06-30_06h48.47.844,empathy_intonation_perc,2024.1.4,Win32,59.17159763,,,,,,,,,,,,,,190,asumie,,,,,,192.6115,193.7107,1,0,0.5589,,0,28,28,189,1,pseudoword,0,REAL,FALSA
,,,,,,,,,Raven,001,2024-06-30_06h48.47.844,empathy_intonation_perc,2024.1.4,Win32,59.17159763,,,,,,,,,,,,,,106,diebro,,,,,,193.712,194.7602,1,0,0.5059,,0,29,29,105,1,pseudoword,0,REAL,FALSA
,,,,,,,,,Raven,001,2024-06-30_06h48.47.844,empathy_intonation_perc,2024.1.4,Win32,59.17159763,,,,,,,,,,,,,,129,vinzó,,,,,,194.7614,196.0099,1,0,0.7065,,0,30,30,128,1,pseudoword,0,REAL,FALSA
,,,,,,,,,Raven,001,2024-06-30_06h48.47.844,empathy_intonation_perc,2024.1.4,Win32,59.17159763,,,,,,,,,,,,,,107,plago,,,,,,196.011,196.9941,1,0,0.4432,,0,31,31,106,1,pseudoword,0,REAL,FALSA
,,,,,,,,,Raven,001,2024-06-30_06h48.47.844,empathy_intonation_perc,2024.1.4,Win32,59.17159763,,,,,,,,,,,,,,119,esís,,,,,,196.9953,197.8253,1,0,0.2869,,0,32,32,118,1,pseudoword,0,REAL,FALSA
,,,,,,,,,Raven,001,2024-06-30_06h48.47.844,empathy_intonation_perc,2024.1.4,Win32,59.17159763,,,,,,,,,,,,,,78,rendir,,,,,,197.8264,198.7924,1,0,0.4262,,0,33,33,77,1,non_cognate,1,REAL,FALSA
,,,,,,,,,Raven,001,2024-06-30_06h48.47.844,empathy_intonation_perc,2024.1.4,Win32,59.17159763,,,,,,,,,,,,,,111,monue,,,,,,198.7936,199.4429,0,1,0.1049,,0,34,34,110,1,pseudoword,0,REAL,FALSA
,,,,,,,,,Raven,001,2024-06-30_06h48.47.844,empathy_intonation_perc,2024.1.4,Win32,59.17159763,,,,,,,,,,,,,,22,mango,,,,,,199.4442,200.0811,1,0,0.0986,,0,35,35,21,1,three_way_cognate,1,REAL,FALSA
,,,,,,,,,Raven,001,2024-06-30_06h48.47.844,empathy_intonation_perc,2024.1.4,Win32,59.17159763,,,,,,,,,,,,,,65,guerra,,,,,,200.0813,200.9639,0,1,0.3656,,0,36,36,64,1,non_cognate,1,REAL,FALSA
,,,,,,,,,Raven,001,2024-06-30_06h48.47.844,empathy_intonation_perc,2024.1.4,Win32,59.17159763,,,,,,,,,,,,,,66,aleta,,,,,,200.9647,201.5592,1,0,0.0518,,0,37,37,65,1,non_cognate,1,REAL,FALSA
,,,,,,,,,Raven,001,2024-06-30_06h48.47.844,empathy_intonation_perc,2024.1.4,Win32,59.17159763,,,,,,,,,,,,,,52,blando,,,,,,201.5604,202.2584,0,1,0.1685,,0,38,38,51,1,non_cognate,1,REAL,FALSA
,,,,,,,,,Raven,001,2024-06-30_06h48.47.844,empathy_intonation_perc,2024.1.4,Win32,59.17159763,,,,,,,,,,,,,,38,halo,,,,,,202.2595,202.8256,1,0,0.0234,,0,39,39,37,1,two_way_cognate,1,REAL,FALSA
,,,,,,,,,Raven,001,2024-06-30_06h48.47.844,empathy_intonation_perc,2024.1.4,Win32,59.17159763,,,,,,,,,,,,,,158,babrá,,,,,,202.8269,203.3748,1,0,0.0074,,0,40,40,157,1,pseudoword,0,REAL,FALSA
,,,,,,,,,Raven,001,2024-06-30_06h48.47.844,empathy_intonation_perc,2024.1.4,Win32,59.17159763,,,,,,,,,,,,,,149,emén,,,,,,203.3764,204.3589,0,1,0.4535,,0,41,41,148,1,pseudoword,0,REAL,FALSA
,,,,,,,,,Raven,001,2024-06-30_06h48.47.844,empathy_intonation_perc,2024.1.4,Win32,59.17159763,,,,,,,,,,,,,,98,martir,,,,,,204.3601,204.9084,1,0,0.0085,,0,42,42,97,1,pseudoword,0,REAL,FALSA
,,,,,,,,,Raven,001,2024-06-30_06h48.47.844,empathy_intonation_perc,2024.1.4,Win32,59.17159763,,,,,,,,,,,,,,51,listo,,,,,,204.9097,205.4581,0,1,0.0082,,0,43,43,50,1,non_cognate,1,REAL,FALSA
,,,,,,,,,Raven,001,2024-06-30_06h48.47.844,empathy_intonation_perc,2024.1.4,Win32,59.17159763,,,,,,,,,,,,,,113,nasce,,,,,,205.4597,206.4082,1,0,0.4094,,0,44,44,112,1,pseudoword,0,REAL,FALSA
,,,,,,,,,Raven,001,2024-06-30_06h48.47.844,empathy_intonation_perc,2024.1.4,Win32,59.17159763,,,,,,,,,,,,,,141,virios,,,,,,206.4095,207.2757,0,1,0.3202,,0,45,45,140,1,pseudoword,0,REAL,FALSA
,,,,,,,,,Raven,001,2024-06-30_06h48.47.844,empathy_intonation_perc,2024.1.4,Win32,59.17159763,,,,,,,,,,,,,,173,mibro,,,,,,207.2773,207.9304,1,0,0.1163,,0,46,46,172,1,pseudoword,0,REAL,FALSA
,,,,,,,,,Raven,001,2024-06-30_06h48.47.844,empathy_intonation_perc,2024.1.4,Win32,59.17159763,,,,,,,,,,,,,,191,frasis,,,,,,207.9309,208.6414,0,1,0.1715,,0,47,47,190,1,pseudoword,0,REAL,FALSA
,,,,,,,,,Raven,001,2024-06-30_06h48.47.844,empathy_intonation_perc,2024.1.4,Win32,59.17159763,,,,,,,,,,,,,,57,regalo,,,,,,208.6427,209.2798,1,0,0.0991,,0,48,48,56,1,non_cognate,1,REAL,FALSA
,,,,,,,,,Raven,001,2024-06-30_06h48.47.844,empathy_intonation_perc,2024.1.4,Win32,59.17159763,,,,,,,,,,,,,,99,bugor,,,,,,209.2805,209.9247,0,1,0.1015,,0,49,49,98,1,pseudoword,0,REAL,FALSA
,,,,,,,,,Raven,001,2024-06-30_06h48.47.844,empathy_intonation_perc,2024.1.4,Win32,59.17159763,,,,,,,,,,,,,,11,golf,,,,,,209.9264,211.0749,0,1,0.6009,,0,50,50,10,1,three_way_cognate,1,REAL,FALSA
,,,,,,,,,Raven,001,2024-06-30_06h48.47.844,empathy_intonation_perc,2024.1.4,Win32,59.17159763,,,,,,,,,,,,,,55,maldad,,,,,,211.0761,211.6749,1,0,0.0544,,0,51,51,54,1,non_cognate,1,REAL,FALSA
,,,,,,,,,Raven,001,2024-06-30_06h48.47.844,empathy_intonation_perc,2024.1.4,Win32,59.17159763,,,,,,,,,,,,,,77,suave,,,,,,211.6761,212.3401,0,1,0.134,,0,52,52,76,1,non_cognate,1,REAL,FALSA
,,,,,,,,,Raven,001,2024-06-30_06h48.47.844,empathy_intonation_perc,2024.1.4,Win32,59.17159763,,,,,,,,,,,,,,76,chocar,,,,,,212.3413,213.2907,0,1,0.4083,,0,53,53,75,1,non_cognate,1,REAL,FALSA
,,,,,,,,,Raven,001,2024-06-30_06h48.47.844,empathy_intonation_perc,2024.1.4,Win32,59.17159763,,,,,,,,,,,,,,179,suelet,,,,,,213.292,214.0079,1,0,0.1765,,0,54,54,178,1,pseudoword,0,REAL,FALSA
,,,,,,,,,Raven,001,2024-06-30_06h48.47.844,empathy_intonation_perc,2024.1.4,Win32,59.17159763,,,,,,,,,,,,,,181,gravés,,,,,,214.0092,214.5901,0,1,0.038,,0,55,55,180,1,pseudoword,0,REAL,FALSA
,,,,,,,,,Raven,001,2024-06-30_06h48.47.844,empathy_intonation_perc,2024.1.4,Win32,59.17159763,,,,,,,,,,,,,,102,coyo,,,,,,214.5912,215.1303,0,1,0.0007,,0,56,56,101,1,pseudoword,0,REAL,FALSA
,,,,,,,,,Raven,001,2024-06-30_06h48.47.844,empathy_intonation_perc,2024.1.4,Win32,59.17159763,,,,,,,,,,,,,,160,fomeó,,,,,,215.1309,215.7076,0,1,0.0386,,0,57,57,159,1,pseudoword,0,REAL,FALSA
,,,,,,,,,Raven,001,2024-06-30_06h48.47.844,empathy_intonation_perc,2024.1.4,Win32,59.17159763,,,,,,,,,,,,,,30,fiscal,,,,,,215.7091,216.4237,1,0,0.1687,,0,58,58,29,1,two_way_cognate,1,REAL,FALSA
,,,,,,,,,Raven,001,2024-06-30_06h48.47.844,empathy_intonation_perc,2024.1.4,Win32,59.17159763,,,,,,,,,,,,,,47,color,,,,,,216.4256,217.1283,1,0,0.166,,0,59,59,46,1,two_way_cognate,1,REAL,FALSA
,,,,,,,,,Raven,001,2024-06-30_06h48.47.844,empathy_intonation_perc,2024.1.4,Win32,59.17159763,,,,,,,,,,,,,,71,torta,,,,,,217.129,218.1568,1,0,0.4887,,0,60,60,70,1,non_cognate,1,REAL,FALSA
,,,,,,,,,Raven,001,2024-06-30_06h48.47.844,empathy_intonation_perc,2024.1.4,Win32,59.17159763,,,,,,,,,,,,,,132,nocó,,,,,,218.1578,218.7066,1,0,0.008,,0,61,61,131,1,pseudoword,0,REAL,FALSA
,,,,,,,,,Raven,001,2024-06-30_06h48.47.844,empathy_intonation_perc,2024.1.4,Win32,59.17159763,,,,,,,,,,,,,,72,rostro,,,,,,218.7082,219.6478,1,0,0.4193,,0,62,62,71,1,non_cognate,1,REAL,FALSA
,,,,,,,,,Raven,001,2024-06-30_06h48.47.844,empathy_intonation_perc,2024.1.4,Win32,59.17159763,,,,,,,,,,,,,,150,cricó,,,,,,219.6487,220.7569,1,0,0.5692,,0,63,63,149,1,pseudoword,0,REAL,FALSA
,,,,,,,,,Raven,001,2024-06-30_06h48.47.844,empathy_intonation_perc,2024.1.4,Win32,59.17159763,,,,,,,,,,,,,,162,cengo,,,,,,220.7581,221.4222,0,1,0.1221,,0,64,64,161,1,pseudoword,0,REAL,FALSA
,,,,,,,,,Raven,001,2024-06-30_06h48.47.844,empathy_intonation_perc,2024.1.4,Win32,59.17159763,,,,,,,,,,,,,,95,listo,,,,,,221.423,222.2897,1,0,0.3402,,0,65,65,94,1,non_cognate,1,REAL,FALSA
,,,,,,,,,Raven,001,2024-06-30_06h48.47.844,empathy_intonation_perc,2024.1.4,Win32,59.17159763,,,,,,,,,,,,,,43,honor,,,,,,222.2909,223.1774,1,0,0.3481,,0,66,66,42,1,two_way_cognate,1,REAL,FALSA
,,,,,,,,,Raven,001,2024-06-30_06h48.47.844,empathy_intonation_perc,2024.1.4,Win32,59.17159763,,,,,,,,,,,,,,15,test,,,,,,223.1781,224.2895,1,0,0.5751,,0,67,67,14,1,three_way_cognate,1,REAL,FALSA
,,,,,,,,,Raven,001,2024-06-30_06h48.47.844,empathy_intonation_perc,2024.1.4,Win32,59.17159763,,,,,,,,,,,,,,126,tobre,,,,,,224.2911,225.3727,1,0,0.5432,,0,68,68,125,1,pseudoword,0,REAL,FALSA
,,,,,,,,,Raven,001,2024-06-30_06h48.47.844,empathy_intonation_perc,2024.1.4,Win32,59.17159763,,,,,,,,,,,,,,46,mortal,,,,,,225.3741,226.2397,1,0,0.3218,,0,69,69,45,1,two_way_cognate,1,REAL,FALSA
,,,,,,,,,Raven,001,2024-06-30_06h48.47.844,empathy_intonation_perc,2024.1.4,Win32,59.17159763,,,,,,,,,,,,,,174,pabea,,,,,,226.2409,226.8807,1,0,0.1194,,0,70,70,173,1,pseudoword,0,REAL,FALSA
,,,,,,,,,Raven,001,2024-06-30_06h48.47.844,empathy_intonation_perc,2024.1.4,Win32,59.17159763,,,,,,,,,,,,,,120,mauja,,,,,,226.8816,227.5053,1,0,0.0927,,0,71,71,119,1,pseudoword,0,REAL,FALSA
,,,,,,,,,Raven,001,2024-06-30_06h48.47.844,empathy_intonation_perc,2024.1.4,Win32,59.17159763,,,,,,,,,,,,,,83,hálito,,,,,,227.5065,228.1222,1,0,0.07,,0,72,72,82,1,non_cognate,1,REAL,FALSA
,,,,,,,,,Raven,001,2024-06-30_06h48.47.844,empathy_intonation_perc,2024.1.4,Win32,59.17159763,,,,,,,,,,,,,,60,siglo,,,,,,228.1234,229.1714,1,0,0.5022,,0,73,73,59,1,non_cognate,1,REAL,FALSA
,,,,,,,,,Raven,001,2024-06-30_06h48.47.844,empathy_intonation_perc,2024.1.4,Win32,59.17159763,,,,,,,,,,,,,,42,rumor,,,,,,229.1719,229.9552,1,0,0.2423,,0,74,74,41,1,two_way_cognate,1,REAL,FALSA
,,,,,,,,,Raven,001,2024-06-30_06h48.47.844,empathy_intonation_perc,2024.1.4,Win32,59.17159763,,,,,,,,,,,,,,31,civil,,,,,,229.9564,230.8903,1,0,0.3951,,0,75,75,30,1,two_way_cognate,1,REAL,FALSA
,,,,,,,,,Raven,001,2024-06-30_06h48.47.844,empathy_intonation_perc,2024.1.4,Win32,59.17159763,,,,,,,,,,,,,,123,arane,,,,,,230.8912,231.8875,1,0,0.4591,,0,76,76,122,1,pseudoword,0,REAL,FALSA
,,,,,,,,,Raven,001,2024-06-30_06h48.47.844,empathy_intonation_perc,2024.1.4,Win32,59.17159763,,,,,,,,,,,,,,192,próces,,,,,,231.8882,232.7714,1,0,0.3362,,0,77,77,191,1,pseudoword,0,REAL,FALSA
,,,,,,,,,Raven,001,2024-06-30_06h48.47.844,empathy_intonation_perc,2024.1.4,Win32,59.17159763,,,,,,,,,,,,,,90,venado,,,,,,232.7734,233.6292,1,0,0.3342,,0,78,78,89,1,non_cognate,1,REAL,FALSA
,,,,,,,,,Raven,001,2024-06-30_06h48.47.844,empathy_intonation_perc,2024.1.4,Win32,59.17159763,,,,,,,,,,,,,,13,plan,,,,,,233.6303,234.4715,0,1,0.3024,,0,79,79,12,1,three_way_cognate,1,REAL,FALSA
,,,,,,,,,Raven,001,2024-06-30_06h48.47.844,empathy_intonation_perc,2024.1.4,Win32,59.17159763,,,,,,,,,,,,,,183,edioso,,,,,,234.4729,244.6874,1,0,9.6688,,0,80,80,182,1,pseudoword,0,REAL,FALSA
,,,,,,,,,Raven,001,2024-06-30_06h48.47.844,empathy_intonation_perc,2024.1.4,Win32,59.17159763,,,,,,,,,,,,,,44,editor,,,,,,244.7149,245.3694,1,0,0.135,,0,81,81,43,1,two_way_cognate,1,REAL,FALSA
,,,,,,,,,Raven,001,2024-06-30_06h48.47.844,empathy_intonation_perc,2024.1.4,Win32,59.17159763,,,,,,,,,,,,,,85,enorme,,,,,,245.3698,246.12,1,0,0.2169,,0,82,82,84,1,non_cognate,1,REAL,FALSA
,,,,,,,,,Raven,001,2024-06-30_06h48.47.844,empathy_intonation_perc,2024.1.4,Win32,59.17159763,,,,,,,,,,,,,,165,chote,,,,,,246.1208,247.1197,1,0,0.4613,,0,83,83,164,1,pseudoword,0,REAL,FALSA
,,,,,,,,,Raven,001,2024-06-30_06h48.47.844,empathy_intonation_perc,2024.1.4,Win32,59.17159763,,,,,,,,,,,,,,92,flecha,,,,,,247.1203,247.9363,1,0,0.2816,,0,84,84,91,1,non_cognate,1,REAL,FALSA
,,,,,,,,,Raven,001,2024-06-30_06h48.47.844,empathy_intonation_perc,2024.1.4,Win32,59.17159763,,,,,,,,,,,,,,97,nocita,,,,,,247.9369,248.5362,1,0,0.0635,,0,85,85,96,1,pseudoword,0,REAL,FALSA
,,,,,,,,,Raven,001,2024-06-30_06h48.47.844,empathy_intonation_perc,2024.1.4,Win32,59.17159763,,,,,,,,,,,,,,138,tator,,,,,,248.5369,249.1025,1,0,0.0334,,0,86,86,137,1,pseudoword,0,REAL,FALSA
,,,,,,,,,Raven,001,2024-06-30_06h48.47.844,empathy_intonation_perc,2024.1.4,Win32,59.17159763,,,,,,,,,,,,,,69,tiza,,,,,,249.1031,250.0857,1,0,0.4471,,0,87,87,68,1,non_cognate,1,REAL,FALSA
,,,,,,,,,Raven,001,2024-06-30_06h48.47.844,empathy_intonation_perc,2024.1.4,Win32,59.17159763,,,,,,,,,,,,,,82,brillo,,,,,,250.0863,251.1187,1,0,0.4983,,0,88,88,81,1,non_cognate,1,REAL,FALSA
,,,,,,,,,Raven,001,2024-06-30_06h48.47.844,empathy_intonation_perc,2024.1.4,Win32,59.17159763,,,,,,,,,,,,,,58,colcha,,,,,,251.1191,251.9025,1,0,0.247,,0,89,89,57,1,non_cognate,1,REAL,FALSA
,,,,,,,,,Raven,001,2024-06-30_06h48.47.844,empathy_intonation_perc,2024.1.4,Win32,59.17159763,,,,,,,,,,,,,,16,chat,,,,,,251.9031,252.7189,1,0,0.2818,,0,90,90,15,1,three_way_cognate,1,REAL,FALSA
,,,,,,,,,Raven,001,2024-06-30_06h48.47.844,empathy_intonation_perc,2024.1.4,Win32,59.17159763,,,,,,,,,,,,,,39,casual,,,,,,252.7196,253.7686,1,0,0.515,,0,91,91,38,1,two_way_cognate,1,REAL,FALSA
,,,,,,,,,Raven,001,2024-06-30_06h48.47.844,empathy_intonation_perc,2024.1.4,Win32,59.17159763,,,,,,,,,,,,,,169,pitis,,,,,,253.7695,254.5684,1,0,0.2736,,0,92,92,168,1,pseudoword,0,REAL,FALSA
,,,,,,,,,Raven,001,2024-06-30_06h48.47.844,empathy_intonation_perc,2024.1.4,Win32,59.17159763,,,,,,,,,,,,,,103,vueras,,,,,,254.5691,255.1687,0,1,0.0637,,0,93,93,102,1,pseudoword,0,REAL,FALSA
,,,,,,,,,Raven,001,2024-06-30_06h48.47.844,empathy_intonation_perc,2024.1.4,Win32,59.17159763,,,,,,,,,,,,,,36,viable,,,,,,255.1693,256.0678,1,0,0.363,,0,94,94,35,1,two_way_cognate,1,REAL,FALSA
,,,,,,,,,Raven,001,2024-06-30_06h48.47.844,empathy_intonation_perc,2024.1.4,Win32,59.17159763,,,,,,,,,,,,,,40,pelvis,,,,,,256.0681,257.2686,1,0,0.6682,,0,95,95,39,1,two_way_cognate,1,REAL,FALSA
,,,,,,,,,Raven,001,2024-06-30_06h48.47.844,empathy_intonation_perc,2024.1.4,Win32,59.17159763,,,,,,,,,,,,,,75,patada,,,,,,257.2691,258.4841,1,0,0.6828,,0,96,96,74,1,non_cognate,1,REAL,FALSA
,,,,,,,,,Raven,001,2024-06-30_06h48.47.844,empathy_intonation_perc,2024.1.4,Win32,59.17159763,,,,,,,,,,,,,,177,entodo,,,,,,258.4844,259.2505,1,0,0.2515,,0,97,97,176,1,pseudoword,0,REAL,FALSA
,,,,,,,,,Raven,001,2024-06-30_06h48.47.844,empathy_intonation_perc,2024.1.4,Win32,59.17159763,,,,,,,,,,,,,,67,llamar,,,,,,259.2507,260.1337,1,0,0.3559,,0,98,98,66,1,non_cognate,1,REAL,FALSA
,,,,,,,,,Raven,001,2024-06-30_06h48.47.844,empathy_intonation_perc,2024.1.4,Win32,59.17159763,,,,,,,,,,,,,,64,rizado,,,,,,260.134,261.0837,1,0,0.4173,,0,99,99,63,1,non_cognate,1,REAL,FALSA
,,,,,,,,,Raven,001,2024-06-30_06h48.47.844,empathy_intonation_perc,2024.1.4,Win32,59.17159763,,,,,,,,,,,,,,170,diabo,,,,,,261.0839,261.8669,1,0,0.2564,,0,100,100,169,1,pseudoword,0,REAL,FALSA
,,,,,,,,,Raven,001,2024-06-30_06h48.47.844,empathy_intonation_perc,2024.1.4,Win32,59.17159763,,,,,,,,,,,,,,167,dobbo,,,,,,261.867,262.5841,1,0,0.2001,,0,101,101,166,1,pseudoword,0,REAL,FALSA
,,,,,,,,,Raven,001,2024-06-30_06h48.47.844,empathy_intonation_perc,2024.1.4,Win32,59.17159763,,,,,,,,,,,,,,26,enigma,,,,,,262.5845,263.2503,1,0,0.1292,,0,102,102,25,1,two_way_cognate,1,REAL,FALSA
,,,,,,,,,Raven,001,2024-06-30_06h48.47.844,empathy_intonation_perc,2024.1.4,Win32,59.17159763,,,,,,,,,,,,,,5,extra,,,,,,263.2505,264.1675,0,1,0.3824,,0,103,103,4,1,three_way_cognate,1,REAL,FALSA
,,,,,,,,,Raven,001,2024-06-30_06h48.47.844,empathy_intonation_perc,2024.1.4,Win32,59.17159763,,,,,,,,,,,,,,68,puñal,,,,,,264.1681,265.0341,1,0,0.3293,,0,104,104,67,1,non_cognate,1,REAL,FALSA
,,,,,,,,,Raven,001,2024-06-30_06h48.47.844,empathy_intonation_perc,2024.1.4,Win32,59.17159763,,,,,,,,,,,,,,137,trugo,,,,,,265.0347,265.667,1,0,0.1036,,0,105,105,136,1,pseudoword,0,REAL,FALSA
,,,,,,,,,Raven,001,2024-06-30_06h48.47.844,empathy_intonation_perc,2024.1.4,Win32,59.17159763,,,,,,,,,,,,,,182,desaro,,,,,,265.6677,266.633,1,0,0.4385,,0,106,106,181,1,pseudoword,0,REAL,FALSA
,,,,,,,,,Raven,001,2024-06-30_06h48.47.844,empathy_intonation_perc,2024.1.4,Win32,59.17159763,,,,,,,,,,,,,,171,gotro,,,,,,266.6333,267.4503,1,0,0.2864,,0,107,107,170,1,pseudoword,0,REAL,FALSA
,,,,,,,,,Raven,001,2024-06-30_06h48.47.844,empathy_intonation_perc,2024.1.4,Win32,59.17159763,,,,,,,,,,,,,,6,horror,,,,,,267.4509,268.1161,0,1,0.135,,0,108,108,5,1,three_way_cognate,1,REAL,FALSA
,,,,,,,,,Raven,001,2024-06-30_06h48.47.844,empathy_intonation_perc,2024.1.4,Win32,59.17159763,,,,,,,,,,,,,,108,jauda,,,,,,268.1166,269.1335,1,0,0.4957,,0,109,109,107,1,pseudoword,0,REAL,FALSA
,,,,,,,,,Raven,001,2024-06-30_06h48.47.844,empathy_intonation_perc,2024.1.4,Win32,59.17159763,,,,,,,,,,,,,,130,dubo,,,,,,269.1342,270.3501,0,1,0.6799,,0,110,110,129,1,pseudoword,0,REAL,FALSA
,,,,,,,,,Raven,001,2024-06-30_06h48.47.844,empathy_intonation_perc,2024.1.4,Win32,59.17159763,,,,,,,,,,,,,,104,estulo,,,,,,270.3508,271.4328,1,0,0.5442,,0,111,111,103,1,pseudoword,0,REAL,FALSA
,,,,,,,,,Raven,001,2024-06-30_06h48.47.844,empathy_intonation_perc,2024.1.4,Win32,59.17159763,,,,,,,,,,,,,,8,kilo,,,,,,271.4335,272.4988,1,0,0.5268,,0,112,112,7,1,three_way_cognate,1,REAL,FALSA
,,,,,,,,,Raven,001,2024-06-30_06h48.47.844,empathy_intonation_perc,2024.1.4,Win32,59.17159763,,,,,,,,,,,,,,140,chorde,,,,,,272.499,273.733,0,1,0.7111,,0,113,113,139,1,pseudoword,0,REAL,FALSA
,,,,,,,,,Raven,001,2024-06-30_06h48.47.844,empathy_intonation_perc,2024.1.4,Win32,59.17159763,,,,,,,,,,,,,,35,aurora,,,,,,273.7336,274.9827,1,0,0.7177,,0,114,114,34,1,two_way_cognate,1,REAL,FALSA
,,,,,,,,,Raven,001,2024-06-30_06h48.47.844,empathy_intonation_perc,2024.1.4,Win32,59.17159763,,,,,,,,,,,,,,12,dogma,,,,,,274.9832,276.1997,1,0,0.6883,,0,115,115,11,1,three_way_cognate,1,REAL,FALSA
,,,,,,,,,Raven,001,2024-06-30_06h48.47.844,empathy_intonation_perc,2024.1.4,Win32,59.17159763,,,,,,,,,,,,,,145,rúo,,,,,,276.2003,277.5826,1,0,0.8558,,0,116,116,144,1,pseudoword,0,REAL,FALSA
,,,,,,,,,Raven,001,2024-06-30_06h48.47.844,empathy_intonation_perc,2024.1.4,Win32,59.17159763,,,,,,,,,,,,,,84,aviso,,,,,,277.5832,278.8489,1,0,0.7296,,0,117,117,83,1,non_cognate,1,REAL,FALSA
,,,,,,,,,Raven,001,2024-06-30_06h48.47.844,empathy_intonation_perc,2024.1.4,Win32,59.17159763,,,,,,,,,,,,,,143,hurcos,,,,,,278.8496,279.8988,0,1,0.5113,,0,118,118,142,1,pseudoword,0,REAL,FALSA
,,,,,,,,,Raven,001,2024-06-30_06h48.47.844,empathy_intonation_perc,2024.1.4,Win32,59.17159763,,,,,,,,,,,,,,142,parre,,,,,,279.8995,280.6985,1,0,0.2636,,0,119,119,141,1,pseudoword,0,REAL,FALSA
,,,,,,,,,Raven,001,2024-06-30_06h48.47.844,empathy_intonation_perc,2024.1.4,Win32,59.17159763,,,,,,,,,,,,,,25,vigor,,,,,,280.6992,281.6983,0,1,0.4675,,0,120,120,24,1,two_way_cognate,1,REAL,FALSA
,,,,,,,,,Raven,001,2024-06-30_06h48.47.844,empathy_intonation_perc,2024.1.4,Win32,59.17159763,,,,,,,,,,,,,,146,gió,,,,,,281.6989,282.2978,1,0,0.0598,,0,121,121,145,1,pseudoword,0,REAL,FALSA
,,,,,,,,,Raven,001,2024-06-30_06h48.47.844,empathy_intonation_perc,2024.1.4,Win32,59.17159763,,,,,,,,,,,,,,116,grigir,,,,,,282.2982,284.1807,0,1,1.3601,,0,122,122,115,1,pseudoword,0,REAL,FALSA
,,,,,,,,,Raven,001,2024-06-30_06h48.47.844,empathy_intonation_perc,2024.1.4,Win32,59.17159763,,,,,,,,,,,,,,87,muleta,,,,,,284.1811,285.3647,1,0,0.6465,,0,123,123,86,1,non_cognate,1,REAL,FALSA
,,,,,,,,,Raven,001,2024-06-30_06h48.47.844,empathy_intonation_perc,2024.1.4,Win32,59.17159763,,,,,,,,,,,,,,1,moral,,,,,,285.3654,286.548,1,0,0.6469,,0,124,124,0,1,three_way_cognate,1,REAL,FALSA
,,,,,,,,,Raven,001,2024-06-30_06h48.47.844,empathy_intonation_perc,2024.1.4,Win32,59.17159763,,,,,,,,,,,,,,188,amplir,,,,,,286.5486,287.3645,1,0,0.2796,,0,125,125,187,1,pseudoword,0,REAL,FALSA
,,,,,,,,,Raven,001,2024-06-30_06h48.47.844,empathy_intonation_perc,2024.1.4,Win32,59.17159763,,,,,,,,,,,,,,29,clamor,,,,,,287.3651,288.614,1,0,0.7128,,0,126,126,28,1,two_way_cognate,1,REAL,FALSA
,,,,,,,,,Raven,001,2024-06-30_06h48.47.844,empathy_intonation_perc,2024.1.4,Win32,59.17159763,,,,,,,,,,,,,,56,pico,,,,,,288.6143,289.7975,1,0,0.6562,,0,127,127,55,1,non_cognate,1,REAL,FALSA
,,,,,,,,,Raven,001,2024-06-30_06h48.47.844,empathy_intonation_perc,2024.1.4,Win32,59.17159763,,,,,,,,,,,,,,172,dogue,,,,,,289.7981,290.9639,1,0,0.6317,,0,128,128,171,1,pseudoword,0,REAL,FALSA
,,,,,,,,,Raven,001,2024-06-30_06h48.47.844,empathy_intonation_perc,2024.1.4,Win32,59.17159763,,,,,,,,,,,,,,147,alla,,,,,,290.9645,293.3638,1,0,1.8666,,0,129,129,146,1,pseudoword,0,REAL,FALSA
,,,,,,,,,Raven,001,2024-06-30_06h48.47.844,empathy_intonation_perc,2024.1.4,Win32,59.17159763,,,,,,,,,,,,,,4,flora,,,,,,293.3644,294.7628,1,0,0.8644,,0,130,130,3,1,three_way_cognate,1,REAL,FALSA
,,,,,,,,,Raven,001,2024-06-30_06h48.47.844,empathy_intonation_perc,2024.1.4,Win32,59.17159763,,,,,,,,,,,,,,121,barbs,,,,,,294.7632,295.8458,1,0,0.5699,,0,131,131,120,1,pseudoword,0,REAL,FALSA
,,,,,,,,,Raven,001,2024-06-30_06h48.47.844,empathy_intonation_perc,2024.1.4,Win32,59.17159763,,,,,,,,,,,,,,122,boñaz,,,,,,295.846,296.8962,1,0,0.5279,,0,132,132,121,1,pseudoword,0,REAL,FALSA
,,,,,,,,,Raven,001,2024-06-30_06h48.47.844,empathy_intonation_perc,2024.1.4,Win32,59.17159763,,,,,,,,,,,,,,131,fuar,,,,,,296.8968,297.9796,1,0,0.551,,0,133,133,130,1,pseudoword,0,REAL,FALSA
,,,,,,,,,Raven,001,2024-06-30_06h48.47.844,empathy_intonation_perc,2024.1.4,Win32,59.17159763,,,,,,,,,,,,,,80,cuenco,,,,,,297.9802,298.8461,0,1,0.3301,,0,134,134,79,1,non_cognate,1,REAL,FALSA
,,,,,,,,,Raven,001,2024-06-30_06h48.47.844,empathy_intonation_perc,2024.1.4,Win32,59.17159763,,,,,,,,,,,,,,156,ozoso,,,,,,298.8467,299.9462,1,0,0.5652,,0,135,135,155,1,pseudoword,0,REAL,FALSA
,,,,,,,,,Raven,001,2024-06-30_06h48.47.844,empathy_intonation_perc,2024.1.4,Win32,59.17159763,,,,,,,,,,,,,,18,altar,,,,,,299.9468,300.9127,1,0,0.4328,,0,136,136,17,1,three_way_cognate,1,REAL,FALSA
,,,,,,,,,Raven,001,2024-06-30_06h48.47.844,empathy_intonation_perc,2024.1.4,Win32,59.17159763,,,,,,,,,,,,,,105,leniz,,,,,,300.9133,302.0458,0,1,0.6052,,0,137,137,104,1,pseudoword,0,REAL,FALSA
,,,,,,,,,Raven,001,2024-06-30_06h48.47.844,empathy_intonation_perc,2024.1.4,Win32,59.17159763,,,,,,,,,,,,,,100,épinas,,,,,,302.0463,302.9791,1,0,0.4028,,0,138,138,99,1,pseudoword,0,REAL,FALSA
,,,,,,,,,Raven,001,2024-06-30_06h48.47.844,empathy_intonation_perc,2024.1.4,Win32,59.17159763,,,,,,,,,,,,,,151,prías,,,,,,302.9798,303.8791,1,0,0.3686,,0,139,139,150,1,pseudoword,0,REAL,FALSA
,,,,,,,,,Raven,001,2024-06-30_06h48.47.844,empathy_intonation_perc,2024.1.4,Win32,59.17159763,,,,,,,,,,,,,,73,llevar,,,,,,303.8797,304.6959,1,0,0.2826,,0,140,140,72,1,non_cognate,1,REAL,FALSA
,,,,,,,,,Raven,001,2024-06-30_06h48.47.844,empathy_intonation_perc,2024.1.4,Win32,59.17159763,,,,,,,,,,,,,,17,clan,,,,,,304.6969,305.8281,1,0,0.5979,,0,141,141,16,1,three_way_cognate,1,REAL,FALSA
,,,,,,,,,Raven,001,2024-06-30_06h48.47.844,empathy_intonation_perc,2024.1.4,Win32,59.17159763,,,,,,,,,,,,,,109,laras,,,,,,305.8285,306.8622,0,1,0.5217,,0,142,142,108,1,pseudoword,0,REAL,FALSA
,,,,,,,,,Raven,001,2024-06-30_06h48.47.844,empathy_intonation_perc,2024.1.4,Win32,59.17159763,,,,,,,,,,,,,,168,cobén,,,,,,306.8629,308.1277,1,0,0.7257,,0,143,143,167,1,pseudoword,0,REAL,FALSA
,,,,,,,,,Raven,001,2024-06-30_06h48.47.844,empathy_intonation_perc,2024.1.4,Win32,59.17159763,,,,,,,,,,,,,,9,portal,,,,,,308.1279,309.1116,1,0,0.4616,,0,144,144,8,1,three_way_cognate,1,REAL,FALSA
,,,,,,,,,Raven,001,2024-06-30_06h48.47.844,empathy_intonation_perc,2024.1.4,Win32,59.17159763,,,,,,,,,,,,,,19,mafia,,,,,,309.1122,310.1946,1,0,0.5443,,0,145,145,18,1,three_way_cognate,1,REAL,FALSA
,,,,,,,,,Raven,001,2024-06-30_06h48.47.844,empathy_intonation_perc,2024.1.4,Win32,59.17159763,,,,,,,,,,,,,,61,aduana,,,,,,310.1952,311.2447,1,0,0.5159,,0,146,146,60,1,non_cognate,1,REAL,FALSA
,,,,,,,,,Raven,001,2024-06-30_06h48.47.844,empathy_intonation_perc,2024.1.4,Win32,59.17159763,,,,,,,,,,,,,,14,aura,,,,,,311.2453,312.3278,1,0,0.5487,,0,147,147,13,1,three_way_cognate,1,REAL,FALSA
,,,,,,,,,Raven,001,2024-06-30_06h48.47.844,empathy_intonation_perc,2024.1.4,Win32,59.17159763,,,,,,,,,,,,,,2,tumor,,,,,,312.3287,313.2277,1,0,0.3721,,0,148,148,1,1,three_way_cognate,1,REAL,FALSA
,,,,,,,,,Raven,001,2024-06-30_06h48.47.844,empathy_intonation_perc,2024.1.4,Win32,59.17159763,,,,,,,,,,,,,,127,vien,,,,,,313.2284,314.1271,1,0,0.362,,0,149,149,126,1,pseudoword,0,REAL,FALSA
,,,,,,,,,Raven,001,2024-06-30_06h48.47.844,empathy_intonation_perc,2024.1.4,Win32,59.17159763,,,,,,,,,,,,,,148,gino,,,,,,314.1275,315.2105,1,0,0.5441,,0,150,150,147,1,pseudoword,0,REAL,FALSA
,,,,,,,,,Raven,001,2024-06-30_06h48.47.844,empathy_intonation_perc,2024.1.4,Win32,59.17159763,,,,,,,,,,,,,,101,losco,,,,,,315.2111,316.1103,1,0,0.3602,,0,151,151,100,1,pseudoword,0,REAL,FALSA
,,,,,,,,,Raven,001,2024-06-30_06h48.47.844,empathy_intonation_perc,2024.1.4,Win32,59.17159763,,,,,,,,,,,,,,41,pasta,,,,,,316.1108,317.1099,1,0,0.4634,,0,152,152,40,1,two_way_cognate,1,REAL,FALSA
,,,,,,,,,Raven,001,2024-06-30_06h48.47.844,empathy_intonation_perc,2024.1.4,Win32,59.17159763,,,,,,,,,,,,,,45,total,,,,,,317.1102,317.9267,1,0,0.2956,,0,153,153,44,1,two_way_cognate,1,REAL,FALSA
,,,,,,,,,Raven,001,2024-06-30_06h48.47.844,empathy_intonation_perc,2024.1.4,Win32,59.17159763,,,,,,,,,,,,,,34,actor,,,,,,317.9271,318.6765,1,0,0.213,,0,154,154,33,1,two_way_cognate,1,REAL,FALSA
,,,,,,,,,Raven,001,2024-06-30_06h48.47.844,empathy_intonation_perc,2024.1.4,Win32,59.17159763,,,,,,,,,,,,,,124,lobe,,,,,,318.6769,319.4768,1,0,0.2691,,0,155,155,123,1,pseudoword,0,REAL,FALSA
,,,,,,,,,Raven,001,2024-06-30_06h48.47.844,empathy_intonation_perc,2024.1.4,Win32,59.17159763,,,,,,,,,,,,,,94,forro,,,,,,319.4774,320.2935,1,0,0.2785,,0,156,156,93,1,non_cognate,1,REAL,FALSA
,,,,,,,,,Raven,001,2024-06-30_06h48.47.844,empathy_intonation_perc,2024.1.4,Win32,59.17159763,,,,,,,,,,,,,,63,hilo,,,,,,320.2942,321.2102,1,0,0.3862,,0,157,157,62,1,non_cognate,1,REAL,FALSA
,,,,,,,,,Raven,001,2024-06-30_06h48.47.844,empathy_intonation_perc,2024.1.4,Win32,59.17159763,,,,,,,,,,,,,,53,punta,,,,,,321.2108,322.193,1,0,0.4577,,0,158,158,52,1,non_cognate,1,REAL,FALSA
,,,,,,,,,Raven,001,2024-06-30_06h48.47.844,empathy_intonation_perc,2024.1.4,Win32,59.17159763,,,,,,,,,,,,,,74,ala,,,,,,322.1937,323.3098,1,0,0.582,,0,159,159,73,1,non_cognate,1,REAL,FALSA
,,,,,,,,,Raven,001,2024-06-30_06h48.47.844,empathy_intonation_perc,2024.1.4,Win32,59.17159763,,,,,,,,,,,,,,176,gripar,,,,,,323.3105,324.3264,0,1,0.4785,,0,160,160,175,1,pseudoword,0,REAL,FALSA
,,,,,,,,,Raven,001,2024-06-30_06h48.47.844,empathy_intonation_perc,2024.1.4,Win32,59.17159763,,,,,,,,,,,,,,155,kugis,,,,,,324.327,325.4595,0,1,0.6016,,0,161,161,154,1,pseudoword,0,REAL,FALSA
,,,,,,,,,Raven,001,2024-06-30_06h48.47.844,empathy_intonation_perc,2024.1.4,Win32,59.17159763,,,,,,,,,,,,,,110,densó,,,,,,325.4604,326.4585,0,1,0.4678,,0,162,162,109,1,pseudoword,0,REAL,FALSA
,,,,,,,,,Raven,001,2024-06-30_06h48.47.844,empathy_intonation_perc,2024.1.4,Win32,59.17159763,,,,,,,,,,,,,,10,drama,,,,,,326.4588,327.6259,1,0,0.6471,,0,163,163,9,1,three_way_cognate,1,REAL,FALSA
,,,,,,,,,Raven,001,2024-06-30_06h48.47.844,empathy_intonation_perc,2024.1.4,Win32,59.17159763,,,,,,,,,,,,,,118,bará,,,,,,327.6266,328.4917,1,0,0.3344,,0,164,164,117,1,pseudoword,0,REAL,FALSA
,,,,,,,,,Raven,001,2024-06-30_06h48.47.844,empathy_intonation_perc,2024.1.4,Win32,59.17159763,,,,,,,,,,,,,,24,retina,,,,,,328.492,329.5088,1,0,0.4857,,0,165,165,23,1,three_way_cognate,1,REAL,FALSA
,,,,,,,,,Raven,001,2024-06-30_06h48.47.844,empathy_intonation_perc,2024.1.4,Win32,59.17159763,,,,,,,,,,,,,,175,tradía,,,,,,329.5095,330.6913,1,0,0.6445,,0,166,166,174,1,pseudoword,0,REAL,FALSA
,,,,,,,,,Raven,001,2024-06-30_06h48.47.844,empathy_intonation_perc,2024.1.4,Win32,59.17159763,,,,,,,,,,,,,,166,anfia,,,,,,330.6915,331.5087,1,0,0.2987,,0,167,167,165,1,pseudoword,0,REAL,FALSA
,,,,,,,,,Raven,001,2024-06-30_06h48.47.844,empathy_intonation_perc,2024.1.4,Win32,59.17159763,,,,,,,,,,,,,,50,sierra,,,,,,331.5093,332.8579,1,0,0.8121,,0,168,168,49,1,non_cognate,1,REAL,FALSA
,,,,,,,,,Raven,001,2024-06-30_06h48.47.844,empathy_intonation_perc,2024.1.4,Win32,59.17159763,,,,,,,,,,,,,,180,pupica,,,,,,332.8582,334.0076,1,0,0.6335,,0,169,169,179,1,pseudoword,0,REAL,FALSA
,,,,,,,,,Raven,001,2024-06-30_06h48.47.844,empathy_intonation_perc,2024.1.4,Win32,59.17159763,,,,,,,,,,,,,,62,pegar,,,,,,334.008,334.9914,1,0,0.465,,0,170,170,61,1,non_cognate,1,REAL,FALSA
,,,,,,,,,Raven,001,2024-06-30_06h48.47.844,empathy_intonation_perc,2024.1.4,Win32,59.17159763,,,,,,,,,,,,,,49,teñir,,,,,,334.992,335.9082,1,0,0.3781,,0,171,171,48,1,non_cognate,1,REAL,FALSA
,,,,,,,,,Raven,001,2024-06-30_06h48.47.844,empathy_intonation_perc,2024.1.4,Win32,59.17159763,,,,,,,,,,,,,,187,nomata,,,,,,335.9089,336.6248,1,0,0.1828,,0,172,172,186,1,pseudoword,0,REAL,FALSA
,,,,,,,,,Raven,001,2024-06-30_06h48.47.844,empathy_intonation_perc,2024.1.4,Win32,59.17159763,,,,,,,,,,,,,,96,caro,,,,,,336.6254,337.4913,1,0,0.3347,,0,173,173,95,1,non_cognate,1,REAL,FALSA
,,,,,,,,,Raven,001,2024-06-30_06h48.47.844,empathy_intonation_perc,2024.1.4,Win32,59.17159763,,,,,,,,,,,,,,59,feo,,,,,,337.4919,338.3408,1,0,0.3193,,0,174,174,58,1,non_cognate,1,REAL,FALSA
,,,,,,,,,Raven,001,2024-06-30_06h48.47.844,empathy_intonation_perc,2024.1.4,Win32,59.17159763,,,,,,,,,,,,,,184,huenos,,,,,,338.3414,339.0408,1,0,0.1626,,0,175,175,183,1,pseudoword,0,REAL,FALSA
,,,,,,,,,Raven,001,2024-06-30_06h48.47.844,empathy_intonation_perc,2024.1.4,Win32,59.17159763,,,,,,,,,,,,,,48,pelvis,,,,,,339.0414,339.9243,1,0,0.3523,,0,176,176,47,1,two_way_cognate,1,REAL,FALSA
,,,,,,,,,Raven,001,2024-06-30_06h48.47.844,empathy_intonation_perc,2024.1.4,Win32,59.17159763,,,,,,,,,,,,,,93,tapa,,,,,,339.9249,341.1234,0,1,0.665,,0,177,177,92,1,non_cognate,1,REAL,FALSA
,,,,,,,,,Raven,001,2024-06-30_06h48.47.844,empathy_intonation_perc,2024.1.4,Win32,59.17159763,,,,,,,,,,,,,,125,ceme,,,,,,341.1237,342.3399,1,0,0.6924,,0,178,178,124,1,pseudoword,0,REAL,FALSA
,,,,,,,,,Raven,001,2024-06-30_06h48.47.844,empathy_intonation_perc,2024.1.4,Win32,59.17159763,,,,,,,,,,,,,,54,tapón,,,,,,342.3401,343.2896,1,0,0.4145,,0,179,179,53,1,non_cognate,1,REAL,FALSA
,,,,,,,,,Raven,001,2024-06-30_06h48.47.844,empathy_intonation_perc,2024.1.4,Win32,59.17159763,,,,,,,,,,,,,,112,samón,,,,,,343.2898,344.0562,0,1,0.2395,,0,180,180,111,1,pseudoword,0,REAL,FALSA
,,,,,,,,,Raven,001,2024-06-30_06h48.47.844,empathy_intonation_perc,2024.1.4,Win32,59.17159763,,,,,,,,,,,,,,114,dibrea,,,,,,344.0564,344.973,1,0,0.3926,,0,181,181,113,1,pseudoword,0,REAL,FALSA
,,,,,,,,,Raven,001,2024-06-30_06h48.47.844,empathy_intonation_perc,2024.1.4,Win32,59.17159763,,,,,,,,,,,,,,33,collar,,,,,,344.9731,345.9235,1,0,0.4337,,0,182,182,32,1,two_way_cognate,1,REAL,FALSA
,,,,,,,,,Raven,001,2024-06-30_06h48.47.844,empathy_intonation_perc,2024.1.4,Win32,59.17159763,,,,,,,,,,,,,,134,molor,,,,,,345.9242,347.0899,1,0,0.6334,,0,183,183,133,1,pseudoword,0,REAL,FALSA
,,,,,,,,,Raven,001,2024-06-30_06h48.47.844,empathy_intonation_perc,2024.1.4,Win32,59.17159763,,,,,,,,,,,,,,144,diroco,,,,,,347.0906,347.973,1,0,0.3533,,0,184,184,143,1,pseudoword,0,REAL,FALSA
,,,,,,,,,Raven,001,2024-06-30_06h48.47.844,empathy_intonation_perc,2024.1.4,Win32,59.17159763,,,,,,,,,,,,,,81,sacar,,,,,,347.9736,348.9896,1,0,0.4825,,0,185,185,80,1,non_cognate,1,REAL,FALSA
,,,,,,,,,Raven,001,2024-06-30_06h48.47.844,empathy_intonation_perc,2024.1.4,Win32,59.17159763,,,,,,,,,,,,,,70,ánimo,,,,,,348.9902,349.6391,0,1,0.1229,,0,186,186,69,1,non_cognate,1,REAL,FALSA
,,,,,,,,,Raven,001,2024-06-30_06h48.47.844,empathy_intonation_perc,2024.1.4,Win32,59.17159763,,,,,,,,,,,,,,153,golla,,,,,,349.6394,350.2062,1,0,0.0495,,0,187,187,152,1,pseudoword,0,REAL,FALSA
,,,,,,,,,Raven,001,2024-06-30_06h48.47.844,empathy_intonation_perc,2024.1.4,Win32,59.17159763,,,,,,,,,,,,,,185,aljizo,,,,,,350.2067,350.7892,0,1,0.0465,,0,188,188,184,1,pseudoword,0,REAL,FALSA
,,,,,,,,,Raven,001,2024-06-30_06h48.47.844,empathy_intonation_perc,2024.1.4,Win32,59.17159763,,,,,,,,,,,,,,128,pelí,,,,,,350.7896,351.5393,1,0,0.2147,,0,189,189,127,1,pseudoword,0,REAL,FALSA
,,,,,,,,,Raven,001,2024-06-30_06h48.47.844,empathy_intonation_perc,2024.1.4,Win32,59.17159763,,,,,,,,,,,,,,89,muñeca,,,,,,351.5402,352.3226,0,1,0.244,,0,190,190,88,1,non_cognate,1,REAL,FALSA
,,,,,,,,,Raven,001,2024-06-30_06h48.47.844,empathy_intonation_perc,2024.1.4,Win32,59.17159763,,,,,,,,,,,,,,20,trauma,,,,,,352.3232,352.8549,0,1,0.007,,0,191,191,19,1,three_way_cognate,1,REAL,FALSA
