lextale_instructions.started,lextale_instructions.stopped,lextale_instructions_loop.thisRepN,lextale_instructions_loop.thisTrialN,lextale_instructions_loop.thisN,lextale_instructions_loop.thisIndex,lextale_instructions_loop.ran,instructions_text,continue_text,participant,session,date,expName,psychopyVersion,OS,frameRate,lextale_practice.started,lextale_practice.stopped,key_resp_lextale_practice.keys,key_resp_lextale_practice.corr,key_resp_lextale_practice.rt,key_resp_lextale_practice.duration,lextale_practice_feedback.started,lextale_practice_feedback.stopped,lextale_practice_trials.thisRepN,lextale_practice_trials.thisTrialN,lextale_practice_trials.thisN,lextale_practice_trials.thisIndex,lextale_practice_trials.ran,stim,word,correct_response,prac_button_real,prac_button_false,lextale_check.started,lextale_check.stopped,lextale_trial.started,lextale_trial.stopped,key_resp_lextale_trial.keys,key_resp_lextale_trial.corr,key_resp_lextale_trial.rt,key_resp_lextale_trial.duration,lextail_trials.thisRepN,lextail_trials.thisTrialN,lextail_trials.thisN,lextail_trials.thisIndex,lextail_trials.ran,type,correct_reponse,button_real,button_false
0.0074,4.8666,0,0,0,0,1,"Este es un test de vocabulario en español. 
  
  A continuación vas a ver 90 secuencias de letras que parecen 'españolas'.
  
  Solo algunas de ellas son palabras de verdad.",(presiona la barra espaciadora para continuar),Robo,001,2024-06-20_08h27.27.938,empathy_intonation_perc,2024.1.4,Win32,60.24096386,,,,,,,,,,,,,,,,,,,,,,,,,,,,,,,,,,,
4.8678,7.4469,0,1,1,1,1,"Por favor, señala las palabras que tú conoces (aquellas que estás convencido que son palabras españolas, incluso aunque no seas capaz de dar el significado preciso).",(presiona la barra espaciadora para continuar),Robo,001,2024-06-20_08h27.27.938,empathy_intonation_perc,2024.1.4,Win32,60.24096386,,,,,,,,,,,,,,,,,,,,,,,,,,,,,,,,,,,
7.4475,8.6968,0,2,2,2,1,Pero cuidado: los errores se penalizan. Por eso no tiene sentido tratar de incrementar tu puntuación marcando como reales palabras que nunca has visto.,(presiona la barra espaciadora para continuar),Robo,001,2024-06-20_08h27.27.938,empathy_intonation_perc,2024.1.4,Win32,60.24096386,,,,,,,,,,,,,,,,,,,,,,,,,,,,,,,,,,,
8.6974,12.3622,0,3,3,3,1,"Presiona la tecla 1 si piensas que es una palabra real y la tecla 
  0 si piensas que es una palabra falsa. 
  
  Vamos a practicar un poco...",(presiona la barra espaciadora para continuar),Robo,001,2024-06-20_08h27.27.938,empathy_intonation_perc,2024.1.4,Win32,60.24096386,,,,,,,,,,,,,,,,,,,,,,,,,,,,,,,,,,,
,,,,,,,,,Robo,001,2024-06-20_08h27.27.938,empathy_intonation_perc,2024.1.4,Win32,60.24096386,12.3675,14.9944,0,1,2.0992,,14.9946,15.9942,0,0,0,0,1,0,depiste,0,REAL,FALSA,,,,,,,,,,,,,,,,,
,,,,,,,,,Robo,001,2024-06-20_08h27.27.938,empathy_intonation_perc,2024.1.4,Win32,60.24096386,15.9947,17.3431,1,1,0.8135,,17.3432,18.3423,0,1,1,1,1,0,sí,1,REAL,FALSA,,,,,,,,,,,,,,,,,
,,,,,,,,,Robo,001,2024-06-20_08h27.27.938,empathy_intonation_perc,2024.1.4,Win32,60.24096386,18.3429,23.5404,0,1,4.6604,,23.5405,24.5403,0,2,2,2,1,0,coné,0,REAL,FALSA,,,,,,,,,,,,,,,,,
,,,,,,,,,Robo,001,2024-06-20_08h27.27.938,empathy_intonation_perc,2024.1.4,Win32,60.24096386,24.5408,26.8389,1,0,1.7605,,26.8391,27.8387,0,3,3,3,1,0,calpar,0,REAL,FALSA,,,,,,,,,,,,,,,,,
,,,,,,,,,Robo,001,2024-06-20_08h27.27.938,empathy_intonation_perc,2024.1.4,Win32,60.24096386,27.8391,30.1873,0,1,1.8115,,30.1874,31.1872,0,4,4,4,1,0,joten,0,REAL,FALSA,,,,,,,,,,,,,,,,,
,,,,,,,,,Robo,001,2024-06-20_08h27.27.938,empathy_intonation_perc,2024.1.4,Win32,60.24096386,31.1878,33.903,0,0,2.1838,,33.9031,34.9025,0,5,5,5,1,0,sacapuntas,1,REAL,FALSA,,,,,,,,,,,,,,,,,
,,,,,,,,,Robo,001,2024-06-20_08h27.27.938,empathy_intonation_perc,2024.1.4,Win32,60.24096386,34.9029,37.151,1,0,1.7114,,37.1511,38.1502,0,6,6,6,1,0,priba,0,REAL,FALSA,,,,,,,,,,,,,,,,,
,,,,,,,,,Robo,001,2024-06-20_08h27.27.938,empathy_intonation_perc,2024.1.4,Win32,60.24096386,38.1509,43.1987,0,1,4.5144,,43.1988,44.198,0,7,7,7,1,0,pelasula,0,REAL,FALSA,,,,,,,,,,,,,,,,,
,,,,,,,,,Robo,001,2024-06-20_08h27.27.938,empathy_intonation_perc,2024.1.4,Win32,60.24096386,44.1985,46.2309,1,1,1.5007,,46.2309,47.2301,0,8,8,8,1,0,bien,1,REAL,FALSA,,,,,,,,,,,,,,,,,
,,,,,,,,,Robo,001,2024-06-20_08h27.27.938,empathy_intonation_perc,2024.1.4,Win32,60.24096386,47.2306,49.1625,1,1,1.4016,,49.1626,50.162,0,9,9,9,1,0,casa,1,REAL,FALSA,,,,,,,,,,,,,,,,,
,,,,,,,,,Robo,001,2024-06-20_08h27.27.938,empathy_intonation_perc,2024.1.4,Win32,60.24096386,50.1795,51.9116,1,0,1.1974,,51.9117,52.9107,0,10,10,10,1,0,lejo,0,REAL,FALSA,,,,,,,,,,,,,,,,,
,,,,,,,,,Robo,001,2024-06-20_08h27.27.938,empathy_intonation_perc,2024.1.4,Win32,60.24096386,52.9112,57.7739,0,1,4.3301,,57.7739,58.7741,0,11,11,11,1,0,pretantas,0,REAL,FALSA,,,,,,,,,,,,,,,,,
,,,,,,,,,Robo,001,2024-06-20_08h27.27.938,empathy_intonation_perc,2024.1.4,Win32,60.24096386,,,,,,,,,,,,,,,,,,,58.7748,65.8391,,,,,,,,,,,,,,,
,,,,,,,,,Robo,001,2024-06-20_08h27.27.938,empathy_intonation_perc,2024.1.4,Win32,60.24096386,,,,,,,,,,,,,,43,honor,,,,,,65.8698,68.0372,1,0,1.6534,,0,0,0,42,1,two_way_cognate,1,REAL,FALSA
,,,,,,,,,Robo,001,2024-06-20_08h27.27.938,empathy_intonation_perc,2024.1.4,Win32,60.24096386,,,,,,,,,,,,,,114,dibrea,,,,,,68.0378,70.2191,0,1,1.6535,,0,1,1,113,1,pseudoword,0,REAL,FALSA
,,,,,,,,,Robo,001,2024-06-20_08h27.27.938,empathy_intonation_perc,2024.1.4,Win32,60.24096386,,,,,,,,,,,,,,76,chocar,,,,,,70.2194,73.5513,1,0,2.8162,,0,2,2,75,1,non_cognate,1,REAL,FALSA
,,,,,,,,,Robo,001,2024-06-20_08h27.27.938,empathy_intonation_perc,2024.1.4,Win32,60.24096386,,,,,,,,,,,,,,142,parre,,,,,,73.5517,80.4821,0,1,6.4028,,0,3,3,141,1,pseudoword,0,REAL,FALSA
,,,,,,,,,Robo,001,2024-06-20_08h27.27.938,empathy_intonation_perc,2024.1.4,Win32,60.24096386,,,,,,,,,,,,,,25,vigor,,,,,,80.4981,83.2805,0,1,2.2647,,0,4,4,24,1,two_way_cognate,1,REAL,FALSA
,,,,,,,,,Robo,001,2024-06-20_08h27.27.938,empathy_intonation_perc,2024.1.4,Win32,60.24096386,,,,,,,,,,,,,,7,albino,,,,,,83.281,85.0635,1,0,1.25,,0,5,5,6,1,three_way_cognate,1,REAL,FALSA
,,,,,,,,,Robo,001,2024-06-20_08h27.27.938,empathy_intonation_perc,2024.1.4,Win32,60.24096386,,,,,,,,,,,,,,86,cuenco,,,,,,85.064,87.446,0,1,1.836,,0,6,6,85,1,non_cognate,1,REAL,FALSA
,,,,,,,,,Robo,001,2024-06-20_08h27.27.938,empathy_intonation_perc,2024.1.4,Win32,60.24096386,,,,,,,,,,,,,,97,nocita,,,,,,87.4464,89.4449,0,1,1.4512,,0,7,7,96,1,pseudoword,0,REAL,FALSA
,,,,,,,,,Robo,001,2024-06-20_08h27.27.938,empathy_intonation_perc,2024.1.4,Win32,60.24096386,,,,,,,,,,,,,,149,emén,,,,,,89.4454,90.8607,0,1,0.868,,0,8,8,148,1,pseudoword,0,REAL,FALSA
,,,,,,,,,Robo,001,2024-06-20_08h27.27.938,empathy_intonation_perc,2024.1.4,Win32,60.24096386,,,,,,,,,,,,,,9,portal,,,,,,90.8612,92.2104,1,0,0.8086,,0,9,9,8,1,three_way_cognate,1,REAL,FALSA
,,,,,,,,,Robo,001,2024-06-20_08h27.27.938,empathy_intonation_perc,2024.1.4,Win32,60.24096386,,,,,,,,,,,,,,37,torso,,,,,,92.211,93.5765,1,0,0.8178,,0,10,10,36,1,two_way_cognate,1,REAL,FALSA
,,,,,,,,,Robo,001,2024-06-20_08h27.27.938,empathy_intonation_perc,2024.1.4,Win32,60.24096386,,,,,,,,,,,,,,185,aljizo,,,,,,93.5769,95.5589,1,0,1.4505,,0,11,11,184,1,pseudoword,0,REAL,FALSA
,,,,,,,,,Robo,001,2024-06-20_08h27.27.938,empathy_intonation_perc,2024.1.4,Win32,60.24096386,,,,,,,,,,,,,,31,civil,,,,,,95.5594,96.9916,1,0,0.8845,,0,12,12,30,1,two_way_cognate,1,REAL,FALSA
,,,,,,,,,Robo,001,2024-06-20_08h27.27.938,empathy_intonation_perc,2024.1.4,Win32,60.24096386,,,,,,,,,,,,,,38,halo,,,,,,96.992,98.4243,0,1,0.8923,,0,13,13,37,1,two_way_cognate,1,REAL,FALSA
,,,,,,,,,Robo,001,2024-06-20_08h27.27.938,empathy_intonation_perc,2024.1.4,Win32,60.24096386,,,,,,,,,,,,,,70,ánimo,,,,,,98.4248,99.7909,1,0,0.8235,,0,14,14,69,1,non_cognate,1,REAL,FALSA
,,,,,,,,,Robo,001,2024-06-20_08h27.27.938,empathy_intonation_perc,2024.1.4,Win32,60.24096386,,,,,,,,,,,,,,107,plago,,,,,,99.7915,101.6233,0,1,1.2904,,0,15,15,106,1,pseudoword,0,REAL,FALSA
,,,,,,,,,Robo,001,2024-06-20_08h27.27.938,empathy_intonation_perc,2024.1.4,Win32,60.24096386,,,,,,,,,,,,,,151,prías,,,,,,101.6239,103.0722,0,1,0.9008,,0,16,16,150,1,pseudoword,0,REAL,FALSA
,,,,,,,,,Robo,001,2024-06-20_08h27.27.938,empathy_intonation_perc,2024.1.4,Win32,60.24096386,,,,,,,,,,,,,,53,punta,,,,,,103.0727,105.5045,1,0,1.8862,,0,17,17,52,1,non_cognate,1,REAL,FALSA
,,,,,,,,,Robo,001,2024-06-20_08h27.27.938,empathy_intonation_perc,2024.1.4,Win32,60.24096386,,,,,,,,,,,,,,178,inichó,,,,,,105.5049,107.0205,0,1,0.9686,,0,18,18,177,1,pseudoword,0,REAL,FALSA
,,,,,,,,,Robo,001,2024-06-20_08h27.27.938,empathy_intonation_perc,2024.1.4,Win32,60.24096386,,,,,,,,,,,,,,192,próces,,,,,,107.0211,109.0863,1,0,1.5176,,0,19,19,191,1,pseudoword,0,REAL,FALSA
,,,,,,,,,Robo,001,2024-06-20_08h27.27.938,empathy_intonation_perc,2024.1.4,Win32,60.24096386,,,,,,,,,,,,,,135,panté,,,,,,109.0868,110.3357,0,1,0.7016,,0,20,20,134,1,pseudoword,0,REAL,FALSA
,,,,,,,,,Robo,001,2024-06-20_08h27.27.938,empathy_intonation_perc,2024.1.4,Win32,60.24096386,,,,,,,,,,,,,,126,tobre,,,,,,110.3361,111.7557,1,0,0.8833,,0,21,21,125,1,pseudoword,0,REAL,FALSA
,,,,,,,,,Robo,001,2024-06-20_08h27.27.938,empathy_intonation_perc,2024.1.4,Win32,60.24096386,,,,,,,,,,,,,,46,mortal,,,,,,111.7562,113.0844,1,0,0.791,,0,22,22,45,1,two_way_cognate,1,REAL,FALSA
,,,,,,,,,Robo,001,2024-06-20_08h27.27.938,empathy_intonation_perc,2024.1.4,Win32,60.24096386,,,,,,,,,,,,,,152,prave,,,,,,113.0849,114.5338,0,1,0.9055,,0,23,23,151,1,pseudoword,0,REAL,FALSA
,,,,,,,,,Robo,001,2024-06-20_08h27.27.938,empathy_intonation_perc,2024.1.4,Win32,60.24096386,,,,,,,,,,,,,,180,pupica,,,,,,114.5342,115.8833,0,1,0.8035,,0,24,24,179,1,pseudoword,0,REAL,FALSA
,,,,,,,,,Robo,001,2024-06-20_08h27.27.938,empathy_intonation_perc,2024.1.4,Win32,60.24096386,,,,,,,,,,,,,,13,plan,,,,,,115.8837,117.6657,1,0,1.2417,,0,25,25,12,1,three_way_cognate,1,REAL,FALSA
,,,,,,,,,Robo,001,2024-06-20_08h27.27.938,empathy_intonation_perc,2024.1.4,Win32,60.24096386,,,,,,,,,,,,,,132,nocó,,,,,,117.6662,119.7816,1,0,1.568,,0,26,26,131,1,pseudoword,0,REAL,FALSA
,,,,,,,,,Robo,001,2024-06-20_08h27.27.938,empathy_intonation_perc,2024.1.4,Win32,60.24096386,,,,,,,,,,,,,,167,dobbo,,,,,,119.7989,121.7135,1,0,1.377,,0,27,27,166,1,pseudoword,0,REAL,FALSA
,,,,,,,,,Robo,001,2024-06-20_08h27.27.938,empathy_intonation_perc,2024.1.4,Win32,60.24096386,,,,,,,,,,,,,,161,civas,,,,,,121.7141,296.3869,1,0,174.1298,,0,28,28,160,1,pseudoword,0,REAL,FALSA
,,,,,,,,,Robo,001,2024-06-20_08h27.27.938,empathy_intonation_perc,2024.1.4,Win32,60.24096386,,,,,,,,,,,,,,123,arane,,,,,,296.4054,297.7529,0,1,0.803,,0,29,29,122,1,pseudoword,0,REAL,FALSA
,,,,,,,,,Robo,001,2024-06-20_08h27.27.938,empathy_intonation_perc,2024.1.4,Win32,60.24096386,,,,,,,,,,,,,,182,desaro,,,,,,297.7534,476.931,0,1,178.6395,,0,30,30,181,1,pseudoword,0,REAL,FALSA
,,,,,,,,,Robo,001,2024-06-20_08h27.27.938,empathy_intonation_perc,2024.1.4,Win32,60.24096386,,,,,,,,,,,,,,57,regalo,,,,,,476.9398,478.9307,1,0,1.4707,,0,31,31,56,1,non_cognate,1,REAL,FALSA
,,,,,,,,,Robo,001,2024-06-20_08h27.27.938,empathy_intonation_perc,2024.1.4,Win32,60.24096386,,,,,,,,,,,,,,144,diroco,,,,,,478.9313,480.3465,0,1,0.8801,,0,32,32,143,1,pseudoword,0,REAL,FALSA
,,,,,,,,,Robo,001,2024-06-20_08h27.27.938,empathy_intonation_perc,2024.1.4,Win32,60.24096386,,,,,,,,,,,,,,48,pelvis,,,,,,480.3473,481.6629,0,1,0.7853,,0,33,33,47,1,two_way_cognate,1,REAL,FALSA
,,,,,,,,,Robo,001,2024-06-20_08h27.27.938,empathy_intonation_perc,2024.1.4,Win32,60.24096386,,,,,,,,,,,,,,100,épinas,,,,,,481.6637,483.7621,1,0,1.5622,,0,34,34,99,1,pseudoword,0,REAL,FALSA
,,,,,,,,,Robo,001,2024-06-20_08h27.27.938,empathy_intonation_perc,2024.1.4,Win32,60.24096386,,,,,,,,,,,,,,58,colcha,,,,,,483.7627,484.9281,0,1,0.6292,,0,35,35,57,1,non_cognate,1,REAL,FALSA
,,,,,,,,,Robo,001,2024-06-20_08h27.27.938,empathy_intonation_perc,2024.1.4,Win32,60.24096386,,,,,,,,,,,,,,168,cobén,,,,,,484.9285,487.6436,0,1,2.1801,,0,36,36,167,1,pseudoword,0,REAL,FALSA
,,,,,,,,,Robo,001,2024-06-20_08h27.27.938,empathy_intonation_perc,2024.1.4,Win32,60.24096386,,,,,,,,,,,,,,163,olzan,,,,,,487.6599,489.8761,1,0,1.6824,,0,37,37,162,1,pseudoword,0,REAL,FALSA
,,,,,,,,,Robo,001,2024-06-20_08h27.27.938,empathy_intonation_perc,2024.1.4,Win32,60.24096386,,,,,,,,,,,,,,19,mafia,,,,,,489.8766,492.0084,0,1,1.5943,,0,38,38,18,1,three_way_cognate,1,REAL,FALSA
,,,,,,,,,Robo,001,2024-06-20_08h27.27.938,empathy_intonation_perc,2024.1.4,Win32,60.24096386,,,,,,,,,,,,,,85,enorme,,,,,,492.0089,493.4246,1,0,0.8879,,0,39,39,84,1,non_cognate,1,REAL,FALSA
,,,,,,,,,Robo,001,2024-06-20_08h27.27.938,empathy_intonation_perc,2024.1.4,Win32,60.24096386,,,,,,,,,,,,,,108,jauda,,,,,,493.4252,494.5241,0,1,0.5616,,0,40,40,107,1,pseudoword,0,REAL,FALSA
,,,,,,,,,Robo,001,2024-06-20_08h27.27.938,empathy_intonation_perc,2024.1.4,Win32,60.24096386,,,,,,,,,,,,,,11,golf,,,,,,494.5246,495.9733,1,0,0.9199,,0,41,41,10,1,three_way_cognate,1,REAL,FALSA
,,,,,,,,,Robo,001,2024-06-20_08h27.27.938,empathy_intonation_perc,2024.1.4,Win32,60.24096386,,,,,,,,,,,,,,148,gino,,,,,,495.974,497.4892,0,1,0.9795,,0,42,42,147,1,pseudoword,0,REAL,FALSA
,,,,,,,,,Robo,001,2024-06-20_08h27.27.938,empathy_intonation_perc,2024.1.4,Win32,60.24096386,,,,,,,,,,,,,,153,golla,,,,,,497.4899,498.9549,1,0,0.9387,,0,43,43,152,1,pseudoword,0,REAL,FALSA
,,,,,,,,,Robo,001,2024-06-20_08h27.27.938,empathy_intonation_perc,2024.1.4,Win32,60.24096386,,,,,,,,,,,,,,62,pegar,,,,,,498.9554,500.3053,0,1,0.8127,,0,44,44,61,1,non_cognate,1,REAL,FALSA
,,,,,,,,,Robo,001,2024-06-20_08h27.27.938,empathy_intonation_perc,2024.1.4,Win32,60.24096386,,,,,,,,,,,,,,84,aviso,,,,,,500.3056,501.7038,1,0,0.8665,,0,45,45,83,1,non_cognate,1,REAL,FALSA
,,,,,,,,,Robo,001,2024-06-20_08h27.27.938,empathy_intonation_perc,2024.1.4,Win32,60.24096386,,,,,,,,,,,,,,68,puñal,,,,,,501.7046,503.0868,0,1,0.8439,,0,46,46,67,1,non_cognate,1,REAL,FALSA
,,,,,,,,,Robo,001,2024-06-20_08h27.27.938,empathy_intonation_perc,2024.1.4,Win32,60.24096386,,,,,,,,,,,,,,104,estulo,,,,,,503.0874,504.4194,0,1,0.7986,,0,47,47,103,1,pseudoword,0,REAL,FALSA
,,,,,,,,,Robo,001,2024-06-20_08h27.27.938,empathy_intonation_perc,2024.1.4,Win32,60.24096386,,,,,,,,,,,,,,74,ala,,,,,,504.4198,505.5858,0,1,0.6362,,0,48,48,73,1,non_cognate,1,REAL,FALSA
,,,,,,,,,Robo,001,2024-06-20_08h27.27.938,empathy_intonation_perc,2024.1.4,Win32,60.24096386,,,,,,,,,,,,,,122,boñaz,,,,,,505.5864,506.9185,1,0,0.7984,,0,49,49,121,1,pseudoword,0,REAL,FALSA
,,,,,,,,,Robo,001,2024-06-20_08h27.27.938,empathy_intonation_perc,2024.1.4,Win32,60.24096386,,,,,,,,,,,,,,91,equipo,,,,,,506.9191,508.0175,1,0,0.5715,,0,50,50,90,1,non_cognate,1,REAL,FALSA
,,,,,,,,,Robo,001,2024-06-20_08h27.27.938,empathy_intonation_perc,2024.1.4,Win32,60.24096386,,,,,,,,,,,,,,6,horror,,,,,,508.0182,509.1842,1,0,0.6295,,0,51,51,5,1,three_way_cognate,1,REAL,FALSA
,,,,,,,,,Robo,001,2024-06-20_08h27.27.938,empathy_intonation_perc,2024.1.4,Win32,60.24096386,,,,,,,,,,,,,,41,pasta,,,,,,509.1847,518.4965,1,0,8.7781,,0,52,52,40,1,two_way_cognate,1,REAL,FALSA
,,,,,,,,,Robo,001,2024-06-20_08h27.27.938,empathy_intonation_perc,2024.1.4,Win32,60.24096386,,,,,,,,,,,,,,18,altar,,,,,,518.513,520.3294,1,0,1.2968,,0,53,53,17,1,three_way_cognate,1,REAL,FALSA
,,,,,,,,,Robo,001,2024-06-20_08h27.27.938,empathy_intonation_perc,2024.1.4,Win32,60.24096386,,,,,,,,,,,,,,87,muleta,,,,,,520.3301,522.4783,1,0,1.6145,,0,54,54,86,1,non_cognate,1,REAL,FALSA
,,,,,,,,,Robo,001,2024-06-20_08h27.27.938,empathy_intonation_perc,2024.1.4,Win32,60.24096386,,,,,,,,,,,,,,29,clamor,,,,,,522.4788,526.7264,1,0,3.7192,,0,55,55,28,1,two_way_cognate,1,REAL,FALSA
,,,,,,,,,Robo,001,2024-06-20_08h27.27.938,empathy_intonation_perc,2024.1.4,Win32,60.24096386,,,,,,,,,,,,,,136,hueas,,,,,,526.7424,528.2423,0,1,0.9799,,0,56,56,135,1,pseudoword,0,REAL,FALSA
,,,,,,,,,Robo,001,2024-06-20_08h27.27.938,empathy_intonation_perc,2024.1.4,Win32,60.24096386,,,,,,,,,,,,,,93,tapa,,,,,,528.2428,529.4919,1,0,0.718,,0,57,57,92,1,non_cognate,1,REAL,FALSA
,,,,,,,,,Robo,001,2024-06-20_08h27.27.938,empathy_intonation_perc,2024.1.4,Win32,60.24096386,,,,,,,,,,,,,,99,bugor,,,,,,529.4927,530.6419,0,1,0.6226,,0,58,58,98,1,pseudoword,0,REAL,FALSA
,,,,,,,,,Robo,001,2024-06-20_08h27.27.938,empathy_intonation_perc,2024.1.4,Win32,60.24096386,,,,,,,,,,,,,,162,cengo,,,,,,530.6424,531.7743,1,0,0.599,,0,59,59,161,1,pseudoword,0,REAL,FALSA
,,,,,,,,,Robo,001,2024-06-20_08h27.27.938,empathy_intonation_perc,2024.1.4,Win32,60.24096386,,,,,,,,,,,,,,15,test,,,,,,531.7748,533.0236,1,0,0.7189,,0,60,60,14,1,three_way_cognate,1,REAL,FALSA
,,,,,,,,,Robo,001,2024-06-20_08h27.27.938,empathy_intonation_perc,2024.1.4,Win32,60.24096386,,,,,,,,,,,,,,118,bará,,,,,,533.0241,534.5062,0,1,0.9515,,0,61,61,117,1,pseudoword,0,REAL,FALSA
,,,,,,,,,Robo,001,2024-06-20_08h27.27.938,empathy_intonation_perc,2024.1.4,Win32,60.24096386,,,,,,,,,,,,,,78,rendir,,,,,,534.5068,536.0387,1,0,1.0008,,0,62,62,77,1,non_cognate,1,REAL,FALSA
,,,,,,,,,Robo,001,2024-06-20_08h27.27.938,empathy_intonation_perc,2024.1.4,Win32,60.24096386,,,,,,,,,,,,,,158,babrá,,,,,,536.0394,537.3551,0,1,0.7774,,0,63,63,157,1,pseudoword,0,REAL,FALSA
,,,,,,,,,Robo,001,2024-06-20_08h27.27.938,empathy_intonation_perc,2024.1.4,Win32,60.24096386,,,,,,,,,,,,,,40,pelvis,,,,,,537.3556,539.4039,0,1,1.5145,,0,64,64,39,1,two_way_cognate,1,REAL,FALSA
,,,,,,,,,Robo,001,2024-06-20_08h27.27.938,empathy_intonation_perc,2024.1.4,Win32,60.24096386,,,,,,,,,,,,,,59,feo,,,,,,539.4045,540.9034,1,0,0.9635,,0,65,65,58,1,non_cognate,1,REAL,FALSA
,,,,,,,,,Robo,001,2024-06-20_08h27.27.938,empathy_intonation_perc,2024.1.4,Win32,60.24096386,,,,,,,,,,,,,,105,leniz,,,,,,540.9042,542.7026,0,1,1.2617,,0,66,66,104,1,pseudoword,0,REAL,FALSA
,,,,,,,,,Robo,001,2024-06-20_08h27.27.938,empathy_intonation_perc,2024.1.4,Win32,60.24096386,,,,,,,,,,,,,,92,flecha,,,,,,542.7033,544.102,0,1,0.8699,,0,67,67,91,1,non_cognate,1,REAL,FALSA
,,,,,,,,,Robo,001,2024-06-20_08h27.27.938,empathy_intonation_perc,2024.1.4,Win32,60.24096386,,,,,,,,,,,,,,24,retina,,,,,,544.1026,545.4847,0,1,0.8453,,0,68,68,23,1,three_way_cognate,1,REAL,FALSA
,,,,,,,,,Robo,001,2024-06-20_08h27.27.938,empathy_intonation_perc,2024.1.4,Win32,60.24096386,,,,,,,,,,,,,,52,blando,,,,,,545.4852,546.551,0,1,0.5285,,0,69,69,51,1,non_cognate,1,REAL,FALSA
,,,,,,,,,Robo,001,2024-06-20_08h27.27.938,empathy_intonation_perc,2024.1.4,Win32,60.24096386,,,,,,,,,,,,,,20,trauma,,,,,,546.5515,547.8169,1,0,0.733,,0,70,70,19,1,three_way_cognate,1,REAL,FALSA
,,,,,,,,,Robo,001,2024-06-20_08h27.27.938,empathy_intonation_perc,2024.1.4,Win32,60.24096386,,,,,,,,,,,,,,143,hurcos,,,,,,547.8175,549.033,0,1,0.6859,,0,71,71,142,1,pseudoword,0,REAL,FALSA
,,,,,,,,,Robo,001,2024-06-20_08h27.27.938,empathy_intonation_perc,2024.1.4,Win32,60.24096386,,,,,,,,,,,,,,4,flora,,,,,,549.0337,550.1495,1,0,0.5811,,0,72,72,3,1,three_way_cognate,1,REAL,FALSA
,,,,,,,,,Robo,001,2024-06-20_08h27.27.938,empathy_intonation_perc,2024.1.4,Win32,60.24096386,,,,,,,,,,,,,,160,fomeó,,,,,,550.1503,551.832,1,0,1.1442,,0,73,73,159,1,pseudoword,0,REAL,FALSA
,,,,,,,,,Robo,001,2024-06-20_08h27.27.938,empathy_intonation_perc,2024.1.4,Win32,60.24096386,,,,,,,,,,,,,,188,amplir,,,,,,551.8325,553.1979,1,0,0.8297,,0,74,74,187,1,pseudoword,0,REAL,FALSA
,,,,,,,,,Robo,001,2024-06-20_08h27.27.938,empathy_intonation_perc,2024.1.4,Win32,60.24096386,,,,,,,,,,,,,,124,lobe,,,,,,553.1986,554.9137,0,1,1.181,,0,75,75,123,1,pseudoword,0,REAL,FALSA
,,,,,,,,,Robo,001,2024-06-20_08h27.27.938,empathy_intonation_perc,2024.1.4,Win32,60.24096386,,,,,,,,,,,,,,44,editor,,,,,,554.9142,556.1299,1,0,0.6805,,0,76,76,43,1,two_way_cognate,1,REAL,FALSA
,,,,,,,,,Robo,001,2024-06-20_08h27.27.938,empathy_intonation_perc,2024.1.4,Win32,60.24096386,,,,,,,,,,,,,,176,gripar,,,,,,556.1304,557.4461,1,0,0.7823,,0,77,77,175,1,pseudoword,0,REAL,FALSA
,,,,,,,,,Robo,001,2024-06-20_08h27.27.938,empathy_intonation_perc,2024.1.4,Win32,60.24096386,,,,,,,,,,,,,,101,losco,,,,,,557.4466,558.7789,0,1,0.7972,,0,78,78,100,1,pseudoword,0,REAL,FALSA
,,,,,,,,,Robo,001,2024-06-20_08h27.27.938,empathy_intonation_perc,2024.1.4,Win32,60.24096386,,,,,,,,,,,,,,171,gotro,,,,,,558.7794,560.045,1,0,0.7306,,0,79,79,170,1,pseudoword,0,REAL,FALSA
,,,,,,,,,Robo,001,2024-06-20_08h27.27.938,empathy_intonation_perc,2024.1.4,Win32,60.24096386,,,,,,,,,,,,,,33,collar,,,,,,560.0455,561.411,1,0,0.8273,,0,80,80,32,1,two_way_cognate,1,REAL,FALSA
,,,,,,,,,Robo,001,2024-06-20_08h27.27.938,empathy_intonation_perc,2024.1.4,Win32,60.24096386,,,,,,,,,,,,,,121,barbs,,,,,,561.4115,562.7605,0,1,0.8202,,0,81,81,120,1,pseudoword,0,REAL,FALSA
,,,,,,,,,Robo,001,2024-06-20_08h27.27.938,empathy_intonation_perc,2024.1.4,Win32,60.24096386,,,,,,,,,,,,,,159,trcia,,,,,,562.761,564.0596,0,1,0.7652,,0,82,82,158,1,pseudoword,0,REAL,FALSA
,,,,,,,,,Robo,001,2024-06-20_08h27.27.938,empathy_intonation_perc,2024.1.4,Win32,60.24096386,,,,,,,,,,,,,,165,chote,,,,,,564.0602,565.2926,0,1,0.6944,,0,83,83,164,1,pseudoword,0,REAL,FALSA
,,,,,,,,,Robo,001,2024-06-20_08h27.27.938,empathy_intonation_perc,2024.1.4,Win32,60.24096386,,,,,,,,,,,,,,82,brillo,,,,,,565.2932,566.7252,1,0,0.9052,,0,84,84,81,1,non_cognate,1,REAL,FALSA
,,,,,,,,,Robo,001,2024-06-20_08h27.27.938,empathy_intonation_perc,2024.1.4,Win32,60.24096386,,,,,,,,,,,,,,79,suelo,,,,,,566.7258,567.9081,1,0,0.6476,,0,85,85,78,1,non_cognate,1,REAL,FALSA
,,,,,,,,,Robo,001,2024-06-20_08h27.27.938,empathy_intonation_perc,2024.1.4,Win32,60.24096386,,,,,,,,,,,,,,35,aurora,,,,,,567.9087,569.3071,1,0,0.8725,,0,86,86,34,1,two_way_cognate,1,REAL,FALSA
,,,,,,,,,Robo,001,2024-06-20_08h27.27.938,empathy_intonation_perc,2024.1.4,Win32,60.24096386,,,,,,,,,,,,,,125,ceme,,,,,,569.3078,573.4228,0,1,3.579,,0,87,87,124,1,pseudoword,0,REAL,FALSA
,,,,,,,,,Robo,001,2024-06-20_08h27.27.938,empathy_intonation_perc,2024.1.4,Win32,60.24096386,,,,,,,,,,,,,,186,rizate,,,,,,573.4391,574.8216,0,1,0.8441,,0,88,88,185,1,pseudoword,0,REAL,FALSA
,,,,,,,,,Robo,001,2024-06-20_08h27.27.938,empathy_intonation_perc,2024.1.4,Win32,60.24096386,,,,,,,,,,,,,,138,tator,,,,,,574.822,577.5704,0,1,2.2206,,0,89,89,137,1,pseudoword,0,REAL,FALSA
,,,,,,,,,Robo,001,2024-06-20_08h27.27.938,empathy_intonation_perc,2024.1.4,Win32,60.24096386,,,,,,,,,,,,,,89,muñeca,,,,,,577.586,579.3365,1,0,1.233,,0,90,90,88,1,non_cognate,1,REAL,FALSA
,,,,,,,,,Robo,001,2024-06-20_08h27.27.938,empathy_intonation_perc,2024.1.4,Win32,60.24096386,,,,,,,,,,,,,,98,martir,,,,,,579.3372,580.7854,1,0,0.9123,,0,91,91,97,1,pseudoword,0,REAL,FALSA
,,,,,,,,,Robo,001,2024-06-20_08h27.27.938,empathy_intonation_perc,2024.1.4,Win32,60.24096386,,,,,,,,,,,,,,73,llevar,,,,,,580.786,582.1352,1,0,0.8128,,0,92,92,72,1,non_cognate,1,REAL,FALSA
,,,,,,,,,Robo,001,2024-06-20_08h27.27.938,empathy_intonation_perc,2024.1.4,Win32,60.24096386,,,,,,,,,,,,,,116,grigir,,,,,,582.1357,585.6335,0,1,2.9675,,0,93,93,115,1,pseudoword,0,REAL,FALSA
,,,,,,,,,Robo,001,2024-06-20_08h27.27.938,empathy_intonation_perc,2024.1.4,Win32,60.24096386,,,,,,,,,,,,,,190,asumie,,,,,,585.6488,586.9497,0,1,0.7763,,0,94,94,189,1,pseudoword,0,REAL,FALSA
,,,,,,,,,Robo,001,2024-06-20_08h27.27.938,empathy_intonation_perc,2024.1.4,Win32,60.24096386,,,,,,,,,,,,,,39,casual,,,,,,586.9503,588.7323,1,0,1.2468,,0,95,95,38,1,two_way_cognate,1,REAL,FALSA
,,,,,,,,,Robo,001,2024-06-20_08h27.27.938,empathy_intonation_perc,2024.1.4,Win32,60.24096386,,,,,,,,,,,,,,10,drama,,,,,,588.733,591.4806,1,0,2.2207,,0,96,96,9,1,three_way_cognate,1,REAL,FALSA
,,,,,,,,,Robo,001,2024-06-20_08h27.27.938,empathy_intonation_perc,2024.1.4,Win32,60.24096386,,,,,,,,,,,,,,26,enigma,,,,,,591.4955,700.0339,0,1,108.0196,,0,97,97,25,1,two_way_cognate,1,REAL,FALSA
,,,,,,,,,Robo,001,2024-06-20_08h27.27.938,empathy_intonation_perc,2024.1.4,Win32,60.24096386,,,,,,,,,,,,,,175,tradía,,,,,,700.051,705.2977,0,1,4.7048,,0,98,98,174,1,pseudoword,0,REAL,FALSA
,,,,,,,,,Robo,001,2024-06-20_08h27.27.938,empathy_intonation_perc,2024.1.4,Win32,60.24096386,,,,,,,,,,,,,,21,hotel,,,,,,705.3151,706.4474,1,0,0.5887,,0,99,99,20,1,three_way_cognate,1,REAL,FALSA
,,,,,,,,,Robo,001,2024-06-20_08h27.27.938,empathy_intonation_perc,2024.1.4,Win32,60.24096386,,,,,,,,,,,,,,156,ozoso,,,,,,706.4478,707.5467,0,1,0.5519,,0,100,100,155,1,pseudoword,0,REAL,FALSA
,,,,,,,,,Robo,001,2024-06-20_08h27.27.938,empathy_intonation_perc,2024.1.4,Win32,60.24096386,,,,,,,,,,,,,,133,conso,,,,,,707.5472,709.1961,0,1,1.1107,,0,101,101,132,1,pseudoword,0,REAL,FALSA
,,,,,,,,,Robo,001,2024-06-20_08h27.27.938,empathy_intonation_perc,2024.1.4,Win32,60.24096386,,,,,,,,,,,,,,117,morrá,,,,,,709.1965,710.4128,0,1,0.6704,,0,102,102,116,1,pseudoword,0,REAL,FALSA
,,,,,,,,,Robo,001,2024-06-20_08h27.27.938,empathy_intonation_perc,2024.1.4,Win32,60.24096386,,,,,,,,,,,,,,146,gió,,,,,,710.4133,711.6117,0,1,0.6555,,0,103,103,145,1,pseudoword,0,REAL,FALSA
,,,,,,,,,Robo,001,2024-06-20_08h27.27.938,empathy_intonation_perc,2024.1.4,Win32,60.24096386,,,,,,,,,,,,,,3,disco,,,,,,711.6121,712.8118,1,0,0.659,,0,104,104,2,1,three_way_cognate,1,REAL,FALSA
,,,,,,,,,Robo,001,2024-06-20_08h27.27.938,empathy_intonation_perc,2024.1.4,Win32,60.24096386,,,,,,,,,,,,,,96,caro,,,,,,712.8123,714.1105,0,1,0.7515,,0,105,105,95,1,non_cognate,1,REAL,FALSA
,,,,,,,,,Robo,001,2024-06-20_08h27.27.938,empathy_intonation_perc,2024.1.4,Win32,60.24096386,,,,,,,,,,,,,,183,edioso,,,,,,714.1109,715.2104,1,0,0.5601,,0,106,106,182,1,pseudoword,0,REAL,FALSA
,,,,,,,,,Robo,001,2024-06-20_08h27.27.938,empathy_intonation_perc,2024.1.4,Win32,60.24096386,,,,,,,,,,,,,,5,extra,,,,,,715.2109,716.3589,1,0,0.6008,,0,107,107,4,1,three_way_cognate,1,REAL,FALSA
,,,,,,,,,Robo,001,2024-06-20_08h27.27.938,empathy_intonation_perc,2024.1.4,Win32,60.24096386,,,,,,,,,,,,,,66,aleta,,,,,,716.3596,717.8422,0,1,0.9406,,0,108,108,65,1,non_cognate,1,REAL,FALSA
,,,,,,,,,Robo,001,2024-06-20_08h27.27.938,empathy_intonation_perc,2024.1.4,Win32,60.24096386,,,,,,,,,,,,,,32,animal,,,,,,717.8426,719.0083,1,0,0.6231,,0,109,109,31,1,two_way_cognate,1,REAL,FALSA
,,,,,,,,,Robo,001,2024-06-20_08h27.27.938,empathy_intonation_perc,2024.1.4,Win32,60.24096386,,,,,,,,,,,,,,47,color,,,,,,719.0088,721.7903,1,0,2.234,,0,110,110,46,1,two_way_cognate,1,REAL,FALSA
,,,,,,,,,Robo,001,2024-06-20_08h27.27.938,empathy_intonation_perc,2024.1.4,Win32,60.24096386,,,,,,,,,,,,,,187,nomata,,,,,,721.7908,723.2399,1,0,0.9008,,0,111,111,186,1,pseudoword,0,REAL,FALSA
,,,,,,,,,Robo,001,2024-06-20_08h27.27.938,empathy_intonation_perc,2024.1.4,Win32,60.24096386,,,,,,,,,,,,,,111,monue,,,,,,723.2404,724.5892,0,1,0.8077,,0,112,112,110,1,pseudoword,0,REAL,FALSA
,,,,,,,,,Robo,001,2024-06-20_08h27.27.938,empathy_intonation_perc,2024.1.4,Win32,60.24096386,,,,,,,,,,,,,,80,cuenco,,,,,,724.5896,725.9888,1,0,0.8591,,0,113,113,79,1,non_cognate,1,REAL,FALSA
,,,,,,,,,Robo,001,2024-06-20_08h27.27.938,empathy_intonation_perc,2024.1.4,Win32,60.24096386,,,,,,,,,,,,,,8,kilo,,,,,,725.9895,727.1714,1,0,0.6352,,0,114,114,7,1,three_way_cognate,1,REAL,FALSA
,,,,,,,,,Robo,001,2024-06-20_08h27.27.938,empathy_intonation_perc,2024.1.4,Win32,60.24096386,,,,,,,,,,,,,,147,alla,,,,,,727.1718,729.0411,0,1,1.3328,,0,115,115,146,1,pseudoword,0,REAL,FALSA
,,,,,,,,,Robo,001,2024-06-20_08h27.27.938,empathy_intonation_perc,2024.1.4,Win32,60.24096386,,,,,,,,,,,,,,75,patada,,,,,,729.0417,730.2368,1,0,0.6531,,0,116,116,74,1,non_cognate,1,REAL,FALSA
,,,,,,,,,Robo,001,2024-06-20_08h27.27.938,empathy_intonation_perc,2024.1.4,Win32,60.24096386,,,,,,,,,,,,,,170,diabo,,,,,,730.2372,731.6033,1,0,0.8193,,0,117,117,169,1,pseudoword,0,REAL,FALSA
,,,,,,,,,Robo,001,2024-06-20_08h27.27.938,empathy_intonation_perc,2024.1.4,Win32,60.24096386,,,,,,,,,,,,,,16,chat,,,,,,731.6038,732.7028,0,1,0.5581,,0,118,118,15,1,three_way_cognate,1,REAL,FALSA
,,,,,,,,,Robo,001,2024-06-20_08h27.27.938,empathy_intonation_perc,2024.1.4,Win32,60.24096386,,,,,,,,,,,,,,36,viable,,,,,,732.7034,734.7349,1,0,1.488,,0,119,119,35,1,two_way_cognate,1,REAL,FALSA
,,,,,,,,,Robo,001,2024-06-20_08h27.27.938,empathy_intonation_perc,2024.1.4,Win32,60.24096386,,,,,,,,,,,,,,131,fuar,,,,,,734.7354,736.7339,0,1,1.4609,,0,120,120,130,1,pseudoword,0,REAL,FALSA
,,,,,,,,,Robo,001,2024-06-20_08h27.27.938,empathy_intonation_perc,2024.1.4,Win32,60.24096386,,,,,,,,,,,,,,128,pelí,,,,,,736.7344,738.0333,1,0,0.7531,,0,121,121,127,1,pseudoword,0,REAL,FALSA
,,,,,,,,,Robo,001,2024-06-20_08h27.27.938,empathy_intonation_perc,2024.1.4,Win32,60.24096386,,,,,,,,,,,,,,177,entodo,,,,,,738.034,739.1826,0,1,0.6107,,0,122,122,176,1,pseudoword,0,REAL,FALSA
,,,,,,,,,Robo,001,2024-06-20_08h27.27.938,empathy_intonation_perc,2024.1.4,Win32,60.24096386,,,,,,,,,,,,,,72,rostro,,,,,,739.183,740.2989,0,1,0.5686,,0,123,123,71,1,non_cognate,1,REAL,FALSA
,,,,,,,,,Robo,001,2024-06-20_08h27.27.938,empathy_intonation_perc,2024.1.4,Win32,60.24096386,,,,,,,,,,,,,,179,suelet,,,,,,740.2993,741.4482,0,1,0.611,,0,124,124,178,1,pseudoword,0,REAL,FALSA
,,,,,,,,,Robo,001,2024-06-20_08h27.27.938,empathy_intonation_perc,2024.1.4,Win32,60.24096386,,,,,,,,,,,,,,103,vueras,,,,,,741.4486,743.5641,0,1,1.568,,0,125,125,102,1,pseudoword,0,REAL,FALSA
,,,,,,,,,Robo,001,2024-06-20_08h27.27.938,empathy_intonation_perc,2024.1.4,Win32,60.24096386,,,,,,,,,,,,,,1,moral,,,,,,743.5645,744.7635,1,0,0.6515,,0,126,126,0,1,three_way_cognate,1,REAL,FALSA
,,,,,,,,,Robo,001,2024-06-20_08h27.27.938,empathy_intonation_perc,2024.1.4,Win32,60.24096386,,,,,,,,,,,,,,64,rizado,,,,,,744.7641,746.8627,0,1,1.5565,,0,127,127,63,1,non_cognate,1,REAL,FALSA
,,,,,,,,,Robo,001,2024-06-20_08h27.27.938,empathy_intonation_perc,2024.1.4,Win32,60.24096386,,,,,,,,,,,,,,145,rúo,,,,,,746.8633,748.2455,0,1,0.8366,,0,128,128,144,1,pseudoword,0,REAL,FALSA
,,,,,,,,,Robo,001,2024-06-20_08h27.27.938,empathy_intonation_perc,2024.1.4,Win32,60.24096386,,,,,,,,,,,,,,154,harvé,,,,,,748.246,749.2449,0,1,0.4611,,0,129,129,153,1,pseudoword,0,REAL,FALSA
,,,,,,,,,Robo,001,2024-06-20_08h27.27.938,empathy_intonation_perc,2024.1.4,Win32,60.24096386,,,,,,,,,,,,,,129,vinzó,,,,,,749.2453,750.4111,0,1,0.6232,,0,130,130,128,1,pseudoword,0,REAL,FALSA
,,,,,,,,,Robo,001,2024-06-20_08h27.27.938,empathy_intonation_perc,2024.1.4,Win32,60.24096386,,,,,,,,,,,,,,191,frasis,,,,,,750.4116,751.3775,0,1,0.42,,0,131,131,190,1,pseudoword,0,REAL,FALSA
,,,,,,,,,Robo,001,2024-06-20_08h27.27.938,empathy_intonation_perc,2024.1.4,Win32,60.24096386,,,,,,,,,,,,,,173,mibro,,,,,,751.378,752.2438,0,1,0.3195,,0,132,132,172,1,pseudoword,0,REAL,FALSA
,,,,,,,,,Robo,001,2024-06-20_08h27.27.938,empathy_intonation_perc,2024.1.4,Win32,60.24096386,,,,,,,,,,,,,,14,aura,,,,,,752.2443,753.4431,1,0,0.6541,,0,133,133,13,1,three_way_cognate,1,REAL,FALSA
,,,,,,,,,Robo,001,2024-06-20_08h27.27.938,empathy_intonation_perc,2024.1.4,Win32,60.24096386,,,,,,,,,,,,,,30,fiscal,,,,,,753.4435,759.2404,1,0,5.2497,,0,134,134,29,1,two_way_cognate,1,REAL,FALSA
,,,,,,,,,Robo,001,2024-06-20_08h27.27.938,empathy_intonation_perc,2024.1.4,Win32,60.24096386,,,,,,,,,,,,,,2,tumor,,,,,,759.2565,761.0399,1,0,1.2612,,0,135,135,1,1,three_way_cognate,1,REAL,FALSA
,,,,,,,,,Robo,001,2024-06-20_08h27.27.938,empathy_intonation_perc,2024.1.4,Win32,60.24096386,,,,,,,,,,,,,,102,coyo,,,,,,761.0404,762.1393,0,1,0.5615,,0,136,136,101,1,pseudoword,0,REAL,FALSA
,,,,,,,,,Robo,001,2024-06-20_08h27.27.938,empathy_intonation_perc,2024.1.4,Win32,60.24096386,,,,,,,,,,,,,,181,gravés,,,,,,762.1399,763.3055,1,0,0.6179,,0,137,137,180,1,pseudoword,0,REAL,FALSA
,,,,,,,,,Robo,001,2024-06-20_08h27.27.938,empathy_intonation_perc,2024.1.4,Win32,60.24096386,,,,,,,,,,,,,,113,nasce,,,,,,763.306,764.4882,0,1,0.6346,,0,138,138,112,1,pseudoword,0,REAL,FALSA
,,,,,,,,,Robo,001,2024-06-20_08h27.27.938,empathy_intonation_perc,2024.1.4,Win32,60.24096386,,,,,,,,,,,,,,60,siglo,,,,,,764.4886,765.7044,1,0,0.668,,0,139,139,59,1,non_cognate,1,REAL,FALSA
,,,,,,,,,Robo,001,2024-06-20_08h27.27.938,empathy_intonation_perc,2024.1.4,Win32,60.24096386,,,,,,,,,,,,,,137,trugo,,,,,,765.7048,766.9871,0,1,0.7378,,0,140,140,136,1,pseudoword,0,REAL,FALSA
,,,,,,,,,Robo,001,2024-06-20_08h27.27.938,empathy_intonation_perc,2024.1.4,Win32,60.24096386,,,,,,,,,,,,,,55,maldad,,,,,,766.9876,768.1865,1,0,0.6577,,0,141,141,54,1,non_cognate,1,REAL,FALSA
,,,,,,,,,Robo,001,2024-06-20_08h27.27.938,empathy_intonation_perc,2024.1.4,Win32,60.24096386,,,,,,,,,,,,,,22,mango,,,,,,768.187,769.353,0,1,0.6262,,0,142,142,21,1,three_way_cognate,1,REAL,FALSA
,,,,,,,,,Robo,001,2024-06-20_08h27.27.938,empathy_intonation_perc,2024.1.4,Win32,60.24096386,,,,,,,,,,,,,,56,pico,,,,,,769.3537,770.8521,1,0,0.9514,,0,143,143,55,1,non_cognate,1,REAL,FALSA
,,,,,,,,,Robo,001,2024-06-20_08h27.27.938,empathy_intonation_perc,2024.1.4,Win32,60.24096386,,,,,,,,,,,,,,134,molor,,,,,,770.8526,772.168,1,0,0.77,,0,144,144,133,1,pseudoword,0,REAL,FALSA
,,,,,,,,,Robo,001,2024-06-20_08h27.27.938,empathy_intonation_perc,2024.1.4,Win32,60.24096386,,,,,,,,,,,,,,65,guerra,,,,,,772.1684,773.4509,1,0,0.7603,,0,145,145,64,1,non_cognate,1,REAL,FALSA
,,,,,,,,,Robo,001,2024-06-20_08h27.27.938,empathy_intonation_perc,2024.1.4,Win32,60.24096386,,,,,,,,,,,,,,141,virios,,,,,,773.4516,775.4666,0,1,1.4756,,0,146,146,140,1,pseudoword,0,REAL,FALSA
,,,,,,,,,Robo,001,2024-06-20_08h27.27.938,empathy_intonation_perc,2024.1.4,Win32,60.24096386,,,,,,,,,,,,,,45,total,,,,,,775.4672,776.6494,1,0,0.6352,,0,147,147,44,1,two_way_cognate,1,REAL,FALSA
,,,,,,,,,Robo,001,2024-06-20_08h27.27.938,empathy_intonation_perc,2024.1.4,Win32,60.24096386,,,,,,,,,,,,,,110,densó,,,,,,776.6499,778.5159,0,1,1.3238,,0,148,148,109,1,pseudoword,0,REAL,FALSA
,,,,,,,,,Robo,001,2024-06-20_08h27.27.938,empathy_intonation_perc,2024.1.4,Win32,60.24096386,,,,,,,,,,,,,,166,anfia,,,,,,778.5166,779.7653,0,1,0.7046,,0,149,149,165,1,pseudoword,0,REAL,FALSA
,,,,,,,,,Robo,001,2024-06-20_08h27.27.938,empathy_intonation_perc,2024.1.4,Win32,60.24096386,,,,,,,,,,,,,,23,plural,,,,,,779.7658,781.264,1,0,0.9602,,0,150,150,22,1,three_way_cognate,1,REAL,FALSA
,,,,,,,,,Robo,001,2024-06-20_08h27.27.938,empathy_intonation_perc,2024.1.4,Win32,60.24096386,,,,,,,,,,,,,,164,tecia,,,,,,781.2644,782.5471,0,1,0.735,,0,151,151,163,1,pseudoword,0,REAL,FALSA
,,,,,,,,,Robo,001,2024-06-20_08h27.27.938,empathy_intonation_perc,2024.1.4,Win32,60.24096386,,,,,,,,,,,,,,140,chorde,,,,,,782.5475,784.5793,0,1,1.485,,0,152,152,139,1,pseudoword,0,REAL,FALSA
,,,,,,,,,Robo,001,2024-06-20_08h27.27.938,empathy_intonation_perc,2024.1.4,Win32,60.24096386,,,,,,,,,,,,,,81,sacar,,,,,,784.5798,785.8284,0,1,0.7009,,0,153,153,80,1,non_cognate,1,REAL,FALSA
,,,,,,,,,Robo,001,2024-06-20_08h27.27.938,empathy_intonation_perc,2024.1.4,Win32,60.24096386,,,,,,,,,,,,,,150,cricó,,,,,,785.829,787.2447,0,1,0.8683,,0,154,154,149,1,pseudoword,0,REAL,FALSA
,,,,,,,,,Robo,001,2024-06-20_08h27.27.938,empathy_intonation_perc,2024.1.4,Win32,60.24096386,,,,,,,,,,,,,,157,seled,,,,,,787.2452,788.7441,0,1,0.9584,,0,155,155,156,1,pseudoword,0,REAL,FALSA
,,,,,,,,,Robo,001,2024-06-20_08h27.27.938,empathy_intonation_perc,2024.1.4,Win32,60.24096386,,,,,,,,,,,,,,172,dogue,,,,,,788.7446,789.8935,0,1,0.6007,,0,156,156,171,1,pseudoword,0,REAL,FALSA
,,,,,,,,,Robo,001,2024-06-20_08h27.27.938,empathy_intonation_perc,2024.1.4,Win32,60.24096386,,,,,,,,,,,,,,88,percha,,,,,,789.894,793.2254,0,1,2.783,,0,157,157,87,1,non_cognate,1,REAL,FALSA
,,,,,,,,,Robo,001,2024-06-20_08h27.27.938,empathy_intonation_perc,2024.1.4,Win32,60.24096386,,,,,,,,,,,,,,169,pitis,,,,,,793.2427,794.192,0,1,0.4096,,0,158,158,168,1,pseudoword,0,REAL,FALSA
,,,,,,,,,Robo,001,2024-06-20_08h27.27.938,empathy_intonation_perc,2024.1.4,Win32,60.24096386,,,,,,,,,,,,,,120,mauja,,,,,,794.1925,796.6737,0,1,1.9424,,0,159,159,119,1,pseudoword,0,REAL,FALSA
,,,,,,,,,Robo,001,2024-06-20_08h27.27.938,empathy_intonation_perc,2024.1.4,Win32,60.24096386,,,,,,,,,,,,,,69,tiza,,,,,,796.6908,800.1396,0,1,2.9029,,0,160,160,68,1,non_cognate,1,REAL,FALSA
,,,,,,,,,Robo,001,2024-06-20_08h27.27.938,empathy_intonation_perc,2024.1.4,Win32,60.24096386,,,,,,,,,,,,,,61,aduana,,,,,,800.1401,801.3052,0,1,0.6176,,0,161,161,60,1,non_cognate,1,REAL,FALSA
,,,,,,,,,Robo,001,2024-06-20_08h27.27.938,empathy_intonation_perc,2024.1.4,Win32,60.24096386,,,,,,,,,,,,,,54,tapón,,,,,,801.3058,802.6376,1,0,0.7936,,0,162,162,53,1,non_cognate,1,REAL,FALSA
,,,,,,,,,Robo,001,2024-06-20_08h27.27.938,empathy_intonation_perc,2024.1.4,Win32,60.24096386,,,,,,,,,,,,,,83,hálito,,,,,,802.6382,804.4205,0,1,1.234,,0,163,163,82,1,non_cognate,1,REAL,FALSA
,,,,,,,,,Robo,001,2024-06-20_08h27.27.938,empathy_intonation_perc,2024.1.4,Win32,60.24096386,,,,,,,,,,,,,,119,esís,,,,,,804.421,805.8204,0,1,0.8571,,0,164,164,118,1,pseudoword,0,REAL,FALSA
,,,,,,,,,Robo,001,2024-06-20_08h27.27.938,empathy_intonation_perc,2024.1.4,Win32,60.24096386,,,,,,,,,,,,,,189,medium,,,,,,805.8209,807.0692,1,0,0.705,,0,165,165,188,1,pseudoword,0,REAL,FALSA
