lextale_instructions.started,lextale_instructions.stopped,lextale_instructions_loop.thisRepN,lextale_instructions_loop.thisTrialN,lextale_instructions_loop.thisN,lextale_instructions_loop.thisIndex,lextale_instructions_loop.ran,instructions_text,continue_text,participant,session,date,expName,psychopyVersion,OS,frameRate,lextale_practice.started,lextale_practice.stopped,key_resp_lextale_practice.keys,key_resp_lextale_practice.corr,key_resp_lextale_practice.rt,key_resp_lextale_practice.duration,lextale_practice_feedback.started,lextale_practice_feedback.stopped,lextale_practice_trials.thisRepN,lextale_practice_trials.thisTrialN,lextale_practice_trials.thisN,lextale_practice_trials.thisIndex,lextale_practice_trials.ran,stim,word,correct_response,prac_button_real,prac_button_false,lextale_check.started,lextale_check.stopped,lextale_trial.started,lextale_trial.stopped,key_resp_lextale_trial.keys,key_resp_lextale_trial.corr,key_resp_lextale_trial.rt,key_resp_lextale_trial.duration,lextail_trials.thisRepN,lextail_trials.thisTrialN,lextail_trials.thisN,lextail_trials.thisIndex,lextail_trials.ran,type,correct_reponse,button_real,button_false
0.003,6.608,0,0,0,0,1,"Este es un test de vocabulario en español. 
  
  A continuación vas a ver 90 secuencias de letras que parecen 'españolas'.
  
  Solo algunas de ellas son palabras de verdad.",(presiona la barra espaciadora para continuar),WS.07,001,2025-01-22_12h48.52.948,empathy_intonation_perc,2024.1.4,Win32,60.0240096,,,,,,,,,,,,,,,,,,,,,,,,,,,,,,,,,,,
6.609,30.615,0,1,1,1,1,"Por favor, señala las palabras que tú conoces (aquellas que estás convencido que son palabras españolas, incluso aunque no seas capaz de dar el significado preciso).",(presiona la barra espaciadora para continuar),WS.07,001,2025-01-22_12h48.52.948,empathy_intonation_perc,2024.1.4,Win32,60.0240096,,,,,,,,,,,,,,,,,,,,,,,,,,,,,,,,,,,
30.617,41.026,0,2,2,2,1,Pero cuidado: los errores se penalizan. Por eso no tiene sentido tratar de incrementar tu puntuación marcando como reales palabras que nunca has visto.,(presiona la barra espaciadora para continuar),WS.07,001,2025-01-22_12h48.52.948,empathy_intonation_perc,2024.1.4,Win32,60.0240096,,,,,,,,,,,,,,,,,,,,,,,,,,,,,,,,,,,
41.027,50.756,0,3,3,3,1,"Presiona la tecla 1 si piensas que es una palabra real y la tecla 
  0 si piensas que es una palabra falsa. 
  
  Vamos a practicar un poco...",(presiona la barra espaciadora para continuar),WS.07,001,2025-01-22_12h48.52.948,empathy_intonation_perc,2024.1.4,Win32,60.0240096,,,,,,,,,,,,,,,,,,,,,,,,,,,,,,,,,,,
,,,,,,,,,WS.07,001,2025-01-22_12h48.52.948,empathy_intonation_perc,2024.1.4,Win32,60.0240096,50.762,55.554,0,1,4.242,,55.554,56.553,0,0,0,0,1,0,depiste,0,REAL,FALSA,,,,,,,,,,,,,,,,,
,,,,,,,,,WS.07,001,2025-01-22_12h48.52.948,empathy_intonation_perc,2024.1.4,Win32,60.0240096,56.556,58.07,1,1,0.982,,58.07,59.068,0,1,1,1,1,0,sí,1,REAL,FALSA,,,,,,,,,,,,,,,,,
,,,,,,,,,WS.07,001,2025-01-22_12h48.52.948,empathy_intonation_perc,2024.1.4,Win32,60.0240096,59.07,62.501,0,1,2.878,,62.501,63.501,0,2,2,2,1,0,coné,0,REAL,FALSA,,,,,,,,,,,,,,,,,
,,,,,,,,,WS.07,001,2025-01-22_12h48.52.948,empathy_intonation_perc,2024.1.4,Win32,60.0240096,63.502,69.665,0,1,5.621,,69.665,70.664,0,3,3,3,1,0,calpar,0,REAL,FALSA,,,,,,,,,,,,,,,,,
,,,,,,,,,WS.07,001,2025-01-22_12h48.52.948,empathy_intonation_perc,2024.1.4,Win32,60.0240096,70.665,73.962,0,1,2.767,,73.962,74.962,0,4,4,4,1,0,joten,0,REAL,FALSA,,,,,,,,,,,,,,,,,
,,,,,,,,,WS.07,001,2025-01-22_12h48.52.948,empathy_intonation_perc,2024.1.4,Win32,60.0240096,74.963,76.612,1,1,1.099,,76.612,77.612,0,5,5,5,1,0,sacapuntas,1,REAL,FALSA,,,,,,,,,,,,,,,,,
,,,,,,,,,WS.07,001,2025-01-22_12h48.52.948,empathy_intonation_perc,2024.1.4,Win32,60.0240096,77.614,79.777,0,1,1.619,,79.777,80.776,0,6,6,6,1,0,priba,0,REAL,FALSA,,,,,,,,,,,,,,,,,
,,,,,,,,,WS.07,001,2025-01-22_12h48.52.948,empathy_intonation_perc,2024.1.4,Win32,60.0240096,80.777,83.775,1,0,2.45,,83.775,84.774,0,7,7,7,1,0,pelasula,0,REAL,FALSA,,,,,,,,,,,,,,,,,
,,,,,,,,,WS.07,001,2025-01-22_12h48.52.948,empathy_intonation_perc,2024.1.4,Win32,60.0240096,84.775,86.407,1,1,1.122,,86.407,87.407,0,8,8,8,1,0,bien,1,REAL,FALSA,,,,,,,,,,,,,,,,,
,,,,,,,,,WS.07,001,2025-01-22_12h48.52.948,empathy_intonation_perc,2024.1.4,Win32,60.0240096,87.407,88.739,1,1,0.789,,88.739,89.739,0,9,9,9,1,0,casa,1,REAL,FALSA,,,,,,,,,,,,,,,,,
,,,,,,,,,WS.07,001,2025-01-22_12h48.52.948,empathy_intonation_perc,2024.1.4,Win32,60.0240096,89.74,92.871,1,0,2.595,,92.871,93.871,0,10,10,10,1,0,lejo,0,REAL,FALSA,,,,,,,,,,,,,,,,,
,,,,,,,,,WS.07,001,2025-01-22_12h48.52.948,empathy_intonation_perc,2024.1.4,Win32,60.0240096,93.872,99.268,0,1,4.859,,99.268,100.268,0,11,11,11,1,0,pretantas,0,REAL,FALSA,,,,,,,,,,,,,,,,,
,,,,,,,,,WS.07,001,2025-01-22_12h48.52.948,empathy_intonation_perc,2024.1.4,Win32,60.0240096,,,,,,,,,,,,,,,,,,,100.268,113.963,,,,,,,,,,,,,,,
,,,,,,,,,WS.07,001,2025-01-22_12h48.52.948,empathy_intonation_perc,2024.1.4,Win32,60.0240096,,,,,,,,,,,,,,121,barbs,,,,,,113.978,116.595,0,1,2.083,,0,0,0,120,1,pseudoword,0,REAL,FALSA
,,,,,,,,,WS.07,001,2025-01-22_12h48.52.948,empathy_intonation_perc,2024.1.4,Win32,60.0240096,,,,,,,,,,,,,,130,dubo,,,,,,116.596,118.394,0,1,1.248,,0,1,1,129,1,pseudoword,0,REAL,FALSA
,,,,,,,,,WS.07,001,2025-01-22_12h48.52.948,empathy_intonation_perc,2024.1.4,Win32,60.0240096,,,,,,,,,,,,,,76,chocar,,,,,,118.394,119.643,1,0,0.707,,0,2,2,75,1,non_cognate,1,REAL,FALSA
,,,,,,,,,WS.07,001,2025-01-22_12h48.52.948,empathy_intonation_perc,2024.1.4,Win32,60.0240096,,,,,,,,,,,,,,95,listo,,,,,,119.643,120.826,1,0,0.634,,0,3,3,94,1,non_cognate,1,REAL,FALSA
,,,,,,,,,WS.07,001,2025-01-22_12h48.52.948,empathy_intonation_perc,2024.1.4,Win32,60.0240096,,,,,,,,,,,,,,36,viable,,,,,,120.827,122.725,1,0,1.364,,0,4,4,35,1,two_way_cognate,1,REAL,FALSA
,,,,,,,,,WS.07,001,2025-01-22_12h48.52.948,empathy_intonation_perc,2024.1.4,Win32,60.0240096,,,,,,,,,,,,,,150,cricó,,,,,,122.725,124.224,0,1,0.96,,0,5,5,149,1,pseudoword,0,REAL,FALSA
,,,,,,,,,WS.07,001,2025-01-22_12h48.52.948,empathy_intonation_perc,2024.1.4,Win32,60.0240096,,,,,,,,,,,,,,174,pabea,,,,,,124.225,126.274,0,1,1.509,,0,6,6,173,1,pseudoword,0,REAL,FALSA
,,,,,,,,,WS.07,001,2025-01-22_12h48.52.948,empathy_intonation_perc,2024.1.4,Win32,60.0240096,,,,,,,,,,,,,,20,trauma,,,,,,126.274,127.44,1,0,0.617,,0,7,7,19,1,three_way_cognate,1,REAL,FALSA
,,,,,,,,,WS.07,001,2025-01-22_12h48.52.948,empathy_intonation_perc,2024.1.4,Win32,60.0240096,,,,,,,,,,,,,,48,pelvis,,,,,,127.44,128.639,1,0,0.654,,0,8,8,47,1,two_way_cognate,1,REAL,FALSA
,,,,,,,,,WS.07,001,2025-01-22_12h48.52.948,empathy_intonation_perc,2024.1.4,Win32,60.0240096,,,,,,,,,,,,,,24,retina,,,,,,128.64,130.488,1,0,1.31,,0,9,9,23,1,three_way_cognate,1,REAL,FALSA
,,,,,,,,,WS.07,001,2025-01-22_12h48.52.948,empathy_intonation_perc,2024.1.4,Win32,60.0240096,,,,,,,,,,,,,,11,golf,,,,,,130.489,131.738,1,0,0.711,,0,10,10,10,1,three_way_cognate,1,REAL,FALSA
,,,,,,,,,WS.07,001,2025-01-22_12h48.52.948,empathy_intonation_perc,2024.1.4,Win32,60.0240096,,,,,,,,,,,,,,34,actor,,,,,,131.738,132.804,1,0,0.556,,0,11,11,33,1,two_way_cognate,1,REAL,FALSA
,,,,,,,,,WS.07,001,2025-01-22_12h48.52.948,empathy_intonation_perc,2024.1.4,Win32,60.0240096,,,,,,,,,,,,,,69,tiza,,,,,,132.804,134.02,0,1,0.67,,0,12,12,68,1,non_cognate,1,REAL,FALSA
,,,,,,,,,WS.07,001,2025-01-22_12h48.52.948,empathy_intonation_perc,2024.1.4,Win32,60.0240096,,,,,,,,,,,,,,35,aurora,,,,,,134.02,135.419,1,0,0.856,,0,13,13,34,1,two_way_cognate,1,REAL,FALSA
,,,,,,,,,WS.07,001,2025-01-22_12h48.52.948,empathy_intonation_perc,2024.1.4,Win32,60.0240096,,,,,,,,,,,,,,52,blando,,,,,,135.42,140.901,0,1,4.936,,0,14,14,51,1,non_cognate,1,REAL,FALSA
,,,,,,,,,WS.07,001,2025-01-22_12h48.52.948,empathy_intonation_perc,2024.1.4,Win32,60.0240096,,,,,,,,,,,,,,153,golla,,,,,,140.901,143.383,0,1,1.935,,0,15,15,152,1,pseudoword,0,REAL,FALSA
,,,,,,,,,WS.07,001,2025-01-22_12h48.52.948,empathy_intonation_perc,2024.1.4,Win32,60.0240096,,,,,,,,,,,,,,132,nocó,,,,,,143.384,145.05,0,1,1.117,,0,16,16,131,1,pseudoword,0,REAL,FALSA
,,,,,,,,,WS.07,001,2025-01-22_12h48.52.948,empathy_intonation_perc,2024.1.4,Win32,60.0240096,,,,,,,,,,,,,,33,collar,,,,,,145.052,148.564,1,0,2.97,,0,17,17,32,1,two_way_cognate,1,REAL,FALSA
,,,,,,,,,WS.07,001,2025-01-22_12h48.52.948,empathy_intonation_perc,2024.1.4,Win32,60.0240096,,,,,,,,,,,,,,173,mibro,,,,,,148.565,158.009,0,1,8.91,,0,18,18,172,1,pseudoword,0,REAL,FALSA
,,,,,,,,,WS.07,001,2025-01-22_12h48.52.948,empathy_intonation_perc,2024.1.4,Win32,60.0240096,,,,,,,,,,,,,,177,entodo,,,,,,158.011,160.742,0,1,2.199,,0,19,19,176,1,pseudoword,0,REAL,FALSA
,,,,,,,,,WS.07,001,2025-01-22_12h48.52.948,empathy_intonation_perc,2024.1.4,Win32,60.0240096,,,,,,,,,,,,,,85,enorme,,,,,,160.742,161.908,1,0,0.624,,0,20,20,84,1,non_cognate,1,REAL,FALSA
,,,,,,,,,WS.07,001,2025-01-22_12h48.52.948,empathy_intonation_perc,2024.1.4,Win32,60.0240096,,,,,,,,,,,,,,100,épinas,,,,,,161.909,167.322,0,1,4.88,,0,21,21,99,1,pseudoword,0,REAL,FALSA
,,,,,,,,,WS.07,001,2025-01-22_12h48.52.948,empathy_intonation_perc,2024.1.4,Win32,60.0240096,,,,,,,,,,,,,,113,nasce,,,,,,167.323,169.788,1,0,1.914,,0,22,22,112,1,pseudoword,0,REAL,FALSA
,,,,,,,,,WS.07,001,2025-01-22_12h48.52.948,empathy_intonation_perc,2024.1.4,Win32,60.0240096,,,,,,,,,,,,,,67,llamar,,,,,,169.789,170.97,1,0,0.647,,0,23,23,66,1,non_cognate,1,REAL,FALSA
,,,,,,,,,WS.07,001,2025-01-22_12h48.52.948,empathy_intonation_perc,2024.1.4,Win32,60.0240096,,,,,,,,,,,,,,49,teñir,,,,,,170.971,173.019,0,1,1.511,,0,24,24,48,1,non_cognate,1,REAL,FALSA
,,,,,,,,,WS.07,001,2025-01-22_12h48.52.948,empathy_intonation_perc,2024.1.4,Win32,60.0240096,,,,,,,,,,,,,,31,civil,,,,,,173.02,174.252,1,0,0.714,,0,25,25,30,1,two_way_cognate,1,REAL,FALSA
,,,,,,,,,WS.07,001,2025-01-22_12h48.52.948,empathy_intonation_perc,2024.1.4,Win32,60.0240096,,,,,,,,,,,,,,185,aljizo,,,,,,174.253,176.919,0,1,2.125,,0,26,26,184,1,pseudoword,0,REAL,FALSA
,,,,,,,,,WS.07,001,2025-01-22_12h48.52.948,empathy_intonation_perc,2024.1.4,Win32,60.0240096,,,,,,,,,,,,,,80,cuenco,,,,,,176.92,178.385,1,0,0.922,,0,27,27,79,1,non_cognate,1,REAL,FALSA
,,,,,,,,,WS.07,001,2025-01-22_12h48.52.948,empathy_intonation_perc,2024.1.4,Win32,60.0240096,,,,,,,,,,,,,,191,frasis,,,,,,178.389,190.512,0,1,11.591,,0,28,28,190,1,pseudoword,0,REAL,FALSA
,,,,,,,,,WS.07,001,2025-01-22_12h48.52.948,empathy_intonation_perc,2024.1.4,Win32,60.0240096,,,,,,,,,,,,,,135,panté,,,,,,190.513,193.145,0,1,2.099,,0,29,29,134,1,pseudoword,0,REAL,FALSA
,,,,,,,,,WS.07,001,2025-01-22_12h48.52.948,empathy_intonation_perc,2024.1.4,Win32,60.0240096,,,,,,,,,,,,,,61,aduana,,,,,,193.145,194.994,0,1,1.314,,0,30,30,60,1,non_cognate,1,REAL,FALSA
,,,,,,,,,WS.07,001,2025-01-22_12h48.52.948,empathy_intonation_perc,2024.1.4,Win32,60.0240096,,,,,,,,,,,,,,5,extra,,,,,,194.994,196.127,1,0,0.599,,0,31,31,4,1,three_way_cognate,1,REAL,FALSA
,,,,,,,,,WS.07,001,2025-01-22_12h48.52.948,empathy_intonation_perc,2024.1.4,Win32,60.0240096,,,,,,,,,,,,,,45,total,,,,,,196.127,197.893,1,0,1.22,,0,32,32,44,1,two_way_cognate,1,REAL,FALSA
,,,,,,,,,WS.07,001,2025-01-22_12h48.52.948,empathy_intonation_perc,2024.1.4,Win32,60.0240096,,,,,,,,,,,,,,16,chat,,,,,,197.893,199.059,1,0,0.629,,0,33,33,15,1,three_way_cognate,1,REAL,FALSA
,,,,,,,,,WS.07,001,2025-01-22_12h48.52.948,empathy_intonation_perc,2024.1.4,Win32,60.0240096,,,,,,,,,,,,,,19,mafia,,,,,,199.059,200.258,1,0,0.687,,0,34,34,18,1,three_way_cognate,1,REAL,FALSA
,,,,,,,,,WS.07,001,2025-01-22_12h48.52.948,empathy_intonation_perc,2024.1.4,Win32,60.0240096,,,,,,,,,,,,,,151,prías,,,,,,200.259,203.407,0,1,2.613,,0,35,35,150,1,pseudoword,0,REAL,FALSA
,,,,,,,,,WS.07,001,2025-01-22_12h48.52.948,empathy_intonation_perc,2024.1.4,Win32,60.0240096,,,,,,,,,,,,,,58,colcha,,,,,,203.407,211.738,0,1,7.79,,0,36,36,57,1,non_cognate,1,REAL,FALSA
,,,,,,,,,WS.07,001,2025-01-22_12h48.52.948,empathy_intonation_perc,2024.1.4,Win32,60.0240096,,,,,,,,,,,,,,149,emén,,,,,,211.741,215.418,0,1,3.144,,0,37,37,148,1,pseudoword,0,REAL,FALSA
,,,,,,,,,WS.07,001,2025-01-22_12h48.52.948,empathy_intonation_perc,2024.1.4,Win32,60.0240096,,,,,,,,,,,,,,155,kugis,,,,,,215.419,217.817,0,1,1.86,,0,38,38,154,1,pseudoword,0,REAL,FALSA
,,,,,,,,,WS.07,001,2025-01-22_12h48.52.948,empathy_intonation_perc,2024.1.4,Win32,60.0240096,,,,,,,,,,,,,,14,aura,,,,,,217.818,219.1,1,0,0.743,,0,39,39,13,1,three_way_cognate,1,REAL,FALSA
,,,,,,,,,WS.07,001,2025-01-22_12h48.52.948,empathy_intonation_perc,2024.1.4,Win32,60.0240096,,,,,,,,,,,,,,178,inichó,,,,,,219.101,222.931,0,1,3.297,,0,40,40,177,1,pseudoword,0,REAL,FALSA
,,,,,,,,,WS.07,001,2025-01-22_12h48.52.948,empathy_intonation_perc,2024.1.4,Win32,60.0240096,,,,,,,,,,,,,,165,chote,,,,,,222.932,235.31,0,1,11.84,,0,41,41,164,1,pseudoword,0,REAL,FALSA
,,,,,,,,,WS.07,001,2025-01-22_12h48.52.948,empathy_intonation_perc,2024.1.4,Win32,60.0240096,,,,,,,,,,,,,,10,drama,,,,,,235.311,236.426,1,0,0.571,,0,42,42,9,1,three_way_cognate,1,REAL,FALSA
,,,,,,,,,WS.07,001,2025-01-22_12h48.52.948,empathy_intonation_perc,2024.1.4,Win32,60.0240096,,,,,,,,,,,,,,141,virios,,,,,,236.427,237.775,0,1,0.81,,0,43,43,140,1,pseudoword,0,REAL,FALSA
,,,,,,,,,WS.07,001,2025-01-22_12h48.52.948,empathy_intonation_perc,2024.1.4,Win32,60.0240096,,,,,,,,,,,,,,25,vigor,,,,,,237.776,242.69,0,1,4.376,,0,44,44,24,1,two_way_cognate,1,REAL,FALSA
,,,,,,,,,WS.07,001,2025-01-22_12h48.52.948,empathy_intonation_perc,2024.1.4,Win32,60.0240096,,,,,,,,,,,,,,89,muñeca,,,,,,242.69,244.272,1,0,1.056,,0,45,45,88,1,non_cognate,1,REAL,FALSA
,,,,,,,,,WS.07,001,2025-01-22_12h48.52.948,empathy_intonation_perc,2024.1.4,Win32,60.0240096,,,,,,,,,,,,,,50,sierra,,,,,,244.273,245.856,1,0,1.033,,0,46,46,49,1,non_cognate,1,REAL,FALSA
,,,,,,,,,WS.07,001,2025-01-22_12h48.52.948,empathy_intonation_perc,2024.1.4,Win32,60.0240096,,,,,,,,,,,,,,101,losco,,,,,,245.858,259.667,0,1,13.281,,0,47,47,100,1,pseudoword,0,REAL,FALSA
,,,,,,,,,WS.07,001,2025-01-22_12h48.52.948,empathy_intonation_perc,2024.1.4,Win32,60.0240096,,,,,,,,,,,,,,123,arane,,,,,,259.667,261.298,1,0,1.097,,0,48,48,122,1,pseudoword,0,REAL,FALSA
,,,,,,,,,WS.07,001,2025-01-22_12h48.52.948,empathy_intonation_perc,2024.1.4,Win32,60.0240096,,,,,,,,,,,,,,99,bugor,,,,,,261.298,262.664,0,1,0.843,,0,49,49,98,1,pseudoword,0,REAL,FALSA
,,,,,,,,,WS.07,001,2025-01-22_12h48.52.948,empathy_intonation_perc,2024.1.4,Win32,60.0240096,,,,,,,,,,,,,,128,pelí,,,,,,262.664,264.03,0,1,0.831,,0,50,50,127,1,pseudoword,0,REAL,FALSA
,,,,,,,,,WS.07,001,2025-01-22_12h48.52.948,empathy_intonation_perc,2024.1.4,Win32,60.0240096,,,,,,,,,,,,,,79,suelo,,,,,,264.032,265.263,1,0,0.694,,0,51,51,78,1,non_cognate,1,REAL,FALSA
,,,,,,,,,WS.07,001,2025-01-22_12h48.52.948,empathy_intonation_perc,2024.1.4,Win32,60.0240096,,,,,,,,,,,,,,106,diebro,,,,,,265.264,267.595,0,1,1.781,,0,52,52,105,1,pseudoword,0,REAL,FALSA
,,,,,,,,,WS.07,001,2025-01-22_12h48.52.948,empathy_intonation_perc,2024.1.4,Win32,60.0240096,,,,,,,,,,,,,,166,anfia,,,,,,267.596,269.694,1,0,1.585,,0,53,53,165,1,pseudoword,0,REAL,FALSA
,,,,,,,,,WS.07,001,2025-01-22_12h48.52.948,empathy_intonation_perc,2024.1.4,Win32,60.0240096,,,,,,,,,,,,,,102,coyo,,,,,,269.696,270.894,0,1,0.649,,0,54,54,101,1,pseudoword,0,REAL,FALSA
,,,,,,,,,WS.07,001,2025-01-22_12h48.52.948,empathy_intonation_perc,2024.1.4,Win32,60.0240096,,,,,,,,,,,,,,90,venado,,,,,,270.895,274.909,0,1,3.473,,0,55,55,89,1,non_cognate,1,REAL,FALSA
,,,,,,,,,WS.07,001,2025-01-22_12h48.52.948,empathy_intonation_perc,2024.1.4,Win32,60.0240096,,,,,,,,,,,,,,120,mauja,,,,,,274.91,277.108,0,1,1.645,,0,56,56,119,1,pseudoword,0,REAL,FALSA
,,,,,,,,,WS.07,001,2025-01-22_12h48.52.948,empathy_intonation_perc,2024.1.4,Win32,60.0240096,,,,,,,,,,,,,,184,huenos,,,,,,277.109,278.625,0,1,0.974,,0,57,57,183,1,pseudoword,0,REAL,FALSA
,,,,,,,,,WS.07,001,2025-01-22_12h48.52.948,empathy_intonation_perc,2024.1.4,Win32,60.0240096,,,,,,,,,,,,,,70,ánimo,,,,,,278.628,280.058,1,0,0.894,,0,58,58,69,1,non_cognate,1,REAL,FALSA
,,,,,,,,,WS.07,001,2025-01-22_12h48.52.948,empathy_intonation_perc,2024.1.4,Win32,60.0240096,,,,,,,,,,,,,,38,halo,,,,,,280.058,287.171,0,1,6.571,,0,59,59,37,1,two_way_cognate,1,REAL,FALSA
,,,,,,,,,WS.07,001,2025-01-22_12h48.52.948,empathy_intonation_perc,2024.1.4,Win32,60.0240096,,,,,,,,,,,,,,187,nomata,,,,,,287.171,289.503,0,1,1.805,,0,60,60,186,1,pseudoword,0,REAL,FALSA
,,,,,,,,,WS.07,001,2025-01-22_12h48.52.948,empathy_intonation_perc,2024.1.4,Win32,60.0240096,,,,,,,,,,,,,,126,tobre,,,,,,289.503,292.252,0,1,2.201,,0,61,61,125,1,pseudoword,0,REAL,FALSA
,,,,,,,,,WS.07,001,2025-01-22_12h48.52.948,empathy_intonation_perc,2024.1.4,Win32,60.0240096,,,,,,,,,,,,,,105,peniz,,,,,,292.253,294.467,0,1,1.688,,0,62,62,104,1,pseudoword,0,REAL,FALSA
,,,,,,,,,WS.07,001,2025-01-22_12h48.52.948,empathy_intonation_perc,2024.1.4,Win32,60.0240096,,,,,,,,,,,,,,109,laras,,,,,,294.468,296.933,0,1,1.925,,0,63,63,108,1,pseudoword,0,REAL,FALSA
,,,,,,,,,WS.07,001,2025-01-22_12h48.52.948,empathy_intonation_perc,2024.1.4,Win32,60.0240096,,,,,,,,,,,,,,73,llevar,,,,,,296.933,298.15,1,0,0.695,,0,64,64,72,1,non_cognate,1,REAL,FALSA
,,,,,,,,,WS.07,001,2025-01-22_12h48.52.948,empathy_intonation_perc,2024.1.4,Win32,60.0240096,,,,,,,,,,,,,,47,color,,,,,,298.15,299.199,1,0,0.514,,0,65,65,46,1,two_way_cognate,1,REAL,FALSA
,,,,,,,,,WS.07,001,2025-01-22_12h48.52.948,empathy_intonation_perc,2024.1.4,Win32,60.0240096,,,,,,,,,,,,,,115,lidena,,,,,,299.199,301.048,0,1,1.308,,0,66,66,114,1,pseudoword,0,REAL,FALSA
,,,,,,,,,WS.07,001,2025-01-22_12h48.52.948,empathy_intonation_perc,2024.1.4,Win32,60.0240096,,,,,,,,,,,,,,75,patada,,,,,,301.048,303.746,1,0,2.183,,0,67,67,74,1,non_cognate,1,REAL,FALSA
,,,,,,,,,WS.07,001,2025-01-22_12h48.52.948,empathy_intonation_perc,2024.1.4,Win32,60.0240096,,,,,,,,,,,,,,23,plural,,,,,,303.747,309.161,1,0,4.873,,0,68,68,22,1,three_way_cognate,1,REAL,FALSA
,,,,,,,,,WS.07,001,2025-01-22_12h48.52.948,empathy_intonation_perc,2024.1.4,Win32,60.0240096,,,,,,,,,,,,,,133,conso,,,,,,309.162,310.56,0,1,0.872,,0,69,69,132,1,pseudoword,0,REAL,FALSA
,,,,,,,,,WS.07,001,2025-01-22_12h48.52.948,empathy_intonation_perc,2024.1.4,Win32,60.0240096,,,,,,,,,,,,,,98,martir,,,,,,310.561,312.027,0,1,0.923,,0,70,70,97,1,pseudoword,0,REAL,FALSA
,,,,,,,,,WS.07,001,2025-01-22_12h48.52.948,empathy_intonation_perc,2024.1.4,Win32,60.0240096,,,,,,,,,,,,,,114,dibrea,,,,,,312.03,313.443,0,1,0.868,,0,71,71,113,1,pseudoword,0,REAL,FALSA
,,,,,,,,,WS.07,001,2025-01-22_12h48.52.948,empathy_intonation_perc,2024.1.4,Win32,60.0240096,,,,,,,,,,,,,,159,trcia,,,,,,313.443,314.959,0,1,0.992,,0,72,72,158,1,pseudoword,0,REAL,FALSA
,,,,,,,,,WS.07,001,2025-01-22_12h48.52.948,empathy_intonation_perc,2024.1.4,Win32,60.0240096,,,,,,,,,,,,,,146,gió,,,,,,314.959,316.158,0,1,0.666,,0,73,73,145,1,pseudoword,0,REAL,FALSA
,,,,,,,,,WS.07,001,2025-01-22_12h48.52.948,empathy_intonation_perc,2024.1.4,Win32,60.0240096,,,,,,,,,,,,,,125,ceme,,,,,,316.159,321.239,0,1,4.54,,0,74,74,124,1,pseudoword,0,REAL,FALSA
,,,,,,,,,WS.07,001,2025-01-22_12h48.52.948,empathy_intonation_perc,2024.1.4,Win32,60.0240096,,,,,,,,,,,,,,56,pico,,,,,,321.24,323.006,1,0,1.214,,0,75,75,55,1,non_cognate,1,REAL,FALSA
,,,,,,,,,WS.07,001,2025-01-22_12h48.52.948,empathy_intonation_perc,2024.1.4,Win32,60.0240096,,,,,,,,,,,,,,68,puñal,,,,,,323.006,324.387,1,0,0.835,,0,76,76,67,1,non_cognate,1,REAL,FALSA
,,,,,,,,,WS.07,001,2025-01-22_12h48.52.948,empathy_intonation_perc,2024.1.4,Win32,60.0240096,,,,,,,,,,,,,,107,plago,,,,,,324.389,333.267,0,1,8.342,,0,77,77,106,1,pseudoword,0,REAL,FALSA
,,,,,,,,,WS.07,001,2025-01-22_12h48.52.948,empathy_intonation_perc,2024.1.4,Win32,60.0240096,,,,,,,,,,,,,,136,hueas,,,,,,333.268,334.551,0,1,0.744,,0,78,78,135,1,pseudoword,0,REAL,FALSA
,,,,,,,,,WS.07,001,2025-01-22_12h48.52.948,empathy_intonation_perc,2024.1.4,Win32,60.0240096,,,,,,,,,,,,,,142,parre,,,,,,334.551,335.884,0,1,0.795,,0,79,79,141,1,pseudoword,0,REAL,FALSA
,,,,,,,,,WS.07,001,2025-01-22_12h48.52.948,empathy_intonation_perc,2024.1.4,Win32,60.0240096,,,,,,,,,,,,,,64,rizado,,,,,,335.884,337.732,0,1,1.305,,0,80,80,63,1,non_cognate,1,REAL,FALSA
,,,,,,,,,WS.07,001,2025-01-22_12h48.52.948,empathy_intonation_perc,2024.1.4,Win32,60.0240096,,,,,,,,,,,,,,188,amplir,,,,,,337.733,338.948,1,0,0.682,,0,81,81,187,1,pseudoword,0,REAL,FALSA
,,,,,,,,,WS.07,001,2025-01-22_12h48.52.948,empathy_intonation_perc,2024.1.4,Win32,60.0240096,,,,,,,,,,,,,,181,gravés,,,,,,338.948,340.531,1,0,1.033,,0,82,82,180,1,pseudoword,0,REAL,FALSA
,,,,,,,,,WS.07,001,2025-01-22_12h48.52.948,empathy_intonation_perc,2024.1.4,Win32,60.0240096,,,,,,,,,,,,,,84,aviso,,,,,,340.532,342.114,1,0,1.052,,0,83,83,83,1,non_cognate,1,REAL,FALSA
,,,,,,,,,WS.07,001,2025-01-22_12h48.52.948,empathy_intonation_perc,2024.1.4,Win32,60.0240096,,,,,,,,,,,,,,108,jauda,,,,,,342.114,343.88,0,1,1.216,,0,84,84,107,1,pseudoword,0,REAL,FALSA
,,,,,,,,,WS.07,001,2025-01-22_12h48.52.948,empathy_intonation_perc,2024.1.4,Win32,60.0240096,,,,,,,,,,,,,,91,equipo,,,,,,343.88,346.03,1,0,1.607,,0,85,85,90,1,non_cognate,1,REAL,FALSA
,,,,,,,,,WS.07,001,2025-01-22_12h48.52.948,empathy_intonation_perc,2024.1.4,Win32,60.0240096,,,,,,,,,,,,,,172,dogue,,,,,,346.033,347.845,0,1,1.269,,0,86,86,171,1,pseudoword,0,REAL,FALSA
,,,,,,,,,WS.07,001,2025-01-22_12h48.52.948,empathy_intonation_perc,2024.1.4,Win32,60.0240096,,,,,,,,,,,,,,26,enigma,,,,,,347.846,349.56,1,0,1.175,,0,87,87,25,1,two_way_cognate,1,REAL,FALSA
,,,,,,,,,WS.07,001,2025-01-22_12h48.52.948,empathy_intonation_perc,2024.1.4,Win32,60.0240096,,,,,,,,,,,,,,157,seled,,,,,,349.561,354.275,0,1,4.165,,0,88,88,156,1,pseudoword,0,REAL,FALSA
,,,,,,,,,WS.07,001,2025-01-22_12h48.52.948,empathy_intonation_perc,2024.1.4,Win32,60.0240096,,,,,,,,,,,,,,53,punta,,,,,,354.276,355.658,1,0,0.843,,0,89,89,52,1,non_cognate,1,REAL,FALSA
,,,,,,,,,WS.07,001,2025-01-22_12h48.52.948,empathy_intonation_perc,2024.1.4,Win32,60.0240096,,,,,,,,,,,,,,110,densó,,,,,,355.659,357.024,0,1,0.826,,0,90,90,109,1,pseudoword,0,REAL,FALSA
,,,,,,,,,WS.07,001,2025-01-22_12h48.52.948,empathy_intonation_perc,2024.1.4,Win32,60.0240096,,,,,,,,,,,,,,156,ozoso,,,,,,357.024,358.323,0,1,0.75,,0,91,91,155,1,pseudoword,0,REAL,FALSA
,,,,,,,,,WS.07,001,2025-01-22_12h48.52.948,empathy_intonation_perc,2024.1.4,Win32,60.0240096,,,,,,,,,,,,,,112,samón,,,,,,358.326,359.906,0,1,1.047,,0,92,92,111,1,pseudoword,0,REAL,FALSA
,,,,,,,,,WS.07,001,2025-01-22_12h48.52.948,empathy_intonation_perc,2024.1.4,Win32,60.0240096,,,,,,,,,,,,,,163,llzan,,,,,,359.906,361.672,0,1,1.232,,0,93,93,162,1,pseudoword,0,REAL,FALSA
,,,,,,,,,WS.07,001,2025-01-22_12h48.52.948,empathy_intonation_perc,2024.1.4,Win32,60.0240096,,,,,,,,,,,,,,176,gripar,,,,,,361.673,363.171,1,0,0.948,,0,94,94,175,1,pseudoword,0,REAL,FALSA
,,,,,,,,,WS.07,001,2025-01-22_12h48.52.948,empathy_intonation_perc,2024.1.4,Win32,60.0240096,,,,,,,,,,,,,,28,ardor,,,,,,363.172,364.571,0,1,0.868,,0,95,95,27,1,two_way_cognate,1,REAL,FALSA
,,,,,,,,,WS.07,001,2025-01-22_12h48.52.948,empathy_intonation_perc,2024.1.4,Win32,60.0240096,,,,,,,,,,,,,,104,estulo,,,,,,364.572,366.287,0,1,1.179,,0,96,96,103,1,pseudoword,0,REAL,FALSA
,,,,,,,,,WS.07,001,2025-01-22_12h48.52.948,empathy_intonation_perc,2024.1.4,Win32,60.0240096,,,,,,,,,,,,,,29,clamor,,,,,,366.288,368.136,1,0,1.302,,0,97,97,28,1,two_way_cognate,1,REAL,FALSA
,,,,,,,,,WS.07,001,2025-01-22_12h48.52.948,empathy_intonation_perc,2024.1.4,Win32,60.0240096,,,,,,,,,,,,,,32,animal,,,,,,368.136,369.318,1,0,0.665,,0,98,98,31,1,two_way_cognate,1,REAL,FALSA
,,,,,,,,,WS.07,001,2025-01-22_12h48.52.948,empathy_intonation_perc,2024.1.4,Win32,60.0240096,,,,,,,,,,,,,,127,vien,,,,,,369.319,371.967,1,0,2.132,,0,99,99,126,1,pseudoword,0,REAL,FALSA
,,,,,,,,,WS.07,001,2025-01-22_12h48.52.948,empathy_intonation_perc,2024.1.4,Win32,60.0240096,,,,,,,,,,,,,,168,cobén,,,,,,371.969,373.284,0,1,0.774,,0,100,100,167,1,pseudoword,0,REAL,FALSA
,,,,,,,,,WS.07,001,2025-01-22_12h48.52.948,empathy_intonation_perc,2024.1.4,Win32,60.0240096,,,,,,,,,,,,,,124,lobe,,,,,,373.284,374.616,0,1,0.793,,0,101,101,123,1,pseudoword,0,REAL,FALSA
,,,,,,,,,WS.07,001,2025-01-22_12h48.52.948,empathy_intonation_perc,2024.1.4,Win32,60.0240096,,,,,,,,,,,,,,144,diroco,,,,,,374.617,375.865,0,1,0.705,,0,102,102,143,1,pseudoword,0,REAL,FALSA
,,,,,,,,,WS.07,001,2025-01-22_12h48.52.948,empathy_intonation_perc,2024.1.4,Win32,60.0240096,,,,,,,,,,,,,,170,diabo,,,,,,375.866,380.532,0,1,4.129,,0,103,103,169,1,pseudoword,0,REAL,FALSA
,,,,,,,,,WS.07,001,2025-01-22_12h48.52.948,empathy_intonation_perc,2024.1.4,Win32,60.0240096,,,,,,,,,,,,,,21,hotel,,,,,,380.535,381.663,1,0,0.592,,0,104,104,20,1,three_way_cognate,1,REAL,FALSA
,,,,,,,,,WS.07,001,2025-01-22_12h48.52.948,empathy_intonation_perc,2024.1.4,Win32,60.0240096,,,,,,,,,,,,,,37,torso,,,,,,381.663,382.862,1,0,0.666,,0,105,105,36,1,two_way_cognate,1,REAL,FALSA
,,,,,,,,,WS.07,001,2025-01-22_12h48.52.948,empathy_intonation_perc,2024.1.4,Win32,60.0240096,,,,,,,,,,,,,,169,pitis,,,,,,382.863,383.98,0,1,0.578,,0,106,106,168,1,pseudoword,0,REAL,FALSA
,,,,,,,,,WS.07,001,2025-01-22_12h48.52.948,empathy_intonation_perc,2024.1.4,Win32,60.0240096,,,,,,,,,,,,,,40,pelvis,,,,,,383.981,385.029,1,0,0.503,,0,107,107,39,1,two_way_cognate,1,REAL,FALSA
,,,,,,,,,WS.07,001,2025-01-22_12h48.52.948,empathy_intonation_perc,2024.1.4,Win32,60.0240096,,,,,,,,,,,,,,167,dobbo,,,,,,385.029,386.411,0,1,0.838,,0,108,108,166,1,pseudoword,0,REAL,FALSA
,,,,,,,,,WS.07,001,2025-01-22_12h48.52.948,empathy_intonation_perc,2024.1.4,Win32,60.0240096,,,,,,,,,,,,,,57,regalo,,,,,,386.413,387.595,1,0,0.635,,0,109,109,56,1,non_cognate,1,REAL,FALSA
,,,,,,,,,WS.07,001,2025-01-22_12h48.52.948,empathy_intonation_perc,2024.1.4,Win32,60.0240096,,,,,,,,,,,,,,22,mango,,,,,,387.596,388.677,1,0,0.54,,0,110,110,21,1,three_way_cognate,1,REAL,FALSA
,,,,,,,,,WS.07,001,2025-01-22_12h48.52.948,empathy_intonation_perc,2024.1.4,Win32,60.0240096,,,,,,,,,,,,,,74,ala,,,,,,388.678,389.926,0,1,0.701,,0,111,111,73,1,non_cognate,1,REAL,FALSA
,,,,,,,,,WS.07,001,2025-01-22_12h48.52.948,empathy_intonation_perc,2024.1.4,Win32,60.0240096,,,,,,,,,,,,,,88,percha,,,,,,389.927,391.51,0,1,1.04,,0,112,112,87,1,non_cognate,1,REAL,FALSA
,,,,,,,,,WS.07,001,2025-01-22_12h48.52.948,empathy_intonation_perc,2024.1.4,Win32,60.0240096,,,,,,,,,,,,,,143,hurcos,,,,,,391.51,392.976,0,1,0.914,,0,113,113,142,1,pseudoword,0,REAL,FALSA
,,,,,,,,,WS.07,001,2025-01-22_12h48.52.948,empathy_intonation_perc,2024.1.4,Win32,60.0240096,,,,,,,,,,,,,,18,altar,,,,,,392.976,394.308,1,0,0.784,,0,114,114,17,1,three_way_cognate,1,REAL,FALSA
,,,,,,,,,WS.07,001,2025-01-22_12h48.52.948,empathy_intonation_perc,2024.1.4,Win32,60.0240096,,,,,,,,,,,,,,55,maldad,,,,,,394.309,395.858,0,1,1.004,,0,115,115,54,1,non_cognate,1,REAL,FALSA
,,,,,,,,,WS.07,001,2025-01-22_12h48.52.948,empathy_intonation_perc,2024.1.4,Win32,60.0240096,,,,,,,,,,,,,,30,fiscal,,,,,,395.859,397.256,1,0,0.867,,0,116,116,29,1,two_way_cognate,1,REAL,FALSA
,,,,,,,,,WS.07,001,2025-01-22_12h48.52.948,empathy_intonation_perc,2024.1.4,Win32,60.0240096,,,,,,,,,,,,,,46,mortal,,,,,,397.257,398.589,1,0,0.794,,0,117,117,45,1,two_way_cognate,1,REAL,FALSA
,,,,,,,,,WS.07,001,2025-01-22_12h48.52.948,empathy_intonation_perc,2024.1.4,Win32,60.0240096,,,,,,,,,,,,,,78,rendir,,,,,,398.59,400.189,1,0,1.057,,0,118,118,77,1,non_cognate,1,REAL,FALSA
,,,,,,,,,WS.07,001,2025-01-22_12h48.52.948,empathy_intonation_perc,2024.1.4,Win32,60.0240096,,,,,,,,,,,,,,39,casual,,,,,,400.19,401.338,1,0,0.603,,0,119,119,38,1,two_way_cognate,1,REAL,FALSA
,,,,,,,,,WS.07,001,2025-01-22_12h48.52.948,empathy_intonation_perc,2024.1.4,Win32,60.0240096,,,,,,,,,,,,,,13,plan,,,,,,401.339,402.438,1,0,0.565,,0,120,120,12,1,three_way_cognate,1,REAL,FALSA
,,,,,,,,,WS.07,001,2025-01-22_12h48.52.948,empathy_intonation_perc,2024.1.4,Win32,60.0240096,,,,,,,,,,,,,,71,torta,,,,,,402.438,405.587,1,0,2.612,,0,121,121,70,1,non_cognate,1,REAL,FALSA
,,,,,,,,,WS.07,001,2025-01-22_12h48.52.948,empathy_intonation_perc,2024.1.4,Win32,60.0240096,,,,,,,,,,,,,,93,tapa,,,,,,405.588,406.853,1,0,0.724,,0,122,122,92,1,non_cognate,1,REAL,FALSA
,,,,,,,,,WS.07,001,2025-01-22_12h48.52.948,empathy_intonation_perc,2024.1.4,Win32,60.0240096,,,,,,,,,,,,,,183,edioso,,,,,,406.853,408.035,0,1,0.639,,0,123,123,182,1,pseudoword,0,REAL,FALSA
,,,,,,,,,WS.07,001,2025-01-22_12h48.52.948,empathy_intonation_perc,2024.1.4,Win32,60.0240096,,,,,,,,,,,,,,87,muleta,,,,,,408.036,410.251,1,0,1.679,,0,124,124,86,1,non_cognate,1,REAL,FALSA
,,,,,,,,,WS.07,001,2025-01-22_12h48.52.948,empathy_intonation_perc,2024.1.4,Win32,60.0240096,,,,,,,,,,,,,,140,chorde,,,,,,410.251,411.55,0,1,0.787,,0,125,125,139,1,pseudoword,0,REAL,FALSA
,,,,,,,,,WS.07,001,2025-01-22_12h48.52.948,empathy_intonation_perc,2024.1.4,Win32,60.0240096,,,,,,,,,,,,,,147,alla,,,,,,411.551,413.017,1,0,0.928,,0,126,126,146,1,pseudoword,0,REAL,FALSA
,,,,,,,,,WS.07,001,2025-01-22_12h48.52.948,empathy_intonation_perc,2024.1.4,Win32,60.0240096,,,,,,,,,,,,,,1,moral,,,,,,413.02,414.317,1,0,0.763,,0,127,127,0,1,three_way_cognate,1,REAL,FALSA
,,,,,,,,,WS.07,001,2025-01-22_12h48.52.948,empathy_intonation_perc,2024.1.4,Win32,60.0240096,,,,,,,,,,,,,,139,sasos,,,,,,414.318,415.515,0,1,0.655,,0,128,128,138,1,pseudoword,0,REAL,FALSA
,,,,,,,,,WS.07,001,2025-01-22_12h48.52.948,empathy_intonation_perc,2024.1.4,Win32,60.0240096,,,,,,,,,,,,,,122,boñaz,,,,,,415.517,416.798,1,0,0.741,,0,129,129,121,1,pseudoword,0,REAL,FALSA
,,,,,,,,,WS.07,001,2025-01-22_12h48.52.948,empathy_intonation_perc,2024.1.4,Win32,60.0240096,,,,,,,,,,,,,,2,tumor,,,,,,416.8,417.981,1,0,0.632,,0,130,130,1,1,three_way_cognate,1,REAL,FALSA
,,,,,,,,,WS.07,001,2025-01-22_12h48.52.948,empathy_intonation_perc,2024.1.4,Win32,60.0240096,,,,,,,,,,,,,,12,dogma,,,,,,417.982,419.264,0,1,0.741,,0,131,131,11,1,three_way_cognate,1,REAL,FALSA
,,,,,,,,,WS.07,001,2025-01-22_12h48.52.948,empathy_intonation_perc,2024.1.4,Win32,60.0240096,,,,,,,,,,,,,,190,asumie,,,,,,419.265,420.63,0,1,0.82,,0,132,132,189,1,pseudoword,0,REAL,FALSA
,,,,,,,,,WS.07,001,2025-01-22_12h48.52.948,empathy_intonation_perc,2024.1.4,Win32,60.0240096,,,,,,,,,,,,,,162,cengo,,,,,,420.631,421.83,0,1,0.659,,0,133,133,161,1,pseudoword,0,REAL,FALSA
,,,,,,,,,WS.07,001,2025-01-22_12h48.52.948,empathy_intonation_perc,2024.1.4,Win32,60.0240096,,,,,,,,,,,,,,83,hálito,,,,,,421.83,423.012,0,1,0.634,,0,134,134,82,1,non_cognate,1,REAL,FALSA
,,,,,,,,,WS.07,001,2025-01-22_12h48.52.948,empathy_intonation_perc,2024.1.4,Win32,60.0240096,,,,,,,,,,,,,,171,gotro,,,,,,423.013,424.111,0,1,0.565,,0,135,135,170,1,pseudoword,0,REAL,FALSA
,,,,,,,,,WS.07,001,2025-01-22_12h48.52.948,empathy_intonation_perc,2024.1.4,Win32,60.0240096,,,,,,,,,,,,,,92,flecha,,,,,,424.111,425.678,1,0,1.044,,0,136,136,91,1,non_cognate,1,REAL,FALSA
,,,,,,,,,WS.07,001,2025-01-22_12h48.52.948,empathy_intonation_perc,2024.1.4,Win32,60.0240096,,,,,,,,,,,,,,60,siglo,,,,,,425.679,427.178,1,0,0.956,,0,137,137,59,1,non_cognate,1,REAL,FALSA
,,,,,,,,,WS.07,001,2025-01-22_12h48.52.948,empathy_intonation_perc,2024.1.4,Win32,60.0240096,,,,,,,,,,,,,,94,forro,,,,,,427.178,428.493,0,1,0.784,,0,138,138,93,1,non_cognate,1,REAL,FALSA
,,,,,,,,,WS.07,001,2025-01-22_12h48.52.948,empathy_intonation_perc,2024.1.4,Win32,60.0240096,,,,,,,,,,,,,,41,pasta,,,,,,428.493,429.643,1,0,0.629,,0,139,139,40,1,two_way_cognate,1,REAL,FALSA
,,,,,,,,,WS.07,001,2025-01-22_12h48.52.948,empathy_intonation_perc,2024.1.4,Win32,60.0240096,,,,,,,,,,,,,,145,rúo,,,,,,429.644,430.876,0,1,0.695,,0,140,140,144,1,pseudoword,0,REAL,FALSA
,,,,,,,,,WS.07,001,2025-01-22_12h48.52.948,empathy_intonation_perc,2024.1.4,Win32,60.0240096,,,,,,,,,,,,,,160,fomeó,,,,,,430.876,432.175,0,1,0.769,,0,141,141,159,1,pseudoword,0,REAL,FALSA
,,,,,,,,,WS.07,001,2025-01-22_12h48.52.948,empathy_intonation_perc,2024.1.4,Win32,60.0240096,,,,,,,,,,,,,,137,trugo,,,,,,432.175,433.458,0,1,0.731,,0,142,142,136,1,pseudoword,0,REAL,FALSA
,,,,,,,,,WS.07,001,2025-01-22_12h48.52.948,empathy_intonation_perc,2024.1.4,Win32,60.0240096,,,,,,,,,,,,,,86,cuenco,,,,,,433.459,434.857,1,0,0.868,,0,143,143,85,1,non_cognate,1,REAL,FALSA
,,,,,,,,,WS.07,001,2025-01-22_12h48.52.948,empathy_intonation_perc,2024.1.4,Win32,60.0240096,,,,,,,,,,,,,,129,vinzó,,,,,,434.857,436.74,0,1,1.348,,0,144,144,128,1,pseudoword,0,REAL,FALSA
,,,,,,,,,WS.07,001,2025-01-22_12h48.52.948,empathy_intonation_perc,2024.1.4,Win32,60.0240096,,,,,,,,,,,,,,192,próces,,,,,,436.74,438.939,0,1,1.666,,0,145,145,191,1,pseudoword,0,REAL,FALSA
,,,,,,,,,WS.07,001,2025-01-22_12h48.52.948,empathy_intonation_perc,2024.1.4,Win32,60.0240096,,,,,,,,,,,,,,134,molor,,,,,,438.939,440.289,0,1,0.822,,0,146,146,133,1,pseudoword,0,REAL,FALSA
,,,,,,,,,WS.07,001,2025-01-22_12h48.52.948,empathy_intonation_perc,2024.1.4,Win32,60.0240096,,,,,,,,,,,,,,182,desaro,,,,,,440.29,441.504,0,1,0.678,,0,147,147,181,1,pseudoword,0,REAL,FALSA
,,,,,,,,,WS.07,001,2025-01-22_12h48.52.948,empathy_intonation_perc,2024.1.4,Win32,60.0240096,,,,,,,,,,,,,,131,fuar,,,,,,441.506,442.736,0,1,0.693,,0,148,148,130,1,pseudoword,0,REAL,FALSA
,,,,,,,,,WS.07,001,2025-01-22_12h48.52.948,empathy_intonation_perc,2024.1.4,Win32,60.0240096,,,,,,,,,,,,,,59,feo,,,,,,442.737,444.203,1,0,0.946,,0,149,149,58,1,non_cognate,1,REAL,FALSA
,,,,,,,,,WS.07,001,2025-01-22_12h48.52.948,empathy_intonation_perc,2024.1.4,Win32,60.0240096,,,,,,,,,,,,,,164,tecia,,,,,,444.204,445.436,0,1,0.696,,0,150,150,163,1,pseudoword,0,REAL,FALSA
,,,,,,,,,WS.07,001,2025-01-22_12h48.52.948,empathy_intonation_perc,2024.1.4,Win32,60.0240096,,,,,,,,,,,,,,81,sacar,,,,,,445.437,446.636,1,0,0.65,,0,151,151,80,1,non_cognate,1,REAL,FALSA
,,,,,,,,,WS.07,001,2025-01-22_12h48.52.948,empathy_intonation_perc,2024.1.4,Win32,60.0240096,,,,,,,,,,,,,,117,morrá,,,,,,446.64,447.885,0,1,0.715,,0,152,152,116,1,pseudoword,0,REAL,FALSA
,,,,,,,,,WS.07,001,2025-01-22_12h48.52.948,empathy_intonation_perc,2024.1.4,Win32,60.0240096,,,,,,,,,,,,,,42,rumor,,,,,,447.886,448.985,1,0,0.549,,0,153,153,41,1,two_way_cognate,1,REAL,FALSA
,,,,,,,,,WS.07,001,2025-01-22_12h48.52.948,empathy_intonation_perc,2024.1.4,Win32,60.0240096,,,,,,,,,,,,,,3,disco,,,,,,448.985,450.251,1,0,0.718,,0,154,154,2,1,three_way_cognate,1,REAL,FALSA
,,,,,,,,,WS.07,001,2025-01-22_12h48.52.948,empathy_intonation_perc,2024.1.4,Win32,60.0240096,,,,,,,,,,,,,,63,hilo,,,,,,450.252,451.634,0,1,0.843,,0,155,155,62,1,non_cognate,1,REAL,FALSA
,,,,,,,,,WS.07,001,2025-01-22_12h48.52.948,empathy_intonation_perc,2024.1.4,Win32,60.0240096,,,,,,,,,,,,,,111,monue,,,,,,451.634,452.95,0,1,0.773,,0,156,156,110,1,pseudoword,0,REAL,FALSA
,,,,,,,,,WS.07,001,2025-01-22_12h48.52.948,empathy_intonation_perc,2024.1.4,Win32,60.0240096,,,,,,,,,,,,,,186,rizate,,,,,,452.951,454.648,0,1,1.16,,0,157,157,185,1,pseudoword,0,REAL,FALSA
,,,,,,,,,WS.07,001,2025-01-22_12h48.52.948,empathy_intonation_perc,2024.1.4,Win32,60.0240096,,,,,,,,,,,,,,15,test,,,,,,454.649,455.815,1,0,0.623,,0,158,158,14,1,three_way_cognate,1,REAL,FALSA
,,,,,,,,,WS.07,001,2025-01-22_12h48.52.948,empathy_intonation_perc,2024.1.4,Win32,60.0240096,,,,,,,,,,,,,,65,guerra,,,,,,455.815,457.014,1,0,0.676,,0,159,159,64,1,non_cognate,1,REAL,FALSA
,,,,,,,,,WS.07,001,2025-01-22_12h48.52.948,empathy_intonation_perc,2024.1.4,Win32,60.0240096,,,,,,,,,,,,,,154,harvé,,,,,,457.015,458.347,0,1,0.793,,0,160,160,153,1,pseudoword,0,REAL,FALSA
,,,,,,,,,WS.07,001,2025-01-22_12h48.52.948,empathy_intonation_perc,2024.1.4,Win32,60.0240096,,,,,,,,,,,,,,116,grigir,,,,,,458.348,459.863,0,1,0.967,,0,161,161,115,1,pseudoword,0,REAL,FALSA
,,,,,,,,,WS.07,001,2025-01-22_12h48.52.948,empathy_intonation_perc,2024.1.4,Win32,60.0240096,,,,,,,,,,,,,,54,tapón,,,,,,459.864,462.696,1,0,2.286,,0,162,162,53,1,non_cognate,1,REAL,FALSA
,,,,,,,,,WS.07,001,2025-01-22_12h48.52.948,empathy_intonation_perc,2024.1.4,Win32,60.0240096,,,,,,,,,,,,,,96,caro,,,,,,462.697,464.328,1,0,1.097,,0,163,163,95,1,non_cognate,1,REAL,FALSA
,,,,,,,,,WS.07,001,2025-01-22_12h48.52.948,empathy_intonation_perc,2024.1.4,Win32,60.0240096,,,,,,,,,,,,,,119,esís,,,,,,464.328,465.71,0,1,0.853,,0,164,164,118,1,pseudoword,0,REAL,FALSA
,,,,,,,,,WS.07,001,2025-01-22_12h48.52.948,empathy_intonation_perc,2024.1.4,Win32,60.0240096,,,,,,,,,,,,,,175,tradía,,,,,,465.711,469.609,0,1,3.353,,0,165,165,174,1,pseudoword,0,REAL,FALSA
,,,,,,,,,WS.07,001,2025-01-22_12h48.52.948,empathy_intonation_perc,2024.1.4,Win32,60.0240096,,,,,,,,,,,,,,189,medium,,,,,,469.61,470.709,1,0,0.556,,0,166,166,188,1,pseudoword,0,REAL,FALSA
,,,,,,,,,WS.07,001,2025-01-22_12h48.52.948,empathy_intonation_perc,2024.1.4,Win32,60.0240096,,,,,,,,,,,,,,118,bará,,,,,,470.709,472.125,0,1,0.879,,0,167,167,117,1,pseudoword,0,REAL,FALSA
,,,,,,,,,WS.07,001,2025-01-22_12h48.52.948,empathy_intonation_perc,2024.1.4,Win32,60.0240096,,,,,,,,,,,,,,9,portal,,,,,,472.126,473.324,1,0,0.651,,0,168,168,8,1,three_way_cognate,1,REAL,FALSA
,,,,,,,,,WS.07,001,2025-01-22_12h48.52.948,empathy_intonation_perc,2024.1.4,Win32,60.0240096,,,,,,,,,,,,,,148,gino,,,,,,473.325,474.49,0,1,0.63,,0,169,169,147,1,pseudoword,0,REAL,FALSA
,,,,,,,,,WS.07,001,2025-01-22_12h48.52.948,empathy_intonation_perc,2024.1.4,Win32,60.0240096,,,,,,,,,,,,,,72,rostro,,,,,,474.491,475.706,0,1,0.673,,0,170,170,71,1,non_cognate,1,REAL,FALSA
,,,,,,,,,WS.07,001,2025-01-22_12h48.52.948,empathy_intonation_perc,2024.1.4,Win32,60.0240096,,,,,,,,,,,,,,7,albino,,,,,,475.707,477.022,1,0,0.77,,0,171,171,6,1,three_way_cognate,1,REAL,FALSA
,,,,,,,,,WS.07,001,2025-01-22_12h48.52.948,empathy_intonation_perc,2024.1.4,Win32,60.0240096,,,,,,,,,,,,,,43,honor,,,,,,477.023,478.238,1,0,0.663,,0,172,172,42,1,two_way_cognate,1,REAL,FALSA
,,,,,,,,,WS.07,001,2025-01-22_12h48.52.948,empathy_intonation_perc,2024.1.4,Win32,60.0240096,,,,,,,,,,,,,,17,clan,,,,,,478.238,479.273,1,0,0.509,,0,173,173,16,1,three_way_cognate,1,REAL,FALSA
,,,,,,,,,WS.07,001,2025-01-22_12h48.52.948,empathy_intonation_perc,2024.1.4,Win32,60.0240096,,,,,,,,,,,,,,77,suave,,,,,,479.276,480.47,1,0,0.659,,0,174,174,76,1,non_cognate,1,REAL,FALSA
,,,,,,,,,WS.07,001,2025-01-22_12h48.52.948,empathy_intonation_perc,2024.1.4,Win32,60.0240096,,,,,,,,,,,,,,103,vueras,,,,,,480.471,481.819,0,1,0.808,,0,175,175,102,1,pseudoword,0,REAL,FALSA
,,,,,,,,,WS.07,001,2025-01-22_12h48.52.948,empathy_intonation_perc,2024.1.4,Win32,60.0240096,,,,,,,,,,,,,,180,pupica,,,,,,481.82,483.137,0,1,0.791,,0,176,176,179,1,pseudoword,0,REAL,FALSA
,,,,,,,,,WS.07,001,2025-01-22_12h48.52.948,empathy_intonation_perc,2024.1.4,Win32,60.0240096,,,,,,,,,,,,,,27,piano,,,,,,483.138,484.203,1,0,0.527,,0,177,177,26,1,two_way_cognate,1,REAL,FALSA
,,,,,,,,,WS.07,001,2025-01-22_12h48.52.948,empathy_intonation_perc,2024.1.4,Win32,60.0240096,,,,,,,,,,,,,,97,nocita,,,,,,484.204,485.368,0,1,0.626,,0,178,178,96,1,pseudoword,0,REAL,FALSA
,,,,,,,,,WS.07,001,2025-01-22_12h48.52.948,empathy_intonation_perc,2024.1.4,Win32,60.0240096,,,,,,,,,,,,,,158,babrá,,,,,,485.369,486.501,0,1,0.617,,0,179,179,157,1,pseudoword,0,REAL,FALSA
,,,,,,,,,WS.07,001,2025-01-22_12h48.52.948,empathy_intonation_perc,2024.1.4,Win32,60.0240096,,,,,,,,,,,,,,44,editor,,,,,,486.502,487.701,1,0,0.668,,0,180,180,43,1,two_way_cognate,1,REAL,FALSA
,,,,,,,,,WS.07,001,2025-01-22_12h48.52.948,empathy_intonation_perc,2024.1.4,Win32,60.0240096,,,,,,,,,,,,,,6,horror,,,,,,487.702,488.918,1,0,0.675,,0,181,181,5,1,three_way_cognate,1,REAL,FALSA
,,,,,,,,,WS.07,001,2025-01-22_12h48.52.948,empathy_intonation_perc,2024.1.4,Win32,60.0240096,,,,,,,,,,,,,,161,civas,,,,,,488.918,490.15,0,1,0.701,,0,182,182,160,1,pseudoword,0,REAL,FALSA
,,,,,,,,,WS.07,001,2025-01-22_12h48.52.948,empathy_intonation_perc,2024.1.4,Win32,60.0240096,,,,,,,,,,,,,,66,aleta,,,,,,490.151,491.366,0,1,0.667,,0,183,183,65,1,non_cognate,1,REAL,FALSA
,,,,,,,,,WS.07,001,2025-01-22_12h48.52.948,empathy_intonation_perc,2024.1.4,Win32,60.0240096,,,,,,,,,,,,,,82,brillo,,,,,,491.366,492.599,1,0,0.718,,0,184,184,81,1,non_cognate,1,REAL,FALSA
,,,,,,,,,WS.07,001,2025-01-22_12h48.52.948,empathy_intonation_perc,2024.1.4,Win32,60.0240096,,,,,,,,,,,,,,8,kilo,,,,,,492.599,493.782,1,0,0.639,,0,185,185,7,1,three_way_cognate,1,REAL,FALSA
,,,,,,,,,WS.07,001,2025-01-22_12h48.52.948,empathy_intonation_perc,2024.1.4,Win32,60.0240096,,,,,,,,,,,,,,152,prave,,,,,,493.783,495.231,0,1,0.913,,0,186,186,151,1,pseudoword,0,REAL,FALSA
,,,,,,,,,WS.07,001,2025-01-22_12h48.52.948,empathy_intonation_perc,2024.1.4,Win32,60.0240096,,,,,,,,,,,,,,138,tator,,,,,,495.233,497.08,0,1,1.305,,0,187,187,137,1,pseudoword,0,REAL,FALSA
,,,,,,,,,WS.07,001,2025-01-22_12h48.52.948,empathy_intonation_perc,2024.1.4,Win32,60.0240096,,,,,,,,,,,,,,51,listo,,,,,,497.08,498.23,1,0,0.619,,0,188,188,50,1,non_cognate,1,REAL,FALSA
,,,,,,,,,WS.07,001,2025-01-22_12h48.52.948,empathy_intonation_perc,2024.1.4,Win32,60.0240096,,,,,,,,,,,,,,4,flora,,,,,,498.231,499.246,1,0,0.482,,0,189,189,3,1,three_way_cognate,1,REAL,FALSA
,,,,,,,,,WS.07,001,2025-01-22_12h48.52.948,empathy_intonation_perc,2024.1.4,Win32,60.0240096,,,,,,,,,,,,,,179,suelet,,,,,,499.247,500.613,0,1,0.829,,0,190,190,178,1,pseudoword,0,REAL,FALSA
,,,,,,,,,WS.07,001,2025-01-22_12h48.52.948,empathy_intonation_perc,2024.1.4,Win32,60.0240096,,,,,,,,,,,,,,62,pegar,,,,,,500.613,501.894,0,1,0.753,,0,191,191,61,1,non_cognate,1,REAL,FALSA
