lextale_instructions.started,lextale_instructions.stopped,lextale_instructions_loop.thisRepN,lextale_instructions_loop.thisTrialN,lextale_instructions_loop.thisN,lextale_instructions_loop.thisIndex,lextale_instructions_loop.ran,instructions_text,continue_text,participant,session,date,expName,psychopyVersion,OS,frameRate,lextale_practice.started,lextale_practice.stopped,key_resp_lextale_practice.keys,key_resp_lextale_practice.corr,key_resp_lextale_practice.rt,key_resp_lextale_practice.duration,lextale_practice_feedback.started,lextale_practice_feedback.stopped,lextale_practice_trials.thisRepN,lextale_practice_trials.thisTrialN,lextale_practice_trials.thisN,lextale_practice_trials.thisIndex,lextale_practice_trials.ran,stim,word,correct_response,prac_button_real,prac_button_false,lextale_check.started,lextale_check.stopped,lextale_trial.started,lextale_trial.stopped,key_resp_lextale_trial.keys,key_resp_lextale_trial.corr,key_resp_lextale_trial.rt,key_resp_lextale_trial.duration,lextail_trials.thisRepN,lextail_trials.thisTrialN,lextail_trials.thisN,lextail_trials.thisIndex,lextail_trials.ran,type,correct_reponse,button_real,button_false
0.005,35.959,0,0,0,0,1,"Este es un test de vocabulario en español. 
  
  A continuación vas a ver 90 secuencias de letras que parecen 'españolas'.
  
  Solo algunas de ellas son palabras de verdad.",(presiona la barra espaciadora para continuar),WS_04,001,2025-01-22_12h43.22.990,empathy_intonation_perc,2024.1.4,MacIntel,62.5,,,,,,,,,,,,,,,,,,,,,,,,,,,,,,,,,,,
35.96,65.678,0,1,1,1,1,"Por favor, señala las palabras que tú conoces (aquellas que estás convencido que son palabras españolas, incluso aunque no seas capaz de dar el significado preciso).",(presiona la barra espaciadora para continuar),WS_04,001,2025-01-22_12h43.22.990,empathy_intonation_perc,2024.1.4,MacIntel,62.5,,,,,,,,,,,,,,,,,,,,,,,,,,,,,,,,,,,
65.68,74.528,0,2,2,2,1,Pero cuidado: los errores se penalizan. Por eso no tiene sentido tratar de incrementar tu puntuación marcando como reales palabras que nunca has visto.,(presiona la barra espaciadora para continuar),WS_04,001,2025-01-22_12h43.22.990,empathy_intonation_perc,2024.1.4,MacIntel,62.5,,,,,,,,,,,,,,,,,,,,,,,,,,,,,,,,,,,
74.529,82.461,0,3,3,3,1,"Presiona la tecla 1 si piensas que es una palabra real y la tecla 
  0 si piensas que es una palabra falsa. 
  
  Vamos a practicar un poco...",(presiona la barra espaciadora para continuar),WS_04,001,2025-01-22_12h43.22.990,empathy_intonation_perc,2024.1.4,MacIntel,62.5,,,,,,,,,,,,,,,,,,,,,,,,,,,,,,,,,,,
,,,,,,,,,WS_04,001,2025-01-22_12h43.22.990,empathy_intonation_perc,2024.1.4,MacIntel,62.5,82.468,86.462,0,1,3.462,,86.463,87.462,0,0,0,0,1,0,depiste,0,REAL,FALSA,,,,,,,,,,,,,,,,,
,,,,,,,,,WS_04,001,2025-01-22_12h43.22.990,empathy_intonation_perc,2024.1.4,MacIntel,62.5,87.463,92.578,0,0,4.582,,92.579,93.578,0,1,1,1,1,0,sí,1,REAL,FALSA,,,,,,,,,,,,,,,,,
,,,,,,,,,WS_04,001,2025-01-22_12h43.22.990,empathy_intonation_perc,2024.1.4,MacIntel,62.5,93.58,97.362,0,1,3.245,,97.362,98.361,0,2,2,2,1,0,coné,0,REAL,FALSA,,,,,,,,,,,,,,,,,
,,,,,,,,,WS_04,001,2025-01-22_12h43.22.990,empathy_intonation_perc,2024.1.4,MacIntel,62.5,98.362,100.629,0,1,1.732,,100.629,101.628,0,3,3,3,1,0,calpar,0,REAL,FALSA,,,,,,,,,,,,,,,,,
,,,,,,,,,WS_04,001,2025-01-22_12h43.22.990,empathy_intonation_perc,2024.1.4,MacIntel,62.5,101.63,103.645,0,1,1.479,,103.645,104.645,0,4,4,4,1,0,joten,0,REAL,FALSA,,,,,,,,,,,,,,,,,
,,,,,,,,,WS_04,001,2025-01-22_12h43.22.990,empathy_intonation_perc,2024.1.4,MacIntel,62.5,104.646,108.362,1,1,3.183,,108.362,109.362,0,5,5,5,1,0,sacapuntas,1,REAL,FALSA,,,,,,,,,,,,,,,,,
,,,,,,,,,WS_04,001,2025-01-22_12h43.22.990,empathy_intonation_perc,2024.1.4,MacIntel,62.5,109.363,111.112,0,1,1.212,,111.112,112.112,0,6,6,6,1,0,priba,0,REAL,FALSA,,,,,,,,,,,,,,,,,
,,,,,,,,,WS_04,001,2025-01-22_12h43.22.990,empathy_intonation_perc,2024.1.4,MacIntel,62.5,112.113,115.145,0,1,2.495,,115.145,116.146,0,7,7,7,1,0,pelasula,0,REAL,FALSA,,,,,,,,,,,,,,,,,
,,,,,,,,,WS_04,001,2025-01-22_12h43.22.990,empathy_intonation_perc,2024.1.4,MacIntel,62.5,116.146,117.662,1,1,0.98,,117.662,118.661,0,8,8,8,1,0,bien,1,REAL,FALSA,,,,,,,,,,,,,,,,,
,,,,,,,,,WS_04,001,2025-01-22_12h43.22.990,empathy_intonation_perc,2024.1.4,MacIntel,62.5,118.662,120.129,1,1,0.944,,120.129,121.129,0,9,9,9,1,0,casa,1,REAL,FALSA,,,,,,,,,,,,,,,,,
,,,,,,,,,WS_04,001,2025-01-22_12h43.22.990,empathy_intonation_perc,2024.1.4,MacIntel,62.5,121.13,122.912,0,1,1.247,,122.912,123.913,0,10,10,10,1,0,lejo,0,REAL,FALSA,,,,,,,,,,,,,,,,,
,,,,,,,,,WS_04,001,2025-01-22_12h43.22.990,empathy_intonation_perc,2024.1.4,MacIntel,62.5,123.914,127.028,0,1,2.576,,127.028,128.029,0,11,11,11,1,0,pretantas,0,REAL,FALSA,,,,,,,,,,,,,,,,,
,,,,,,,,,WS_04,001,2025-01-22_12h43.22.990,empathy_intonation_perc,2024.1.4,MacIntel,62.5,,,,,,,,,,,,,,,,,,,128.031,132.463,,,,,,,,,,,,,,,
,,,,,,,,,WS_04,001,2025-01-22_12h43.22.990,empathy_intonation_perc,2024.1.4,MacIntel,62.5,,,,,,,,,,,,,,153,golla,,,,,,132.475,134.964,1,0,1.969,,0,0,0,152,1,pseudoword,0,REAL,FALSA
,,,,,,,,,WS_04,001,2025-01-22_12h43.22.990,empathy_intonation_perc,2024.1.4,MacIntel,62.5,,,,,,,,,,,,,,61,aduana,,,,,,134.964,139.48,0,1,3.972,,0,1,1,60,1,non_cognate,1,REAL,FALSA
,,,,,,,,,WS_04,001,2025-01-22_12h43.22.990,empathy_intonation_perc,2024.1.4,MacIntel,62.5,,,,,,,,,,,,,,114,dibrea,,,,,,139.481,141.397,0,1,1.38,,0,2,2,113,1,pseudoword,0,REAL,FALSA
,,,,,,,,,WS_04,001,2025-01-22_12h43.22.990,empathy_intonation_perc,2024.1.4,MacIntel,62.5,,,,,,,,,,,,,,173,mibro,,,,,,141.398,144.23,0,1,2.296,,0,3,3,172,1,pseudoword,0,REAL,FALSA
,,,,,,,,,WS_04,001,2025-01-22_12h43.22.990,empathy_intonation_perc,2024.1.4,MacIntel,62.5,,,,,,,,,,,,,,158,babrá,,,,,,144.23,147.696,0,1,2.927,,0,4,4,157,1,pseudoword,0,REAL,FALSA
,,,,,,,,,WS_04,001,2025-01-22_12h43.22.990,empathy_intonation_perc,2024.1.4,MacIntel,62.5,,,,,,,,,,,,,,27,piano,,,,,,147.697,149.647,1,0,1.418,,0,5,5,26,1,two_way_cognate,1,REAL,FALSA
,,,,,,,,,WS_04,001,2025-01-22_12h43.22.990,empathy_intonation_perc,2024.1.4,MacIntel,62.5,,,,,,,,,,,,,,29,clamor,,,,,,149.647,151.697,0,1,1.51,,0,6,6,28,1,two_way_cognate,1,REAL,FALSA
,,,,,,,,,WS_04,001,2025-01-22_12h43.22.990,empathy_intonation_perc,2024.1.4,MacIntel,62.5,,,,,,,,,,,,,,110,densó,,,,,,151.698,155.48,0,1,3.247,,0,7,7,109,1,pseudoword,0,REAL,FALSA
,,,,,,,,,WS_04,001,2025-01-22_12h43.22.990,empathy_intonation_perc,2024.1.4,MacIntel,62.5,,,,,,,,,,,,,,67,llamar,,,,,,155.481,157.014,1,0,0.999,,0,8,8,66,1,non_cognate,1,REAL,FALSA
,,,,,,,,,WS_04,001,2025-01-22_12h43.22.990,empathy_intonation_perc,2024.1.4,MacIntel,62.5,,,,,,,,,,,,,,191,frasis,,,,,,157.014,159.897,1,0,2.343,,0,9,9,190,1,pseudoword,0,REAL,FALSA
,,,,,,,,,WS_04,001,2025-01-22_12h43.22.990,empathy_intonation_perc,2024.1.4,MacIntel,62.5,,,,,,,,,,,,,,172,dogue,,,,,,159.897,161.664,0,1,1.247,,0,10,10,171,1,pseudoword,0,REAL,FALSA
,,,,,,,,,WS_04,001,2025-01-22_12h43.22.990,empathy_intonation_perc,2024.1.4,MacIntel,62.5,,,,,,,,,,,,,,117,morrá,,,,,,161.665,164.78,0,1,2.581,,0,11,11,116,1,pseudoword,0,REAL,FALSA
,,,,,,,,,WS_04,001,2025-01-22_12h43.22.990,empathy_intonation_perc,2024.1.4,MacIntel,62.5,,,,,,,,,,,,,,107,plago,,,,,,164.781,167.197,0,1,1.879,,0,12,12,106,1,pseudoword,0,REAL,FALSA
,,,,,,,,,WS_04,001,2025-01-22_12h43.22.990,empathy_intonation_perc,2024.1.4,MacIntel,62.5,,,,,,,,,,,,,,169,pitis,,,,,,167.197,168.897,0,1,1.176,,0,13,13,168,1,pseudoword,0,REAL,FALSA
,,,,,,,,,WS_04,001,2025-01-22_12h43.22.990,empathy_intonation_perc,2024.1.4,MacIntel,62.5,,,,,,,,,,,,,,44,editor,,,,,,168.898,170.997,1,0,1.57,,0,14,14,43,1,two_way_cognate,1,REAL,FALSA
,,,,,,,,,WS_04,001,2025-01-22_12h43.22.990,empathy_intonation_perc,2024.1.4,MacIntel,62.5,,,,,,,,,,,,,,28,ardor,,,,,,170.998,174.113,0,1,2.578,,0,15,15,27,1,two_way_cognate,1,REAL,FALSA
,,,,,,,,,WS_04,001,2025-01-22_12h43.22.990,empathy_intonation_perc,2024.1.4,MacIntel,62.5,,,,,,,,,,,,,,100,épinas,,,,,,174.114,176.548,1,0,1.912,,0,16,16,99,1,pseudoword,0,REAL,FALSA
,,,,,,,,,WS_04,001,2025-01-22_12h43.22.990,empathy_intonation_perc,2024.1.4,MacIntel,62.5,,,,,,,,,,,,,,1,moral,,,,,,176.549,178.164,1,0,1.081,,0,17,17,0,1,three_way_cognate,1,REAL,FALSA
,,,,,,,,,WS_04,001,2025-01-22_12h43.22.990,empathy_intonation_perc,2024.1.4,MacIntel,62.5,,,,,,,,,,,,,,93,tapa,,,,,,178.165,180.115,1,0,1.41,,0,18,18,92,1,non_cognate,1,REAL,FALSA
,,,,,,,,,WS_04,001,2025-01-22_12h43.22.990,empathy_intonation_perc,2024.1.4,MacIntel,62.5,,,,,,,,,,,,,,124,lobe,,,,,,180.115,181.714,0,1,1.062,,0,19,19,123,1,pseudoword,0,REAL,FALSA
,,,,,,,,,WS_04,001,2025-01-22_12h43.22.990,empathy_intonation_perc,2024.1.4,MacIntel,62.5,,,,,,,,,,,,,,133,conso,,,,,,181.715,184.548,0,1,2.295,,0,20,20,132,1,pseudoword,0,REAL,FALSA
,,,,,,,,,WS_04,001,2025-01-22_12h43.22.990,empathy_intonation_perc,2024.1.4,MacIntel,62.5,,,,,,,,,,,,,,8,kilo,,,,,,184.549,186.298,1,0,1.213,,0,21,21,7,1,three_way_cognate,1,REAL,FALSA
,,,,,,,,,WS_04,001,2025-01-22_12h43.22.990,empathy_intonation_perc,2024.1.4,MacIntel,62.5,,,,,,,,,,,,,,120,mauja,,,,,,186.299,189.581,0,1,2.744,,0,22,22,119,1,pseudoword,0,REAL,FALSA
,,,,,,,,,WS_04,001,2025-01-22_12h43.22.990,empathy_intonation_perc,2024.1.4,MacIntel,62.5,,,,,,,,,,,,,,38,halo,,,,,,189.582,192.615,0,1,2.495,,0,23,23,37,1,two_way_cognate,1,REAL,FALSA
,,,,,,,,,WS_04,001,2025-01-22_12h43.22.990,empathy_intonation_perc,2024.1.4,MacIntel,62.5,,,,,,,,,,,,,,94,forro,,,,,,192.616,209.965,1,0,16.814,,0,24,24,93,1,non_cognate,1,REAL,FALSA
,,,,,,,,,WS_04,001,2025-01-22_12h43.22.990,empathy_intonation_perc,2024.1.4,MacIntel,62.5,,,,,,,,,,,,,,138,tator,,,,,,209.966,211.965,0,1,1.463,,0,25,25,137,1,pseudoword,0,REAL,FALSA
,,,,,,,,,WS_04,001,2025-01-22_12h43.22.990,empathy_intonation_perc,2024.1.4,MacIntel,62.5,,,,,,,,,,,,,,37,torso,,,,,,211.966,214.066,1,0,1.562,,0,26,26,36,1,two_way_cognate,1,REAL,FALSA
,,,,,,,,,WS_04,001,2025-01-22_12h43.22.990,empathy_intonation_perc,2024.1.4,MacIntel,62.5,,,,,,,,,,,,,,139,sasos,,,,,,214.066,215.782,0,1,1.179,,0,27,27,138,1,pseudoword,0,REAL,FALSA
,,,,,,,,,WS_04,001,2025-01-22_12h43.22.990,empathy_intonation_perc,2024.1.4,MacIntel,62.5,,,,,,,,,,,,,,57,regalo,,,,,,215.783,217.515,1,0,1.196,,0,28,28,56,1,non_cognate,1,REAL,FALSA
,,,,,,,,,WS_04,001,2025-01-22_12h43.22.990,empathy_intonation_perc,2024.1.4,MacIntel,62.5,,,,,,,,,,,,,,161,civas,,,,,,217.515,220.482,0,1,2.447,,0,29,29,160,1,pseudoword,0,REAL,FALSA
,,,,,,,,,WS_04,001,2025-01-22_12h43.22.990,empathy_intonation_perc,2024.1.4,MacIntel,62.5,,,,,,,,,,,,,,132,nocó,,,,,,220.483,223.032,0,1,2.01,,0,30,30,131,1,pseudoword,0,REAL,FALSA
,,,,,,,,,WS_04,001,2025-01-22_12h43.22.990,empathy_intonation_perc,2024.1.4,MacIntel,62.5,,,,,,,,,,,,,,73,llevar,,,,,,223.033,224.516,1,0,0.945,,0,31,31,72,1,non_cognate,1,REAL,FALSA
,,,,,,,,,WS_04,001,2025-01-22_12h43.22.990,empathy_intonation_perc,2024.1.4,MacIntel,62.5,,,,,,,,,,,,,,174,pabea,,,,,,224.517,226.149,0,1,1.099,,0,32,32,173,1,pseudoword,0,REAL,FALSA
,,,,,,,,,WS_04,001,2025-01-22_12h43.22.990,empathy_intonation_perc,2024.1.4,MacIntel,62.5,,,,,,,,,,,,,,182,desaro,,,,,,226.15,229.116,0,1,2.43,,0,33,33,181,1,pseudoword,0,REAL,FALSA
,,,,,,,,,WS_04,001,2025-01-22_12h43.22.990,empathy_intonation_perc,2024.1.4,MacIntel,62.5,,,,,,,,,,,,,,63,hilo,,,,,,229.117,231.417,1,0,1.764,,0,34,34,62,1,non_cognate,1,REAL,FALSA
,,,,,,,,,WS_04,001,2025-01-22_12h43.22.990,empathy_intonation_perc,2024.1.4,MacIntel,62.5,,,,,,,,,,,,,,59,feo,,,,,,231.419,232.983,1,0,1.03,,0,35,35,58,1,non_cognate,1,REAL,FALSA
,,,,,,,,,WS_04,001,2025-01-22_12h43.22.990,empathy_intonation_perc,2024.1.4,MacIntel,62.5,,,,,,,,,,,,,,68,puñal,,,,,,232.985,234.566,1,0,1.046,,0,36,36,67,1,non_cognate,1,REAL,FALSA
,,,,,,,,,WS_04,001,2025-01-22_12h43.22.990,empathy_intonation_perc,2024.1.4,MacIntel,62.5,,,,,,,,,,,,,,98,martir,,,,,,234.567,236.083,0,1,0.977,,0,37,37,97,1,pseudoword,0,REAL,FALSA
,,,,,,,,,WS_04,001,2025-01-22_12h43.22.990,empathy_intonation_perc,2024.1.4,MacIntel,62.5,,,,,,,,,,,,,,121,barbs,,,,,,236.084,237.766,0,1,1.149,,0,38,38,120,1,pseudoword,0,REAL,FALSA
,,,,,,,,,WS_04,001,2025-01-22_12h43.22.990,empathy_intonation_perc,2024.1.4,MacIntel,62.5,,,,,,,,,,,,,,163,llzan,,,,,,237.767,239.633,0,1,1.334,,0,39,39,162,1,pseudoword,0,REAL,FALSA
,,,,,,,,,WS_04,001,2025-01-22_12h43.22.990,empathy_intonation_perc,2024.1.4,MacIntel,62.5,,,,,,,,,,,,,,12,dogma,,,,,,239.633,243.017,1,0,2.863,,0,40,40,11,1,three_way_cognate,1,REAL,FALSA
,,,,,,,,,WS_04,001,2025-01-22_12h43.22.990,empathy_intonation_perc,2024.1.4,MacIntel,62.5,,,,,,,,,,,,,,46,mortal,,,,,,243.017,244.433,1,0,0.88,,0,41,41,45,1,two_way_cognate,1,REAL,FALSA
,,,,,,,,,WS_04,001,2025-01-22_12h43.22.990,empathy_intonation_perc,2024.1.4,MacIntel,62.5,,,,,,,,,,,,,,96,caro,,,,,,244.434,245.666,1,0,0.701,,0,42,42,95,1,non_cognate,1,REAL,FALSA
,,,,,,,,,WS_04,001,2025-01-22_12h43.22.990,empathy_intonation_perc,2024.1.4,MacIntel,62.5,,,,,,,,,,,,,,180,pupica,,,,,,245.667,247.967,0,1,1.761,,0,43,43,179,1,pseudoword,0,REAL,FALSA
,,,,,,,,,WS_04,001,2025-01-22_12h43.22.990,empathy_intonation_perc,2024.1.4,MacIntel,62.5,,,,,,,,,,,,,,170,diabo,,,,,,247.968,250.217,0,1,1.714,,0,44,44,169,1,pseudoword,0,REAL,FALSA
,,,,,,,,,WS_04,001,2025-01-22_12h43.22.990,empathy_intonation_perc,2024.1.4,MacIntel,62.5,,,,,,,,,,,,,,43,honor,,,,,,250.217,251.8,1,0,1.045,,0,45,45,42,1,two_way_cognate,1,REAL,FALSA
,,,,,,,,,WS_04,001,2025-01-22_12h43.22.990,empathy_intonation_perc,2024.1.4,MacIntel,62.5,,,,,,,,,,,,,,188,amplir,,,,,,251.801,253.517,0,1,1.182,,0,46,46,187,1,pseudoword,0,REAL,FALSA
,,,,,,,,,WS_04,001,2025-01-22_12h43.22.990,empathy_intonation_perc,2024.1.4,MacIntel,62.5,,,,,,,,,,,,,,155,kugis,,,,,,253.517,255.217,0,1,1.18,,0,47,47,154,1,pseudoword,0,REAL,FALSA
,,,,,,,,,WS_04,001,2025-01-22_12h43.22.990,empathy_intonation_perc,2024.1.4,MacIntel,62.5,,,,,,,,,,,,,,31,civil,,,,,,255.217,256.717,1,0,0.981,,0,48,48,30,1,two_way_cognate,1,REAL,FALSA
,,,,,,,,,WS_04,001,2025-01-22_12h43.22.990,empathy_intonation_perc,2024.1.4,MacIntel,62.5,,,,,,,,,,,,,,80,cuenco,,,,,,256.717,259.167,0,1,1.927,,0,49,49,79,1,non_cognate,1,REAL,FALSA
,,,,,,,,,WS_04,001,2025-01-22_12h43.22.990,empathy_intonation_perc,2024.1.4,MacIntel,62.5,,,,,,,,,,,,,,185,aljizo,,,,,,259.168,261.584,0,1,1.878,,0,50,50,184,1,pseudoword,0,REAL,FALSA
,,,,,,,,,WS_04,001,2025-01-22_12h43.22.990,empathy_intonation_perc,2024.1.4,MacIntel,62.5,,,,,,,,,,,,,,89,muñeca,,,,,,261.585,263.6,1,0,1.486,,0,51,51,88,1,non_cognate,1,REAL,FALSA
,,,,,,,,,WS_04,001,2025-01-22_12h43.22.990,empathy_intonation_perc,2024.1.4,MacIntel,62.5,,,,,,,,,,,,,,128,pelí,,,,,,263.601,269.834,1,0,5.694,,0,52,52,127,1,pseudoword,0,REAL,FALSA
,,,,,,,,,WS_04,001,2025-01-22_12h43.22.990,empathy_intonation_perc,2024.1.4,MacIntel,62.5,,,,,,,,,,,,,,119,esís,,,,,,269.835,272.384,0,1,2.012,,0,53,53,118,1,pseudoword,0,REAL,FALSA
,,,,,,,,,WS_04,001,2025-01-22_12h43.22.990,empathy_intonation_perc,2024.1.4,MacIntel,62.5,,,,,,,,,,,,,,159,trcia,,,,,,272.386,274.451,0,1,1.532,,0,54,54,158,1,pseudoword,0,REAL,FALSA
,,,,,,,,,WS_04,001,2025-01-22_12h43.22.990,empathy_intonation_perc,2024.1.4,MacIntel,62.5,,,,,,,,,,,,,,20,trauma,,,,,,274.452,276.084,1,0,1.095,,0,55,55,19,1,three_way_cognate,1,REAL,FALSA
,,,,,,,,,WS_04,001,2025-01-22_12h43.22.990,empathy_intonation_perc,2024.1.4,MacIntel,62.5,,,,,,,,,,,,,,66,aleta,,,,,,276.085,277.684,0,1,1.061,,0,56,56,65,1,non_cognate,1,REAL,FALSA
,,,,,,,,,WS_04,001,2025-01-22_12h43.22.990,empathy_intonation_perc,2024.1.4,MacIntel,62.5,,,,,,,,,,,,,,148,gino,,,,,,277.685,280.768,0,1,2.545,,0,57,57,147,1,pseudoword,0,REAL,FALSA
,,,,,,,,,WS_04,001,2025-01-22_12h43.22.990,empathy_intonation_perc,2024.1.4,MacIntel,62.5,,,,,,,,,,,,,,166,anfia,,,,,,280.769,282.401,0,1,1.102,,0,58,58,165,1,pseudoword,0,REAL,FALSA
,,,,,,,,,WS_04,001,2025-01-22_12h43.22.990,empathy_intonation_perc,2024.1.4,MacIntel,62.5,,,,,,,,,,,,,,186,rizate,,,,,,282.402,285.034,0,1,2.103,,0,59,59,185,1,pseudoword,0,REAL,FALSA
,,,,,,,,,WS_04,001,2025-01-22_12h43.22.990,empathy_intonation_perc,2024.1.4,MacIntel,62.5,,,,,,,,,,,,,,22,mango,,,,,,285.035,287.268,1,0,1.693,,0,60,60,21,1,three_way_cognate,1,REAL,FALSA
,,,,,,,,,WS_04,001,2025-01-22_12h43.22.990,empathy_intonation_perc,2024.1.4,MacIntel,62.5,,,,,,,,,,,,,,13,plan,,,,,,287.269,288.735,1,0,0.937,,0,61,61,12,1,three_way_cognate,1,REAL,FALSA
,,,,,,,,,WS_04,001,2025-01-22_12h43.22.990,empathy_intonation_perc,2024.1.4,MacIntel,62.5,,,,,,,,,,,,,,190,asumie,,,,,,288.735,291.434,0,1,2.164,,0,62,62,189,1,pseudoword,0,REAL,FALSA
,,,,,,,,,WS_04,001,2025-01-22_12h43.22.990,empathy_intonation_perc,2024.1.4,MacIntel,62.5,,,,,,,,,,,,,,5,extra,,,,,,291.435,293.285,1,0,1.329,,0,63,63,4,1,three_way_cognate,1,REAL,FALSA
,,,,,,,,,WS_04,001,2025-01-22_12h43.22.990,empathy_intonation_perc,2024.1.4,MacIntel,62.5,,,,,,,,,,,,,,16,chat,,,,,,293.285,294.702,1,0,0.896,,0,64,64,15,1,three_way_cognate,1,REAL,FALSA
,,,,,,,,,WS_04,001,2025-01-22_12h43.22.990,empathy_intonation_perc,2024.1.4,MacIntel,62.5,,,,,,,,,,,,,,25,vigor,,,,,,294.702,296.318,0,1,1.086,,0,65,65,24,1,two_way_cognate,1,REAL,FALSA
,,,,,,,,,WS_04,001,2025-01-22_12h43.22.990,empathy_intonation_perc,2024.1.4,MacIntel,62.5,,,,,,,,,,,,,,81,sacar,,,,,,296.319,297.952,1,0,1.097,,0,66,66,80,1,non_cognate,1,REAL,FALSA
,,,,,,,,,WS_04,001,2025-01-22_12h43.22.990,empathy_intonation_perc,2024.1.4,MacIntel,62.5,,,,,,,,,,,,,,126,tobre,,,,,,297.952,299.835,0,1,1.347,,0,67,67,125,1,pseudoword,0,REAL,FALSA
,,,,,,,,,WS_04,001,2025-01-22_12h43.22.990,empathy_intonation_perc,2024.1.4,MacIntel,62.5,,,,,,,,,,,,,,2,tumor,,,,,,299.836,301.434,1,0,1.061,,0,68,68,1,1,three_way_cognate,1,REAL,FALSA
,,,,,,,,,WS_04,001,2025-01-22_12h43.22.990,empathy_intonation_perc,2024.1.4,MacIntel,62.5,,,,,,,,,,,,,,187,nomata,,,,,,301.435,303.935,0,1,1.978,,0,69,69,186,1,pseudoword,0,REAL,FALSA
,,,,,,,,,WS_04,001,2025-01-22_12h43.22.990,empathy_intonation_perc,2024.1.4,MacIntel,62.5,,,,,,,,,,,,,,150,cricó,,,,,,303.936,306.151,0,1,1.68,,0,70,70,149,1,pseudoword,0,REAL,FALSA
,,,,,,,,,WS_04,001,2025-01-22_12h43.22.990,empathy_intonation_perc,2024.1.4,MacIntel,62.5,,,,,,,,,,,,,,92,flecha,,,,,,306.152,313.753,0,1,7.086,,0,71,71,91,1,non_cognate,1,REAL,FALSA
,,,,,,,,,WS_04,001,2025-01-22_12h43.22.990,empathy_intonation_perc,2024.1.4,MacIntel,62.5,,,,,,,,,,,,,,156,ozoso,,,,,,313.754,316.119,0,1,1.835,,0,72,72,155,1,pseudoword,0,REAL,FALSA
,,,,,,,,,WS_04,001,2025-01-22_12h43.22.990,empathy_intonation_perc,2024.1.4,MacIntel,62.5,,,,,,,,,,,,,,9,portal,,,,,,316.12,320.003,1,0,3.345,,0,73,73,8,1,three_way_cognate,1,REAL,FALSA
,,,,,,,,,WS_04,001,2025-01-22_12h43.22.990,empathy_intonation_perc,2024.1.4,MacIntel,62.5,,,,,,,,,,,,,,101,losco,,,,,,320.004,321.603,0,1,1.064,,0,74,74,100,1,pseudoword,0,REAL,FALSA
,,,,,,,,,WS_04,001,2025-01-22_12h43.22.990,empathy_intonation_perc,2024.1.4,MacIntel,62.5,,,,,,,,,,,,,,6,horror,,,,,,321.603,322.986,1,0,0.847,,0,75,75,5,1,three_way_cognate,1,REAL,FALSA
,,,,,,,,,WS_04,001,2025-01-22_12h43.22.990,empathy_intonation_perc,2024.1.4,MacIntel,62.5,,,,,,,,,,,,,,112,samón,,,,,,322.986,325.919,0,1,2.412,,0,76,76,111,1,pseudoword,0,REAL,FALSA
,,,,,,,,,WS_04,001,2025-01-22_12h43.22.990,empathy_intonation_perc,2024.1.4,MacIntel,62.5,,,,,,,,,,,,,,149,emén,,,,,,325.92,327.686,0,1,1.238,,0,77,77,148,1,pseudoword,0,REAL,FALSA
,,,,,,,,,WS_04,001,2025-01-22_12h43.22.990,empathy_intonation_perc,2024.1.4,MacIntel,62.5,,,,,,,,,,,,,,87,muleta,,,,,,327.687,330.97,1,0,2.745,,0,78,78,86,1,non_cognate,1,REAL,FALSA
,,,,,,,,,WS_04,001,2025-01-22_12h43.22.990,empathy_intonation_perc,2024.1.4,MacIntel,62.5,,,,,,,,,,,,,,162,cengo,,,,,,330.97,332.786,0,1,1.276,,0,79,79,161,1,pseudoword,0,REAL,FALSA
,,,,,,,,,WS_04,001,2025-01-22_12h43.22.990,empathy_intonation_perc,2024.1.4,MacIntel,62.5,,,,,,,,,,,,,,26,enigma,,,,,,332.787,335.37,0,1,2.046,,0,80,80,25,1,two_way_cognate,1,REAL,FALSA
,,,,,,,,,WS_04,001,2025-01-22_12h43.22.990,empathy_intonation_perc,2024.1.4,MacIntel,62.5,,,,,,,,,,,,,,48,pelvis,,,,,,335.371,337.17,0,1,1.265,,0,81,81,47,1,two_way_cognate,1,REAL,FALSA
,,,,,,,,,WS_04,001,2025-01-22_12h43.22.990,empathy_intonation_perc,2024.1.4,MacIntel,62.5,,,,,,,,,,,,,,41,pasta,,,,,,337.17,338.602,1,0,0.894,,0,82,82,40,1,two_way_cognate,1,REAL,FALSA
,,,,,,,,,WS_04,001,2025-01-22_12h43.22.990,empathy_intonation_perc,2024.1.4,MacIntel,62.5,,,,,,,,,,,,,,19,mafia,,,,,,338.603,340.553,1,0,1.433,,0,83,83,18,1,three_way_cognate,1,REAL,FALSA
,,,,,,,,,WS_04,001,2025-01-22_12h43.22.990,empathy_intonation_perc,2024.1.4,MacIntel,62.5,,,,,,,,,,,,,,86,cuenco,,,,,,340.554,344.003,1,0,2.91,,0,84,84,85,1,non_cognate,1,REAL,FALSA
,,,,,,,,,WS_04,001,2025-01-22_12h43.22.990,empathy_intonation_perc,2024.1.4,MacIntel,62.5,,,,,,,,,,,,,,32,animal,,,,,,344.003,345.27,1,0,0.755,,0,85,85,31,1,two_way_cognate,1,REAL,FALSA
,,,,,,,,,WS_04,001,2025-01-22_12h43.22.990,empathy_intonation_perc,2024.1.4,MacIntel,62.5,,,,,,,,,,,,,,71,torta,,,,,,345.271,347.104,1,0,1.298,,0,86,86,70,1,non_cognate,1,REAL,FALSA
,,,,,,,,,WS_04,001,2025-01-22_12h43.22.990,empathy_intonation_perc,2024.1.4,MacIntel,62.5,,,,,,,,,,,,,,104,estulo,,,,,,347.105,348.77,0,1,1.129,,0,87,87,103,1,pseudoword,0,REAL,FALSA
,,,,,,,,,WS_04,001,2025-01-22_12h43.22.990,empathy_intonation_perc,2024.1.4,MacIntel,62.5,,,,,,,,,,,,,,137,trugo,,,,,,348.772,351.504,0,1,2.198,,0,88,88,136,1,pseudoword,0,REAL,FALSA
,,,,,,,,,WS_04,001,2025-01-22_12h43.22.990,empathy_intonation_perc,2024.1.4,MacIntel,62.5,,,,,,,,,,,,,,178,inichó,,,,,,351.504,354.421,0,1,2.38,,0,89,89,177,1,pseudoword,0,REAL,FALSA
,,,,,,,,,WS_04,001,2025-01-22_12h43.22.990,empathy_intonation_perc,2024.1.4,MacIntel,62.5,,,,,,,,,,,,,,47,color,,,,,,354.421,355.821,1,0,0.861,,0,90,90,46,1,two_way_cognate,1,REAL,FALSA
,,,,,,,,,WS_04,001,2025-01-22_12h43.22.990,empathy_intonation_perc,2024.1.4,MacIntel,62.5,,,,,,,,,,,,,,129,vinzó,,,,,,355.822,358.187,0,1,1.828,,0,91,91,128,1,pseudoword,0,REAL,FALSA
,,,,,,,,,WS_04,001,2025-01-22_12h43.22.990,empathy_intonation_perc,2024.1.4,MacIntel,62.5,,,,,,,,,,,,,,99,bugor,,,,,,358.188,361.971,0,1,3.248,,0,92,92,98,1,pseudoword,0,REAL,FALSA
,,,,,,,,,WS_04,001,2025-01-22_12h43.22.990,empathy_intonation_perc,2024.1.4,MacIntel,62.5,,,,,,,,,,,,,,21,hotel,,,,,,361.971,364.12,1,0,1.619,,0,93,93,20,1,three_way_cognate,1,REAL,FALSA
,,,,,,,,,WS_04,001,2025-01-22_12h43.22.990,empathy_intonation_perc,2024.1.4,MacIntel,62.5,,,,,,,,,,,,,,49,teñir,,,,,,364.12,370.021,1,0,5.382,,0,94,94,48,1,non_cognate,1,REAL,FALSA
,,,,,,,,,WS_04,001,2025-01-22_12h43.22.990,empathy_intonation_perc,2024.1.4,MacIntel,62.5,,,,,,,,,,,,,,183,edioso,,,,,,370.021,372.104,0,1,1.55,,0,95,95,182,1,pseudoword,0,REAL,FALSA
,,,,,,,,,WS_04,001,2025-01-22_12h43.22.990,empathy_intonation_perc,2024.1.4,MacIntel,62.5,,,,,,,,,,,,,,176,gripar,,,,,,372.106,374.004,0,1,1.363,,0,96,96,175,1,pseudoword,0,REAL,FALSA
,,,,,,,,,WS_04,001,2025-01-22_12h43.22.990,empathy_intonation_perc,2024.1.4,MacIntel,62.5,,,,,,,,,,,,,,17,clan,,,,,,374.005,376.338,1,0,1.795,,0,97,97,16,1,three_way_cognate,1,REAL,FALSA
,,,,,,,,,WS_04,001,2025-01-22_12h43.22.990,empathy_intonation_perc,2024.1.4,MacIntel,62.5,,,,,,,,,,,,,,33,collar,,,,,,376.338,377.838,1,0,0.964,,0,98,98,32,1,two_way_cognate,1,REAL,FALSA
,,,,,,,,,WS_04,001,2025-01-22_12h43.22.990,empathy_intonation_perc,2024.1.4,MacIntel,62.5,,,,,,,,,,,,,,184,huenos,,,,,,377.839,380.239,0,1,1.864,,0,99,99,183,1,pseudoword,0,REAL,FALSA
,,,,,,,,,WS_04,001,2025-01-22_12h43.22.990,empathy_intonation_perc,2024.1.4,MacIntel,62.5,,,,,,,,,,,,,,103,vueras,,,,,,380.24,381.988,0,1,1.212,,0,100,100,102,1,pseudoword,0,REAL,FALSA
,,,,,,,,,WS_04,001,2025-01-22_12h43.22.990,empathy_intonation_perc,2024.1.4,MacIntel,62.5,,,,,,,,,,,,,,75,patada,,,,,,381.989,384.738,1,0,2.218,,0,101,101,74,1,non_cognate,1,REAL,FALSA
,,,,,,,,,WS_04,001,2025-01-22_12h43.22.990,empathy_intonation_perc,2024.1.4,MacIntel,62.5,,,,,,,,,,,,,,181,gravés,,,,,,384.739,388.438,0,1,3.163,,0,102,102,180,1,pseudoword,0,REAL,FALSA
,,,,,,,,,WS_04,001,2025-01-22_12h43.22.990,empathy_intonation_perc,2024.1.4,MacIntel,62.5,,,,,,,,,,,,,,140,chorde,,,,,,388.439,391.655,0,1,2.682,,0,103,103,139,1,pseudoword,0,REAL,FALSA
,,,,,,,,,WS_04,001,2025-01-22_12h43.22.990,empathy_intonation_perc,2024.1.4,MacIntel,62.5,,,,,,,,,,,,,,88,percha,,,,,,391.656,395.521,1,0,3.328,,0,104,104,87,1,non_cognate,1,REAL,FALSA
,,,,,,,,,WS_04,001,2025-01-22_12h43.22.990,empathy_intonation_perc,2024.1.4,MacIntel,62.5,,,,,,,,,,,,,,142,parre,,,,,,395.522,397.454,0,1,1.394,,0,105,105,141,1,pseudoword,0,REAL,FALSA
,,,,,,,,,WS_04,001,2025-01-22_12h43.22.990,empathy_intonation_perc,2024.1.4,MacIntel,62.5,,,,,,,,,,,,,,179,suelet,,,,,,397.455,399.638,0,1,1.669,,0,106,106,178,1,pseudoword,0,REAL,FALSA
,,,,,,,,,WS_04,001,2025-01-22_12h43.22.990,empathy_intonation_perc,2024.1.4,MacIntel,62.5,,,,,,,,,,,,,,24,retina,,,,,,399.639,401.821,0,1,1.648,,0,107,107,23,1,three_way_cognate,1,REAL,FALSA
,,,,,,,,,WS_04,001,2025-01-22_12h43.22.990,empathy_intonation_perc,2024.1.4,MacIntel,62.5,,,,,,,,,,,,,,146,gió,,,,,,401.822,404.339,0,1,1.998,,0,108,108,145,1,pseudoword,0,REAL,FALSA
,,,,,,,,,WS_04,001,2025-01-22_12h43.22.990,empathy_intonation_perc,2024.1.4,MacIntel,62.5,,,,,,,,,,,,,,134,molor,,,,,,404.34,406.655,0,1,1.777,,0,109,109,133,1,pseudoword,0,REAL,FALSA
,,,,,,,,,WS_04,001,2025-01-22_12h43.22.990,empathy_intonation_perc,2024.1.4,MacIntel,62.5,,,,,,,,,,,,,,83,hálito,,,,,,406.656,408.755,0,1,1.562,,0,110,110,82,1,non_cognate,1,REAL,FALSA
,,,,,,,,,WS_04,001,2025-01-22_12h43.22.990,empathy_intonation_perc,2024.1.4,MacIntel,62.5,,,,,,,,,,,,,,157,seled,,,,,,408.755,410.772,0,1,1.497,,0,111,111,156,1,pseudoword,0,REAL,FALSA
,,,,,,,,,WS_04,001,2025-01-22_12h43.22.990,empathy_intonation_perc,2024.1.4,MacIntel,62.5,,,,,,,,,,,,,,10,drama,,,,,,410.773,412.072,1,0,0.769,,0,112,112,9,1,three_way_cognate,1,REAL,FALSA
,,,,,,,,,WS_04,001,2025-01-22_12h43.22.990,empathy_intonation_perc,2024.1.4,MacIntel,62.5,,,,,,,,,,,,,,53,punta,,,,,,412.073,419.239,0,1,6.632,,0,113,113,52,1,non_cognate,1,REAL,FALSA
,,,,,,,,,WS_04,001,2025-01-22_12h43.22.990,empathy_intonation_perc,2024.1.4,MacIntel,62.5,,,,,,,,,,,,,,175,tradía,,,,,,419.24,422.373,0,1,2.594,,0,114,114,174,1,pseudoword,0,REAL,FALSA
,,,,,,,,,WS_04,001,2025-01-22_12h43.22.990,empathy_intonation_perc,2024.1.4,MacIntel,62.5,,,,,,,,,,,,,,56,pico,,,,,,422.375,424.24,0,1,1.33,,0,115,115,55,1,non_cognate,1,REAL,FALSA
,,,,,,,,,WS_04,001,2025-01-22_12h43.22.990,empathy_intonation_perc,2024.1.4,MacIntel,62.5,,,,,,,,,,,,,,122,boñaz,,,,,,424.241,425.906,0,1,1.138,,0,116,116,121,1,pseudoword,0,REAL,FALSA
,,,,,,,,,WS_04,001,2025-01-22_12h43.22.990,empathy_intonation_perc,2024.1.4,MacIntel,62.5,,,,,,,,,,,,,,135,panté,,,,,,425.907,427.856,0,1,1.412,,0,117,117,134,1,pseudoword,0,REAL,FALSA
,,,,,,,,,WS_04,001,2025-01-22_12h43.22.990,empathy_intonation_perc,2024.1.4,MacIntel,62.5,,,,,,,,,,,,,,18,altar,,,,,,427.857,429.273,1,0,0.885,,0,118,118,17,1,three_way_cognate,1,REAL,FALSA
,,,,,,,,,WS_04,001,2025-01-22_12h43.22.990,empathy_intonation_perc,2024.1.4,MacIntel,62.5,,,,,,,,,,,,,,62,pegar,,,,,,429.274,430.656,1,0,0.846,,0,119,119,61,1,non_cognate,1,REAL,FALSA
,,,,,,,,,WS_04,001,2025-01-22_12h43.22.990,empathy_intonation_perc,2024.1.4,MacIntel,62.5,,,,,,,,,,,,,,152,prave,,,,,,430.657,432.406,0,1,1.22,,0,120,120,151,1,pseudoword,0,REAL,FALSA
,,,,,,,,,WS_04,001,2025-01-22_12h43.22.990,empathy_intonation_perc,2024.1.4,MacIntel,62.5,,,,,,,,,,,,,,65,guerra,,,,,,432.407,433.923,1,0,0.983,,0,121,121,64,1,non_cognate,1,REAL,FALSA
,,,,,,,,,WS_04,001,2025-01-22_12h43.22.990,empathy_intonation_perc,2024.1.4,MacIntel,62.5,,,,,,,,,,,,,,143,hurcos,,,,,,433.923,435.69,0,1,1.247,,0,122,122,142,1,pseudoword,0,REAL,FALSA
,,,,,,,,,WS_04,001,2025-01-22_12h43.22.990,empathy_intonation_perc,2024.1.4,MacIntel,62.5,,,,,,,,,,,,,,167,dobbo,,,,,,435.69,437.207,0,1,0.978,,0,123,123,166,1,pseudoword,0,REAL,FALSA
,,,,,,,,,WS_04,001,2025-01-22_12h43.22.990,empathy_intonation_perc,2024.1.4,MacIntel,62.5,,,,,,,,,,,,,,165,chote,,,,,,437.208,439.806,0,1,2.064,,0,124,124,164,1,pseudoword,0,REAL,FALSA
,,,,,,,,,WS_04,001,2025-01-22_12h43.22.990,empathy_intonation_perc,2024.1.4,MacIntel,62.5,,,,,,,,,,,,,,192,próces,,,,,,439.807,443.74,0,1,3.398,,0,125,125,191,1,pseudoword,0,REAL,FALSA
,,,,,,,,,WS_04,001,2025-01-22_12h43.22.990,empathy_intonation_perc,2024.1.4,MacIntel,62.5,,,,,,,,,,,,,,189,medium,,,,,,443.74,445.09,1,0,0.827,,0,126,126,188,1,pseudoword,0,REAL,FALSA
,,,,,,,,,WS_04,001,2025-01-22_12h43.22.990,empathy_intonation_perc,2024.1.4,MacIntel,62.5,,,,,,,,,,,,,,111,monue,,,,,,445.091,446.623,0,1,0.996,,0,127,127,110,1,pseudoword,0,REAL,FALSA
,,,,,,,,,WS_04,001,2025-01-22_12h43.22.990,empathy_intonation_perc,2024.1.4,MacIntel,62.5,,,,,,,,,,,,,,64,rizado,,,,,,446.624,448.39,1,0,1.228,,0,128,128,63,1,non_cognate,1,REAL,FALSA
,,,,,,,,,WS_04,001,2025-01-22_12h43.22.990,empathy_intonation_perc,2024.1.4,MacIntel,62.5,,,,,,,,,,,,,,40,pelvis,,,,,,448.39,450.14,0,1,1.23,,0,129,129,39,1,two_way_cognate,1,REAL,FALSA
,,,,,,,,,WS_04,001,2025-01-22_12h43.22.990,empathy_intonation_perc,2024.1.4,MacIntel,62.5,,,,,,,,,,,,,,116,grigir,,,,,,450.141,452.64,0,1,1.96,,0,130,130,115,1,pseudoword,0,REAL,FALSA
,,,,,,,,,WS_04,001,2025-01-22_12h43.22.990,empathy_intonation_perc,2024.1.4,MacIntel,62.5,,,,,,,,,,,,,,130,dubo,,,,,,452.641,457.041,0,1,3.861,,0,131,131,129,1,pseudoword,0,REAL,FALSA
,,,,,,,,,WS_04,001,2025-01-22_12h43.22.990,empathy_intonation_perc,2024.1.4,MacIntel,62.5,,,,,,,,,,,,,,144,diroco,,,,,,457.042,459.341,0,1,1.767,,0,132,132,143,1,pseudoword,0,REAL,FALSA
,,,,,,,,,WS_04,001,2025-01-22_12h43.22.990,empathy_intonation_perc,2024.1.4,MacIntel,62.5,,,,,,,,,,,,,,34,actor,,,,,,459.342,460.657,1,0,0.782,,0,133,133,33,1,two_way_cognate,1,REAL,FALSA
,,,,,,,,,WS_04,001,2025-01-22_12h43.22.990,empathy_intonation_perc,2024.1.4,MacIntel,62.5,,,,,,,,,,,,,,60,siglo,,,,,,460.657,462.108,1,0,0.93,,0,134,134,59,1,non_cognate,1,REAL,FALSA
,,,,,,,,,WS_04,001,2025-01-22_12h43.22.990,empathy_intonation_perc,2024.1.4,MacIntel,62.5,,,,,,,,,,,,,,90,venado,,,,,,462.108,464.09,0,1,1.446,,0,135,135,89,1,non_cognate,1,REAL,FALSA
,,,,,,,,,WS_04,001,2025-01-22_12h43.22.990,empathy_intonation_perc,2024.1.4,MacIntel,62.5,,,,,,,,,,,,,,79,suelo,,,,,,464.091,465.407,1,0,0.784,,0,136,136,78,1,non_cognate,1,REAL,FALSA
,,,,,,,,,WS_04,001,2025-01-22_12h43.22.990,empathy_intonation_perc,2024.1.4,MacIntel,62.5,,,,,,,,,,,,,,109,laras,,,,,,465.408,467.374,0,1,1.429,,0,137,137,108,1,pseudoword,0,REAL,FALSA
,,,,,,,,,WS_04,001,2025-01-22_12h43.22.990,empathy_intonation_perc,2024.1.4,MacIntel,62.5,,,,,,,,,,,,,,97,nocita,,,,,,467.375,469.508,0,1,1.596,,0,138,138,96,1,pseudoword,0,REAL,FALSA
,,,,,,,,,WS_04,001,2025-01-22_12h43.22.990,empathy_intonation_perc,2024.1.4,MacIntel,62.5,,,,,,,,,,,,,,72,rostro,,,,,,469.508,471.091,1,0,1.044,,0,139,139,71,1,non_cognate,1,REAL,FALSA
,,,,,,,,,WS_04,001,2025-01-22_12h43.22.990,empathy_intonation_perc,2024.1.4,MacIntel,62.5,,,,,,,,,,,,,,177,entodo,,,,,,471.092,473.424,0,1,1.798,,0,140,140,176,1,pseudoword,0,REAL,FALSA
,,,,,,,,,WS_04,001,2025-01-22_12h43.22.990,empathy_intonation_perc,2024.1.4,MacIntel,62.5,,,,,,,,,,,,,,147,alla,,,,,,473.425,475.108,1,0,1.147,,0,141,141,146,1,pseudoword,0,REAL,FALSA
,,,,,,,,,WS_04,001,2025-01-22_12h43.22.990,empathy_intonation_perc,2024.1.4,MacIntel,62.5,,,,,,,,,,,,,,102,coyo,,,,,,475.108,482.725,0,1,7.079,,0,142,142,101,1,pseudoword,0,REAL,FALSA
,,,,,,,,,WS_04,001,2025-01-22_12h43.22.990,empathy_intonation_perc,2024.1.4,MacIntel,62.5,,,,,,,,,,,,,,115,lidena,,,,,,482.725,488.309,0,1,5.049,,0,143,143,114,1,pseudoword,0,REAL,FALSA
,,,,,,,,,WS_04,001,2025-01-22_12h43.22.990,empathy_intonation_perc,2024.1.4,MacIntel,62.5,,,,,,,,,,,,,,35,aurora,,,,,,488.31,490.475,1,0,1.629,,0,144,144,34,1,two_way_cognate,1,REAL,FALSA
,,,,,,,,,WS_04,001,2025-01-22_12h43.22.990,empathy_intonation_perc,2024.1.4,MacIntel,62.5,,,,,,,,,,,,,,74,ala,,,,,,490.477,493.092,1,0,2.082,,0,145,145,73,1,non_cognate,1,REAL,FALSA
,,,,,,,,,WS_04,001,2025-01-22_12h43.22.990,empathy_intonation_perc,2024.1.4,MacIntel,62.5,,,,,,,,,,,,,,23,plural,,,,,,493.092,494.609,1,0,0.978,,0,146,146,22,1,three_way_cognate,1,REAL,FALSA
,,,,,,,,,WS_04,001,2025-01-22_12h43.22.990,empathy_intonation_perc,2024.1.4,MacIntel,62.5,,,,,,,,,,,,,,154,harvé,,,,,,494.609,497.341,0,1,2.204,,0,147,147,153,1,pseudoword,0,REAL,FALSA
,,,,,,,,,WS_04,001,2025-01-22_12h43.22.990,empathy_intonation_perc,2024.1.4,MacIntel,62.5,,,,,,,,,,,,,,51,listo,,,,,,497.342,498.609,1,0,0.747,,0,148,148,50,1,non_cognate,1,REAL,FALSA
,,,,,,,,,WS_04,001,2025-01-22_12h43.22.990,empathy_intonation_perc,2024.1.4,MacIntel,62.5,,,,,,,,,,,,,,145,rúo,,,,,,498.609,500.175,0,1,1.033,,0,149,149,144,1,pseudoword,0,REAL,FALSA
,,,,,,,,,WS_04,001,2025-01-22_12h43.22.990,empathy_intonation_perc,2024.1.4,MacIntel,62.5,,,,,,,,,,,,,,39,casual,,,,,,500.176,501.459,1,0,0.749,,0,150,150,38,1,two_way_cognate,1,REAL,FALSA
,,,,,,,,,WS_04,001,2025-01-22_12h43.22.990,empathy_intonation_perc,2024.1.4,MacIntel,62.5,,,,,,,,,,,,,,91,equipo,,,,,,501.459,502.942,1,0,0.944,,0,151,151,90,1,non_cognate,1,REAL,FALSA
,,,,,,,,,WS_04,001,2025-01-22_12h43.22.990,empathy_intonation_perc,2024.1.4,MacIntel,62.5,,,,,,,,,,,,,,85,enorme,,,,,,502.943,504.292,1,0,0.81,,0,152,152,84,1,non_cognate,1,REAL,FALSA
,,,,,,,,,WS_04,001,2025-01-22_12h43.22.990,empathy_intonation_perc,2024.1.4,MacIntel,62.5,,,,,,,,,,,,,,108,jauda,,,,,,504.293,506.025,0,1,1.196,,0,153,153,107,1,pseudoword,0,REAL,FALSA
,,,,,,,,,WS_04,001,2025-01-22_12h43.22.990,empathy_intonation_perc,2024.1.4,MacIntel,62.5,,,,,,,,,,,,,,171,gotro,,,,,,506.026,509.192,0,1,2.631,,0,154,154,170,1,pseudoword,0,REAL,FALSA
,,,,,,,,,WS_04,001,2025-01-22_12h43.22.990,empathy_intonation_perc,2024.1.4,MacIntel,62.5,,,,,,,,,,,,,,11,golf,,,,,,509.193,510.676,1,0,0.947,,0,155,155,10,1,three_way_cognate,1,REAL,FALSA
,,,,,,,,,WS_04,001,2025-01-22_12h43.22.990,empathy_intonation_perc,2024.1.4,MacIntel,62.5,,,,,,,,,,,,,,78,rendir,,,,,,510.676,512.458,1,0,1.248,,0,156,156,77,1,non_cognate,1,REAL,FALSA
,,,,,,,,,WS_04,001,2025-01-22_12h43.22.990,empathy_intonation_perc,2024.1.4,MacIntel,62.5,,,,,,,,,,,,,,84,aviso,,,,,,512.459,513.942,1,0,0.96,,0,157,157,83,1,non_cognate,1,REAL,FALSA
,,,,,,,,,WS_04,001,2025-01-22_12h43.22.990,empathy_intonation_perc,2024.1.4,MacIntel,62.5,,,,,,,,,,,,,,131,fuar,,,,,,513.944,515.426,0,1,0.948,,0,158,158,130,1,pseudoword,0,REAL,FALSA
,,,,,,,,,WS_04,001,2025-01-22_12h43.22.990,empathy_intonation_perc,2024.1.4,MacIntel,62.5,,,,,,,,,,,,,,58,colcha,,,,,,515.428,518.209,0,1,2.25,,0,159,159,57,1,non_cognate,1,REAL,FALSA
,,,,,,,,,WS_04,001,2025-01-22_12h43.22.990,empathy_intonation_perc,2024.1.4,MacIntel,62.5,,,,,,,,,,,,,,70,ánimo,,,,,,518.21,519.426,1,0,0.688,,0,160,160,69,1,non_cognate,1,REAL,FALSA
,,,,,,,,,WS_04,001,2025-01-22_12h43.22.990,empathy_intonation_perc,2024.1.4,MacIntel,62.5,,,,,,,,,,,,,,168,cobén,,,,,,519.427,521.359,0,1,1.395,,0,161,161,167,1,pseudoword,0,REAL,FALSA
,,,,,,,,,WS_04,001,2025-01-22_12h43.22.990,empathy_intonation_perc,2024.1.4,MacIntel,62.5,,,,,,,,,,,,,,141,virios,,,,,,521.36,524.026,0,1,2.128,,0,162,162,140,1,pseudoword,0,REAL,FALSA
,,,,,,,,,WS_04,001,2025-01-22_12h43.22.990,empathy_intonation_perc,2024.1.4,MacIntel,62.5,,,,,,,,,,,,,,105,peniz,,,,,,524.027,526.976,1,0,2.42,,0,163,163,104,1,pseudoword,0,REAL,FALSA
,,,,,,,,,WS_04,001,2025-01-22_12h43.22.990,empathy_intonation_perc,2024.1.4,MacIntel,62.5,,,,,,,,,,,,,,42,rumor,,,,,,526.977,528.176,1,0,0.671,,0,164,164,41,1,two_way_cognate,1,REAL,FALSA
,,,,,,,,,WS_04,001,2025-01-22_12h43.22.990,empathy_intonation_perc,2024.1.4,MacIntel,62.5,,,,,,,,,,,,,,45,total,,,,,,528.177,529.343,1,0,0.637,,0,165,165,44,1,two_way_cognate,1,REAL,FALSA
,,,,,,,,,WS_04,001,2025-01-22_12h43.22.990,empathy_intonation_perc,2024.1.4,MacIntel,62.5,,,,,,,,,,,,,,106,diebro,,,,,,529.343,530.86,0,1,0.988,,0,166,166,105,1,pseudoword,0,REAL,FALSA
,,,,,,,,,WS_04,001,2025-01-22_12h43.22.990,empathy_intonation_perc,2024.1.4,MacIntel,62.5,,,,,,,,,,,,,,52,blando,,,,,,530.861,535.376,0,1,3.979,,0,167,167,51,1,non_cognate,1,REAL,FALSA
,,,,,,,,,WS_04,001,2025-01-22_12h43.22.990,empathy_intonation_perc,2024.1.4,MacIntel,62.5,,,,,,,,,,,,,,82,brillo,,,,,,535.377,536.892,1,0,0.98,,0,168,168,81,1,non_cognate,1,REAL,FALSA
,,,,,,,,,WS_04,001,2025-01-22_12h43.22.990,empathy_intonation_perc,2024.1.4,MacIntel,62.5,,,,,,,,,,,,,,55,maldad,,,,,,536.893,538.76,1,0,1.346,,0,169,169,54,1,non_cognate,1,REAL,FALSA
,,,,,,,,,WS_04,001,2025-01-22_12h43.22.990,empathy_intonation_perc,2024.1.4,MacIntel,62.5,,,,,,,,,,,,,,164,tecia,,,,,,538.761,541.91,0,1,2.611,,0,170,170,163,1,pseudoword,0,REAL,FALSA
,,,,,,,,,WS_04,001,2025-01-22_12h43.22.990,empathy_intonation_perc,2024.1.4,MacIntel,62.5,,,,,,,,,,,,,,95,listo,,,,,,541.911,544.561,1,0,2.111,,0,171,171,94,1,non_cognate,1,REAL,FALSA
,,,,,,,,,WS_04,001,2025-01-22_12h43.22.990,empathy_intonation_perc,2024.1.4,MacIntel,62.5,,,,,,,,,,,,,,113,nasce,,,,,,544.562,546.494,0,1,1.401,,0,172,172,112,1,pseudoword,0,REAL,FALSA
,,,,,,,,,WS_04,001,2025-01-22_12h43.22.990,empathy_intonation_perc,2024.1.4,MacIntel,62.5,,,,,,,,,,,,,,125,ceme,,,,,,546.495,548.41,0,1,1.376,,0,173,173,124,1,pseudoword,0,REAL,FALSA
,,,,,,,,,WS_04,001,2025-01-22_12h43.22.990,empathy_intonation_perc,2024.1.4,MacIntel,62.5,,,,,,,,,,,,,,160,fomeó,,,,,,548.411,551.261,0,1,2.311,,0,174,174,159,1,pseudoword,0,REAL,FALSA
,,,,,,,,,WS_04,001,2025-01-22_12h43.22.990,empathy_intonation_perc,2024.1.4,MacIntel,62.5,,,,,,,,,,,,,,123,arane,,,,,,551.261,554.711,0,1,2.914,,0,175,175,122,1,pseudoword,0,REAL,FALSA
,,,,,,,,,WS_04,001,2025-01-22_12h43.22.990,empathy_intonation_perc,2024.1.4,MacIntel,62.5,,,,,,,,,,,,,,76,chocar,,,,,,554.711,556.161,1,0,0.909,,0,176,176,75,1,non_cognate,1,REAL,FALSA
,,,,,,,,,WS_04,001,2025-01-22_12h43.22.990,empathy_intonation_perc,2024.1.4,MacIntel,62.5,,,,,,,,,,,,,,50,sierra,,,,,,556.161,558.177,1,0,1.479,,0,177,177,49,1,non_cognate,1,REAL,FALSA
,,,,,,,,,WS_04,001,2025-01-22_12h43.22.990,empathy_intonation_perc,2024.1.4,MacIntel,62.5,,,,,,,,,,,,,,151,prías,,,,,,558.178,560.144,0,1,1.432,,0,178,178,150,1,pseudoword,0,REAL,FALSA
,,,,,,,,,WS_04,001,2025-01-22_12h43.22.990,empathy_intonation_perc,2024.1.4,MacIntel,62.5,,,,,,,,,,,,,,14,aura,,,,,,560.145,562.977,1,0,2.295,,0,179,179,13,1,three_way_cognate,1,REAL,FALSA
,,,,,,,,,WS_04,001,2025-01-22_12h43.22.990,empathy_intonation_perc,2024.1.4,MacIntel,62.5,,,,,,,,,,,,,,4,flora,,,,,,562.978,569.695,1,0,6.179,,0,180,180,3,1,three_way_cognate,1,REAL,FALSA
,,,,,,,,,WS_04,001,2025-01-22_12h43.22.990,empathy_intonation_perc,2024.1.4,MacIntel,62.5,,,,,,,,,,,,,,7,albino,,,,,,569.696,571.378,0,1,1.144,,0,181,181,6,1,three_way_cognate,1,REAL,FALSA
,,,,,,,,,WS_04,001,2025-01-22_12h43.22.990,empathy_intonation_perc,2024.1.4,MacIntel,62.5,,,,,,,,,,,,,,118,bará,,,,,,571.378,575.644,0,1,3.728,,0,182,182,117,1,pseudoword,0,REAL,FALSA
,,,,,,,,,WS_04,001,2025-01-22_12h43.22.990,empathy_intonation_perc,2024.1.4,MacIntel,62.5,,,,,,,,,,,,,,15,test,,,,,,575.645,577.044,1,0,0.862,,0,183,183,14,1,three_way_cognate,1,REAL,FALSA
,,,,,,,,,WS_04,001,2025-01-22_12h43.22.990,empathy_intonation_perc,2024.1.4,MacIntel,62.5,,,,,,,,,,,,,,30,fiscal,,,,,,577.045,579.011,1,0,1.434,,0,184,184,29,1,two_way_cognate,1,REAL,FALSA
,,,,,,,,,WS_04,001,2025-01-22_12h43.22.990,empathy_intonation_perc,2024.1.4,MacIntel,62.5,,,,,,,,,,,,,,54,tapón,,,,,,579.012,581.311,1,0,1.761,,0,185,185,53,1,non_cognate,1,REAL,FALSA
,,,,,,,,,WS_04,001,2025-01-22_12h43.22.990,empathy_intonation_perc,2024.1.4,MacIntel,62.5,,,,,,,,,,,,,,136,hueas,,,,,,581.312,583.511,0,1,1.671,,0,186,186,135,1,pseudoword,0,REAL,FALSA
,,,,,,,,,WS_04,001,2025-01-22_12h43.22.990,empathy_intonation_perc,2024.1.4,MacIntel,62.5,,,,,,,,,,,,,,69,tiza,,,,,,583.512,586.228,0,1,2.177,,0,187,187,68,1,non_cognate,1,REAL,FALSA
,,,,,,,,,WS_04,001,2025-01-22_12h43.22.990,empathy_intonation_perc,2024.1.4,MacIntel,62.5,,,,,,,,,,,,,,3,disco,,,,,,586.229,587.661,1,0,0.901,,0,188,188,2,1,three_way_cognate,1,REAL,FALSA
,,,,,,,,,WS_04,001,2025-01-22_12h43.22.990,empathy_intonation_perc,2024.1.4,MacIntel,62.5,,,,,,,,,,,,,,77,suave,,,,,,587.661,589.045,1,0,0.862,,0,189,189,76,1,non_cognate,1,REAL,FALSA
,,,,,,,,,WS_04,001,2025-01-22_12h43.22.990,empathy_intonation_perc,2024.1.4,MacIntel,62.5,,,,,,,,,,,,,,36,viable,,,,,,589.045,592.962,0,1,3.397,,0,190,190,35,1,two_way_cognate,1,REAL,FALSA
,,,,,,,,,WS_04,001,2025-01-22_12h43.22.990,empathy_intonation_perc,2024.1.4,MacIntel,62.5,,,,,,,,,,,,,,127,vien,,,,,,592.962,602.096,1,0,8.597,,0,191,191,126,1,pseudoword,0,REAL,FALSA
