key_resp_lextale_trial.keys,key_resp_lextale_trial.corr,key_resp_lextale_trial.rt,trials.thisRepN,trials.thisTrialN,trials.thisN,trials.thisIndex,trials.ran,stim,word,correct_response,button_real,button_false,id,Variety of Spanish that is most familiar to you?,date,expName,psychopyVersion,OS,frameRate,key_resp.keys,key_resp.rt
0,0,2.2753,0,0,0,21,1,22,lacayo,1,REAL,FAKE,6027eac2f4090f09439ee8e4,Spanish Spanish,2025-04-30_21h07.35.853,lextale_sp,2021.2.3,MacIntel,59.17159763,,
1,1,0.9755,0,1,1,82,1,83,guante,1,REAL,FAKE,6027eac2f4090f09439ee8e4,Spanish Spanish,2025-04-30_21h07.35.853,lextale_sp,2021.2.3,MacIntel,59.17159763,,
0,0,0.6843,0,2,2,2,1,3,pulmones,1,REAL,FAKE,6027eac2f4090f09439ee8e4,Spanish Spanish,2025-04-30_21h07.35.853,lextale_sp,2021.2.3,MacIntel,59.17159763,,
1,1,0.8667,0,3,3,42,1,43,canela,1,REAL,FAKE,6027eac2f4090f09439ee8e4,Spanish Spanish,2025-04-30_21h07.35.853,lextale_sp,2021.2.3,MacIntel,59.17159763,,
1,1,0.9167,0,4,4,33,1,34,aviso,1,REAL,FAKE,6027eac2f4090f09439ee8e4,Spanish Spanish,2025-04-30_21h07.35.853,lextale_sp,2021.2.3,MacIntel,59.17159763,,
0,0,0.5903,0,5,5,38,1,39,torpe,1,REAL,FAKE,6027eac2f4090f09439ee8e4,Spanish Spanish,2025-04-30_21h07.35.853,lextale_sp,2021.2.3,MacIntel,59.17159763,,
1,0,0.9255,0,6,6,15,1,16,abracer,0,REAL,FAKE,6027eac2f4090f09439ee8e4,Spanish Spanish,2025-04-30_21h07.35.853,lextale_sp,2021.2.3,MacIntel,59.17159763,,
0,1,0.635,0,7,7,32,1,33,pauca,0,REAL,FAKE,6027eac2f4090f09439ee8e4,Spanish Spanish,2025-04-30_21h07.35.853,lextale_sp,2021.2.3,MacIntel,59.17159763,,
1,0,0.7829,0,8,8,16,1,17,floroso,0,REAL,FAKE,6027eac2f4090f09439ee8e4,Spanish Spanish,2025-04-30_21h07.35.853,lextale_sp,2021.2.3,MacIntel,59.17159763,,
0,0,0.8313,0,9,9,44,1,45,jilguero,1,REAL,FAKE,6027eac2f4090f09439ee8e4,Spanish Spanish,2025-04-30_21h07.35.853,lextale_sp,2021.2.3,MacIntel,59.17159763,,
1,1,0.7188,0,10,10,39,1,40,alfombra,1,REAL,FAKE,6027eac2f4090f09439ee8e4,Spanish Spanish,2025-04-30_21h07.35.853,lextale_sp,2021.2.3,MacIntel,59.17159763,,
0,0,0.7104,0,11,11,63,1,64,orgulloso,1,REAL,FAKE,6027eac2f4090f09439ee8e4,Spanish Spanish,2025-04-30_21h07.35.853,lextale_sp,2021.2.3,MacIntel,59.17159763,,
1,0,0.7593,0,12,12,46,1,47,cartinar,0,REAL,FAKE,6027eac2f4090f09439ee8e4,Spanish Spanish,2025-04-30_21h07.35.853,lextale_sp,2021.2.3,MacIntel,59.17159763,,
1,1,0.5513,0,13,13,61,1,62,flaco,1,REAL,FAKE,6027eac2f4090f09439ee8e4,Spanish Spanish,2025-04-30_21h07.35.853,lextale_sp,2021.2.3,MacIntel,59.17159763,,
1,1,0.6852,0,14,14,76,1,77,tiburón,1,REAL,FAKE,6027eac2f4090f09439ee8e4,Spanish Spanish,2025-04-30_21h07.35.853,lextale_sp,2021.2.3,MacIntel,59.17159763,,
1,0,0.6398,0,15,15,3,1,4,batillón,0,REAL,FAKE,6027eac2f4090f09439ee8e4,Spanish Spanish,2025-04-30_21h07.35.853,lextale_sp,2021.2.3,MacIntel,59.17159763,,
1,0,0.8037,0,16,16,71,1,72,pemición,0,REAL,FAKE,6027eac2f4090f09439ee8e4,Spanish Spanish,2025-04-30_21h07.35.853,lextale_sp,2021.2.3,MacIntel,59.17159763,,
0,1,0.9473,0,17,17,18,1,19,brecedad,0,REAL,FAKE,6027eac2f4090f09439ee8e4,Spanish Spanish,2025-04-30_21h07.35.853,lextale_sp,2021.2.3,MacIntel,59.17159763,,
0,0,0.9308,0,18,18,60,1,61,seda,1,REAL,FAKE,6027eac2f4090f09439ee8e4,Spanish Spanish,2025-04-30_21h07.35.853,lextale_sp,2021.2.3,MacIntel,59.17159763,,
1,1,0.8945,0,19,19,1,1,2,pellizcar,1,REAL,FAKE,6027eac2f4090f09439ee8e4,Spanish Spanish,2025-04-30_21h07.35.853,lextale_sp,2021.2.3,MacIntel,59.17159763,,
1,1,0.6322,0,20,20,45,1,46,martillo,1,REAL,FAKE,6027eac2f4090f09439ee8e4,Spanish Spanish,2025-04-30_21h07.35.853,lextale_sp,2021.2.3,MacIntel,59.17159763,,
0,1,1.0441,0,21,21,26,1,27,acutación,0,REAL,FAKE,6027eac2f4090f09439ee8e4,Spanish Spanish,2025-04-30_21h07.35.853,lextale_sp,2021.2.3,MacIntel,59.17159763,,
0,1,0.8905,0,22,22,20,1,21,capillo,0,REAL,FAKE,6027eac2f4090f09439ee8e4,Spanish Spanish,2025-04-30_21h07.35.853,lextale_sp,2021.2.3,MacIntel,59.17159763,,
1,1,0.6612,0,23,23,89,1,90,clavel,1,REAL,FAKE,6027eac2f4090f09439ee8e4,Spanish Spanish,2025-04-30_21h07.35.853,lextale_sp,2021.2.3,MacIntel,59.17159763,,
0,0,0.7063,0,24,24,5,1,6,tergiversar,1,REAL,FAKE,6027eac2f4090f09439ee8e4,Spanish Spanish,2025-04-30_21h07.35.853,lextale_sp,2021.2.3,MacIntel,59.17159763,,
1,0,0.7344,0,25,25,49,1,50,flamida,0,REAL,FAKE,6027eac2f4090f09439ee8e4,Spanish Spanish,2025-04-30_21h07.35.853,lextale_sp,2021.2.3,MacIntel,59.17159763,,
0,1,0.6511,0,26,26,17,1,18,arsa,0,REAL,FAKE,6027eac2f4090f09439ee8e4,Spanish Spanish,2025-04-30_21h07.35.853,lextale_sp,2021.2.3,MacIntel,59.17159763,,
0,1,0.634,0,27,27,31,1,32,fatacidad,0,REAL,FAKE,6027eac2f4090f09439ee8e4,Spanish Spanish,2025-04-30_21h07.35.853,lextale_sp,2021.2.3,MacIntel,59.17159763,,
1,0,0.6867,0,28,28,34,1,35,rompido,0,REAL,FAKE,6027eac2f4090f09439ee8e4,Spanish Spanish,2025-04-30_21h07.35.853,lextale_sp,2021.2.3,MacIntel,59.17159763,,
1,0,0.6264,0,29,29,81,1,82,empirador,0,REAL,FAKE,6027eac2f4090f09439ee8e4,Spanish Spanish,2025-04-30_21h07.35.853,lextale_sp,2021.2.3,MacIntel,59.17159763,,
1,0,0.6173,0,30,30,7,1,8,cadeña,0,REAL,FAKE,6027eac2f4090f09439ee8e4,Spanish Spanish,2025-04-30_21h07.35.853,lextale_sp,2021.2.3,MacIntel,59.17159763,,
1,1,0.7423,0,31,31,35,1,36,loro,1,REAL,FAKE,6027eac2f4090f09439ee8e4,Spanish Spanish,2025-04-30_21h07.35.853,lextale_sp,2021.2.3,MacIntel,59.17159763,,
1,1,0.7921,0,32,32,51,1,52,camisa,1,REAL,FAKE,6027eac2f4090f09439ee8e4,Spanish Spanish,2025-04-30_21h07.35.853,lextale_sp,2021.2.3,MacIntel,59.17159763,,
0,1,0.739,0,33,33,52,1,53,vegada,0,REAL,FAKE,6027eac2f4090f09439ee8e4,Spanish Spanish,2025-04-30_21h07.35.853,lextale_sp,2021.2.3,MacIntel,59.17159763,,
0,0,0.5598,0,34,34,12,1,13,helar,1,REAL,FAKE,6027eac2f4090f09439ee8e4,Spanish Spanish,2025-04-30_21h07.35.853,lextale_sp,2021.2.3,MacIntel,59.17159763,,
0,0,0.5912,0,35,35,58,1,59,besar,1,REAL,FAKE,6027eac2f4090f09439ee8e4,Spanish Spanish,2025-04-30_21h07.35.853,lextale_sp,2021.2.3,MacIntel,59.17159763,,
0,0,1.0885,0,36,36,25,1,26,secuestro,1,REAL,FAKE,6027eac2f4090f09439ee8e4,Spanish Spanish,2025-04-30_21h07.35.853,lextale_sp,2021.2.3,MacIntel,59.17159763,,
1,0,0.4603,0,37,37,73,1,74,cintro,0,REAL,FAKE,6027eac2f4090f09439ee8e4,Spanish Spanish,2025-04-30_21h07.35.853,lextale_sp,2021.2.3,MacIntel,59.17159763,,
1,1,0.553,0,38,38,79,1,80,hormiga,1,REAL,FAKE,6027eac2f4090f09439ee8e4,Spanish Spanish,2025-04-30_21h07.35.853,lextale_sp,2021.2.3,MacIntel,59.17159763,,
0,0,0.4681,0,39,39,75,1,76,atar,1,REAL,FAKE,6027eac2f4090f09439ee8e4,Spanish Spanish,2025-04-30_21h07.35.853,lextale_sp,2021.2.3,MacIntel,59.17159763,,
0,0,0.5516,0,40,40,27,1,28,merodear,1,REAL,FAKE,6027eac2f4090f09439ee8e4,Spanish Spanish,2025-04-30_21h07.35.853,lextale_sp,2021.2.3,MacIntel,59.17159763,,
0,0,0.7408,0,41,41,6,1,7,pésimo,1,REAL,FAKE,6027eac2f4090f09439ee8e4,Spanish Spanish,2025-04-30_21h07.35.853,lextale_sp,2021.2.3,MacIntel,59.17159763,,
0,1,0.4565,0,42,42,9,1,10,antar,0,REAL,FAKE,6027eac2f4090f09439ee8e4,Spanish Spanish,2025-04-30_21h07.35.853,lextale_sp,2021.2.3,MacIntel,59.17159763,,
0,1,0.8171,0,43,43,0,1,1,terzo,0,REAL,FAKE,6027eac2f4090f09439ee8e4,Spanish Spanish,2025-04-30_21h07.35.853,lextale_sp,2021.2.3,MacIntel,59.17159763,,
0,0,0.6944,0,44,44,53,1,54,fomentar,1,REAL,FAKE,6027eac2f4090f09439ee8e4,Spanish Spanish,2025-04-30_21h07.35.853,lextale_sp,2021.2.3,MacIntel,59.17159763,,
0,0,0.666,0,45,45,54,1,55,nevar,1,REAL,FAKE,6027eac2f4090f09439ee8e4,Spanish Spanish,2025-04-30_21h07.35.853,lextale_sp,2021.2.3,MacIntel,59.17159763,,
0,1,0.8164,0,46,46,86,1,87,grodo,0,REAL,FAKE,6027eac2f4090f09439ee8e4,Spanish Spanish,2025-04-30_21h07.35.853,lextale_sp,2021.2.3,MacIntel,59.17159763,,
0,0,0.6062,0,47,47,10,1,11,cenefa,1,REAL,FAKE,6027eac2f4090f09439ee8e4,Spanish Spanish,2025-04-30_21h07.35.853,lextale_sp,2021.2.3,MacIntel,59.17159763,,
0,0,0.7433,0,48,48,88,1,89,prisa,1,REAL,FAKE,6027eac2f4090f09439ee8e4,Spanish Spanish,2025-04-30_21h07.35.853,lextale_sp,2021.2.3,MacIntel,59.17159763,,
1,1,0.6515,0,49,49,14,1,15,regar,1,REAL,FAKE,6027eac2f4090f09439ee8e4,Spanish Spanish,2025-04-30_21h07.35.853,lextale_sp,2021.2.3,MacIntel,59.17159763,,
1,1,0.4756,0,50,50,23,1,24,látigo,1,REAL,FAKE,6027eac2f4090f09439ee8e4,Spanish Spanish,2025-04-30_21h07.35.853,lextale_sp,2021.2.3,MacIntel,59.17159763,,
0,0,0.9147,0,51,51,40,1,41,rebuscar,1,REAL,FAKE,6027eac2f4090f09439ee8e4,Spanish Spanish,2025-04-30_21h07.35.853,lextale_sp,2021.2.3,MacIntel,59.17159763,,
1,0,0.6648,0,52,52,57,1,58,plaudir,0,REAL,FAKE,6027eac2f4090f09439ee8e4,Spanish Spanish,2025-04-30_21h07.35.853,lextale_sp,2021.2.3,MacIntel,59.17159763,,
0,1,0.7323,0,53,53,41,1,42,cadallo,0,REAL,FAKE,6027eac2f4090f09439ee8e4,Spanish Spanish,2025-04-30_21h07.35.853,lextale_sp,2021.2.3,MacIntel,59.17159763,,
0,0,0.6328,0,54,54,68,1,69,engatusar,1,REAL,FAKE,6027eac2f4090f09439ee8e4,Spanish Spanish,2025-04-30_21h07.35.853,lextale_sp,2021.2.3,MacIntel,59.17159763,,
0,1,0.812,0,55,55,78,1,79,tropaje,0,REAL,FAKE,6027eac2f4090f09439ee8e4,Spanish Spanish,2025-04-30_21h07.35.853,lextale_sp,2021.2.3,MacIntel,59.17159763,,
0,1,0.6105,0,56,56,29,1,30,alardio,0,REAL,FAKE,6027eac2f4090f09439ee8e4,Spanish Spanish,2025-04-30_21h07.35.853,lextale_sp,2021.2.3,MacIntel,59.17159763,,
1,1,0.6185,0,57,57,43,1,44,cuchara,1,REAL,FAKE,6027eac2f4090f09439ee8e4,Spanish Spanish,2025-04-30_21h07.35.853,lextale_sp,2021.2.3,MacIntel,59.17159763,,
1,1,0.5777,0,58,58,8,1,9,hacha,1,REAL,FAKE,6027eac2f4090f09439ee8e4,Spanish Spanish,2025-04-30_21h07.35.853,lextale_sp,2021.2.3,MacIntel,59.17159763,,
0,1,0.9066,0,59,59,83,1,84,escuto,0,REAL,FAKE,6027eac2f4090f09439ee8e4,Spanish Spanish,2025-04-30_21h07.35.853,lextale_sp,2021.2.3,MacIntel,59.17159763,,
1,1,0.6388,0,60,60,19,1,20,ávido,1,REAL,FAKE,6027eac2f4090f09439ee8e4,Spanish Spanish,2025-04-30_21h07.35.853,lextale_sp,2021.2.3,MacIntel,59.17159763,,
0,0,0.6776,0,61,61,72,1,73,hervidor,1,REAL,FAKE,6027eac2f4090f09439ee8e4,Spanish Spanish,2025-04-30_21h07.35.853,lextale_sp,2021.2.3,MacIntel,59.17159763,,
0,1,0.5872,0,62,62,28,1,29,decar,0,REAL,FAKE,6027eac2f4090f09439ee8e4,Spanish Spanish,2025-04-30_21h07.35.853,lextale_sp,2021.2.3,MacIntel,59.17159763,,
0,0,0.5998,0,63,63,55,1,56,musgo,1,REAL,FAKE,6027eac2f4090f09439ee8e4,Spanish Spanish,2025-04-30_21h07.35.853,lextale_sp,2021.2.3,MacIntel,59.17159763,,
0,0,0.6082,0,64,64,70,1,71,polvoriento,1,REAL,FAKE,6027eac2f4090f09439ee8e4,Spanish Spanish,2025-04-30_21h07.35.853,lextale_sp,2021.2.3,MacIntel,59.17159763,,
0,0,0.7146,0,65,65,56,1,57,tacaño,1,REAL,FAKE,6027eac2f4090f09439ee8e4,Spanish Spanish,2025-04-30_21h07.35.853,lextale_sp,2021.2.3,MacIntel,59.17159763,,
0,0,0.6318,0,66,66,37,1,38,estornudar,1,REAL,FAKE,6027eac2f4090f09439ee8e4,Spanish Spanish,2025-04-30_21h07.35.853,lextale_sp,2021.2.3,MacIntel,59.17159763,,
0,0,0.6791,0,67,67,80,1,81,pozo,1,REAL,FAKE,6027eac2f4090f09439ee8e4,Spanish Spanish,2025-04-30_21h07.35.853,lextale_sp,2021.2.3,MacIntel,59.17159763,,
0,0,0.6298,0,68,68,74,1,75,yacer,1,REAL,FAKE,6027eac2f4090f09439ee8e4,Spanish Spanish,2025-04-30_21h07.35.853,lextale_sp,2021.2.3,MacIntel,59.17159763,,
0,0,0.8937,0,69,69,11,1,12,asesinato,1,REAL,FAKE,6027eac2f4090f09439ee8e4,Spanish Spanish,2025-04-30_21h07.35.853,lextale_sp,2021.2.3,MacIntel,59.17159763,,
1,1,0.5617,0,70,70,36,1,37,granuja,1,REAL,FAKE,6027eac2f4090f09439ee8e4,Spanish Spanish,2025-04-30_21h07.35.853,lextale_sp,2021.2.3,MacIntel,59.17159763,,
0,0,0.7173,0,71,71,64,1,65,bizcocho,1,REAL,FAKE,6027eac2f4090f09439ee8e4,Spanish Spanish,2025-04-30_21h07.35.853,lextale_sp,2021.2.3,MacIntel,59.17159763,,
1,1,0.9512,0,72,72,87,1,88,acantilado,1,REAL,FAKE,6027eac2f4090f09439ee8e4,Spanish Spanish,2025-04-30_21h07.35.853,lextale_sp,2021.2.3,MacIntel,59.17159763,,
1,1,0.6336,0,73,73,50,1,51,candado,1,REAL,FAKE,6027eac2f4090f09439ee8e4,Spanish Spanish,2025-04-30_21h07.35.853,lextale_sp,2021.2.3,MacIntel,59.17159763,,
1,1,0.7795,0,74,74,59,1,60,matar,1,REAL,FAKE,6027eac2f4090f09439ee8e4,Spanish Spanish,2025-04-30_21h07.35.853,lextale_sp,2021.2.3,MacIntel,59.17159763,,
0,0,0.5367,0,75,75,24,1,25,bisagra,1,REAL,FAKE,6027eac2f4090f09439ee8e4,Spanish Spanish,2025-04-30_21h07.35.853,lextale_sp,2021.2.3,MacIntel,59.17159763,,
0,0,0.4682,0,76,76,77,1,78,frondoso,1,REAL,FAKE,6027eac2f4090f09439ee8e4,Spanish Spanish,2025-04-30_21h07.35.853,lextale_sp,2021.2.3,MacIntel,59.17159763,,
0,1,0.3945,0,77,77,69,1,70,temblo,0,REAL,FAKE,6027eac2f4090f09439ee8e4,Spanish Spanish,2025-04-30_21h07.35.853,lextale_sp,2021.2.3,MacIntel,59.17159763,,
0,0,0.4905,0,78,78,84,1,85,laúd,1,REAL,FAKE,6027eac2f4090f09439ee8e4,Spanish Spanish,2025-04-30_21h07.35.853,lextale_sp,2021.2.3,MacIntel,59.17159763,,
0,0,0.8202,0,79,79,30,1,31,pandilla,1,REAL,FAKE,6027eac2f4090f09439ee8e4,Spanish Spanish,2025-04-30_21h07.35.853,lextale_sp,2021.2.3,MacIntel,59.17159763,,
1,0,0.6732,0,80,80,22,1,23,lampera,0,REAL,FAKE,6027eac2f4090f09439ee8e4,Spanish Spanish,2025-04-30_21h07.35.853,lextale_sp,2021.2.3,MacIntel,59.17159763,,
1,1,0.6265,0,81,81,66,1,67,cabello,1,REAL,FAKE,6027eac2f4090f09439ee8e4,Spanish Spanish,2025-04-30_21h07.35.853,lextale_sp,2021.2.3,MacIntel,59.17159763,,
1,0,0.7956,0,82,82,62,1,63,esposante,0,REAL,FAKE,6027eac2f4090f09439ee8e4,Spanish Spanish,2025-04-30_21h07.35.853,lextale_sp,2021.2.3,MacIntel,59.17159763,,
1,1,1.1702,0,83,83,4,1,5,zapato,1,REAL,FAKE,6027eac2f4090f09439ee8e4,Spanish Spanish,2025-04-30_21h07.35.853,lextale_sp,2021.2.3,MacIntel,59.17159763,,
1,1,1.1941,0,84,84,48,1,49,ganar,1,REAL,FAKE,6027eac2f4090f09439ee8e4,Spanish Spanish,2025-04-30_21h07.35.853,lextale_sp,2021.2.3,MacIntel,59.17159763,,
1,0,0.8062,0,85,85,65,1,66,hacido,0,REAL,FAKE,6027eac2f4090f09439ee8e4,Spanish Spanish,2025-04-30_21h07.35.853,lextale_sp,2021.2.3,MacIntel,59.17159763,,
0,0,0.4452,0,86,86,13,1,14,yunque,1,REAL,FAKE,6027eac2f4090f09439ee8e4,Spanish Spanish,2025-04-30_21h07.35.853,lextale_sp,2021.2.3,MacIntel,59.17159763,,
1,1,0.612,0,87,87,85,1,86,barato,1,REAL,FAKE,6027eac2f4090f09439ee8e4,Spanish Spanish,2025-04-30_21h07.35.853,lextale_sp,2021.2.3,MacIntel,59.17159763,,
1,1,0.8318,0,88,88,67,1,68,alegre,1,REAL,FAKE,6027eac2f4090f09439ee8e4,Spanish Spanish,2025-04-30_21h07.35.853,lextale_sp,2021.2.3,MacIntel,59.17159763,,
0,0,0.6,0,89,89,47,1,48,ladrón,1,REAL,FAKE,6027eac2f4090f09439ee8e4,Spanish Spanish,2025-04-30_21h07.35.853,lextale_sp,2021.2.3,MacIntel,59.17159763,,
,,,,,,,,,,,,,6027eac2f4090f09439ee8e4,Spanish Spanish,2025-04-30_21h07.35.853,lextale_sp,2021.2.3,MacIntel,59.17159763,space,8.1825
