key_resp_lextale_trial.keys,key_resp_lextale_trial.corr,key_resp_lextale_trial.rt,trials.thisRepN,trials.thisTrialN,trials.thisN,trials.thisIndex,trials.ran,stim,word,correct_response,button_real,button_false,id,Variety of Spanish that is most familiar to you?,date,expName,psychopyVersion,OS,frameRate,key_resp.keys,key_resp.rt
1,0,1.0015,0,0,0,28,1,29,decar,0,REAL,FAKE,6046ac1161b60d0fc94b0000,Castellano,2025-04-30_09h15.10.565,lextale_sp,2021.2.3,Win32,60.24096386,,
0,0,1.0532,0,1,1,14,1,15,regar,1,REAL,FAKE,6046ac1161b60d0fc94b0000,Castellano,2025-04-30_09h15.10.565,lextale_sp,2021.2.3,Win32,60.24096386,,
0,1,0.8633,0,2,2,73,1,74,cintro,0,REAL,FAKE,6046ac1161b60d0fc94b0000,Castellano,2025-04-30_09h15.10.565,lextale_sp,2021.2.3,Win32,60.24096386,,
0,0,0.8353,0,3,3,36,1,37,granuja,1,REAL,FAKE,6046ac1161b60d0fc94b0000,Castellano,2025-04-30_09h15.10.565,lextale_sp,2021.2.3,Win32,60.24096386,,
0,1,0.6519,0,4,4,0,1,1,terzo,0,REAL,FAKE,6046ac1161b60d0fc94b0000,Castellano,2025-04-30_09h15.10.565,lextale_sp,2021.2.3,Win32,60.24096386,,
0,0,0.7642,0,5,5,64,1,65,bizcocho,1,REAL,FAKE,6046ac1161b60d0fc94b0000,Castellano,2025-04-30_09h15.10.565,lextale_sp,2021.2.3,Win32,60.24096386,,
0,0,0.803,0,6,6,74,1,75,yacer,1,REAL,FAKE,6046ac1161b60d0fc94b0000,Castellano,2025-04-30_09h15.10.565,lextale_sp,2021.2.3,Win32,60.24096386,,
0,0,0.8961,0,7,7,89,1,90,clavel,1,REAL,FAKE,6046ac1161b60d0fc94b0000,Castellano,2025-04-30_09h15.10.565,lextale_sp,2021.2.3,Win32,60.24096386,,
1,0,0.7298,0,8,8,9,1,10,antar,0,REAL,FAKE,6046ac1161b60d0fc94b0000,Castellano,2025-04-30_09h15.10.565,lextale_sp,2021.2.3,Win32,60.24096386,,
0,0,0.8127,0,9,9,38,1,39,torpe,1,REAL,FAKE,6046ac1161b60d0fc94b0000,Castellano,2025-04-30_09h15.10.565,lextale_sp,2021.2.3,Win32,60.24096386,,
0,0,0.9364,0,10,10,1,1,2,pellizcar,1,REAL,FAKE,6046ac1161b60d0fc94b0000,Castellano,2025-04-30_09h15.10.565,lextale_sp,2021.2.3,Win32,60.24096386,,
1,1,1.0859,0,11,11,23,1,24,látigo,1,REAL,FAKE,6046ac1161b60d0fc94b0000,Castellano,2025-04-30_09h15.10.565,lextale_sp,2021.2.3,Win32,60.24096386,,
1,1,0.982,0,12,12,72,1,73,hervidor,1,REAL,FAKE,6046ac1161b60d0fc94b0000,Castellano,2025-04-30_09h15.10.565,lextale_sp,2021.2.3,Win32,60.24096386,,
0,0,0.8543,0,13,13,77,1,78,frondoso,1,REAL,FAKE,6046ac1161b60d0fc94b0000,Castellano,2025-04-30_09h15.10.565,lextale_sp,2021.2.3,Win32,60.24096386,,
1,1,0.8695,0,14,14,58,1,59,besar,1,REAL,FAKE,6046ac1161b60d0fc94b0000,Castellano,2025-04-30_09h15.10.565,lextale_sp,2021.2.3,Win32,60.24096386,,
1,0,0.8521,0,15,15,49,1,50,flamida,0,REAL,FAKE,6046ac1161b60d0fc94b0000,Castellano,2025-04-30_09h15.10.565,lextale_sp,2021.2.3,Win32,60.24096386,,
1,1,0.9804,0,16,16,85,1,86,barato,1,REAL,FAKE,6046ac1161b60d0fc94b0000,Castellano,2025-04-30_09h15.10.565,lextale_sp,2021.2.3,Win32,60.24096386,,
1,1,0.9525,0,17,17,47,1,48,ladrón,1,REAL,FAKE,6046ac1161b60d0fc94b0000,Castellano,2025-04-30_09h15.10.565,lextale_sp,2021.2.3,Win32,60.24096386,,
0,1,0.9027,0,18,18,41,1,42,cadallo,0,REAL,FAKE,6046ac1161b60d0fc94b0000,Castellano,2025-04-30_09h15.10.565,lextale_sp,2021.2.3,Win32,60.24096386,,
0,0,0.6521,0,19,19,10,1,11,cenefa,1,REAL,FAKE,6046ac1161b60d0fc94b0000,Castellano,2025-04-30_09h15.10.565,lextale_sp,2021.2.3,Win32,60.24096386,,
1,0,1.3141,0,20,20,62,1,63,esposante,0,REAL,FAKE,6046ac1161b60d0fc94b0000,Castellano,2025-04-30_09h15.10.565,lextale_sp,2021.2.3,Win32,60.24096386,,
0,1,0.7192,0,21,21,18,1,19,brecedad,0,REAL,FAKE,6046ac1161b60d0fc94b0000,Castellano,2025-04-30_09h15.10.565,lextale_sp,2021.2.3,Win32,60.24096386,,
1,1,1.0026,0,22,22,6,1,7,pésimo,1,REAL,FAKE,6046ac1161b60d0fc94b0000,Castellano,2025-04-30_09h15.10.565,lextale_sp,2021.2.3,Win32,60.24096386,,
1,0,0.8233,0,23,23,3,1,4,batillón,0,REAL,FAKE,6046ac1161b60d0fc94b0000,Castellano,2025-04-30_09h15.10.565,lextale_sp,2021.2.3,Win32,60.24096386,,
0,0,0.7354,0,24,24,21,1,22,lacayo,1,REAL,FAKE,6046ac1161b60d0fc94b0000,Castellano,2025-04-30_09h15.10.565,lextale_sp,2021.2.3,Win32,60.24096386,,
0,1,0.92,0,25,25,83,1,84,escuto,0,REAL,FAKE,6046ac1161b60d0fc94b0000,Castellano,2025-04-30_09h15.10.565,lextale_sp,2021.2.3,Win32,60.24096386,,
1,0,0.8422,0,26,26,7,1,8,cadeña,0,REAL,FAKE,6046ac1161b60d0fc94b0000,Castellano,2025-04-30_09h15.10.565,lextale_sp,2021.2.3,Win32,60.24096386,,
1,0,1.1084,0,27,27,16,1,17,floroso,0,REAL,FAKE,6046ac1161b60d0fc94b0000,Castellano,2025-04-30_09h15.10.565,lextale_sp,2021.2.3,Win32,60.24096386,,
0,0,0.7418,0,28,28,79,1,80,hormiga,1,REAL,FAKE,6046ac1161b60d0fc94b0000,Castellano,2025-04-30_09h15.10.565,lextale_sp,2021.2.3,Win32,60.24096386,,
0,1,1.0283,0,29,29,78,1,79,tropaje,0,REAL,FAKE,6046ac1161b60d0fc94b0000,Castellano,2025-04-30_09h15.10.565,lextale_sp,2021.2.3,Win32,60.24096386,,
1,0,0.8028,0,30,30,65,1,66,hacido,0,REAL,FAKE,6046ac1161b60d0fc94b0000,Castellano,2025-04-30_09h15.10.565,lextale_sp,2021.2.3,Win32,60.24096386,,
0,0,0.9233,0,31,31,61,1,62,flaco,1,REAL,FAKE,6046ac1161b60d0fc94b0000,Castellano,2025-04-30_09h15.10.565,lextale_sp,2021.2.3,Win32,60.24096386,,
1,0,0.9685,0,32,32,17,1,18,arsa,0,REAL,FAKE,6046ac1161b60d0fc94b0000,Castellano,2025-04-30_09h15.10.565,lextale_sp,2021.2.3,Win32,60.24096386,,
1,1,1.0481,0,33,33,25,1,26,secuestro,1,REAL,FAKE,6046ac1161b60d0fc94b0000,Castellano,2025-04-30_09h15.10.565,lextale_sp,2021.2.3,Win32,60.24096386,,
0,1,1.1204,0,34,34,20,1,21,capillo,0,REAL,FAKE,6046ac1161b60d0fc94b0000,Castellano,2025-04-30_09h15.10.565,lextale_sp,2021.2.3,Win32,60.24096386,,
0,1,1.0367,0,35,35,31,1,32,fatacidad,0,REAL,FAKE,6046ac1161b60d0fc94b0000,Castellano,2025-04-30_09h15.10.565,lextale_sp,2021.2.3,Win32,60.24096386,,
0,0,1.3295,0,36,36,68,1,69,engatusar,1,REAL,FAKE,6046ac1161b60d0fc94b0000,Castellano,2025-04-30_09h15.10.565,lextale_sp,2021.2.3,Win32,60.24096386,,
0,0,1.3361,0,37,37,35,1,36,loro,1,REAL,FAKE,6046ac1161b60d0fc94b0000,Castellano,2025-04-30_09h15.10.565,lextale_sp,2021.2.3,Win32,60.24096386,,
0,0,0.956,0,38,38,13,1,14,yunque,1,REAL,FAKE,6046ac1161b60d0fc94b0000,Castellano,2025-04-30_09h15.10.565,lextale_sp,2021.2.3,Win32,60.24096386,,
1,1,1.0037,0,39,39,76,1,77,tiburón,1,REAL,FAKE,6046ac1161b60d0fc94b0000,Castellano,2025-04-30_09h15.10.565,lextale_sp,2021.2.3,Win32,60.24096386,,
1,1,1.1034,0,40,40,43,1,44,cuchara,1,REAL,FAKE,6046ac1161b60d0fc94b0000,Castellano,2025-04-30_09h15.10.565,lextale_sp,2021.2.3,Win32,60.24096386,,
1,1,0.6211,0,41,41,8,1,9,hacha,1,REAL,FAKE,6046ac1161b60d0fc94b0000,Castellano,2025-04-30_09h15.10.565,lextale_sp,2021.2.3,Win32,60.24096386,,
0,0,0.8093,0,42,42,30,1,31,pandilla,1,REAL,FAKE,6046ac1161b60d0fc94b0000,Castellano,2025-04-30_09h15.10.565,lextale_sp,2021.2.3,Win32,60.24096386,,
1,1,0.6961,0,43,43,19,1,20,ávido,1,REAL,FAKE,6046ac1161b60d0fc94b0000,Castellano,2025-04-30_09h15.10.565,lextale_sp,2021.2.3,Win32,60.24096386,,
0,0,0.6762,0,44,44,44,1,45,jilguero,1,REAL,FAKE,6046ac1161b60d0fc94b0000,Castellano,2025-04-30_09h15.10.565,lextale_sp,2021.2.3,Win32,60.24096386,,
1,0,1.1184,0,45,45,71,1,72,pemición,0,REAL,FAKE,6046ac1161b60d0fc94b0000,Castellano,2025-04-30_09h15.10.565,lextale_sp,2021.2.3,Win32,60.24096386,,
0,0,1.1263,0,46,46,27,1,28,merodear,1,REAL,FAKE,6046ac1161b60d0fc94b0000,Castellano,2025-04-30_09h15.10.565,lextale_sp,2021.2.3,Win32,60.24096386,,
0,0,0.6526,0,47,47,12,1,13,helar,1,REAL,FAKE,6046ac1161b60d0fc94b0000,Castellano,2025-04-30_09h15.10.565,lextale_sp,2021.2.3,Win32,60.24096386,,
0,0,0.661,0,48,48,2,1,3,pulmones,1,REAL,FAKE,6046ac1161b60d0fc94b0000,Castellano,2025-04-30_09h15.10.565,lextale_sp,2021.2.3,Win32,60.24096386,,
0,0,0.7468,0,49,49,4,1,5,zapato,1,REAL,FAKE,6046ac1161b60d0fc94b0000,Castellano,2025-04-30_09h15.10.565,lextale_sp,2021.2.3,Win32,60.24096386,,
0,0,0.8733,0,50,50,59,1,60,matar,1,REAL,FAKE,6046ac1161b60d0fc94b0000,Castellano,2025-04-30_09h15.10.565,lextale_sp,2021.2.3,Win32,60.24096386,,
1,0,1.0193,0,51,51,32,1,33,pauca,0,REAL,FAKE,6046ac1161b60d0fc94b0000,Castellano,2025-04-30_09h15.10.565,lextale_sp,2021.2.3,Win32,60.24096386,,
1,1,0.7067,0,52,52,88,1,89,prisa,1,REAL,FAKE,6046ac1161b60d0fc94b0000,Castellano,2025-04-30_09h15.10.565,lextale_sp,2021.2.3,Win32,60.24096386,,
1,0,0.9862,0,53,53,34,1,35,rompido,0,REAL,FAKE,6046ac1161b60d0fc94b0000,Castellano,2025-04-30_09h15.10.565,lextale_sp,2021.2.3,Win32,60.24096386,,
0,1,0.8026,0,54,54,26,1,27,acutación,0,REAL,FAKE,6046ac1161b60d0fc94b0000,Castellano,2025-04-30_09h15.10.565,lextale_sp,2021.2.3,Win32,60.24096386,,
0,0,0.8032,0,55,55,48,1,49,ganar,1,REAL,FAKE,6046ac1161b60d0fc94b0000,Castellano,2025-04-30_09h15.10.565,lextale_sp,2021.2.3,Win32,60.24096386,,
1,0,0.7867,0,56,56,46,1,47,cartinar,0,REAL,FAKE,6046ac1161b60d0fc94b0000,Castellano,2025-04-30_09h15.10.565,lextale_sp,2021.2.3,Win32,60.24096386,,
1,1,0.741,0,57,57,53,1,54,fomentar,1,REAL,FAKE,6046ac1161b60d0fc94b0000,Castellano,2025-04-30_09h15.10.565,lextale_sp,2021.2.3,Win32,60.24096386,,
0,0,0.8037,0,58,58,63,1,64,orgulloso,1,REAL,FAKE,6046ac1161b60d0fc94b0000,Castellano,2025-04-30_09h15.10.565,lextale_sp,2021.2.3,Win32,60.24096386,,
1,0,1.4846,0,59,59,57,1,58,plaudir,0,REAL,FAKE,6046ac1161b60d0fc94b0000,Castellano,2025-04-30_09h15.10.565,lextale_sp,2021.2.3,Win32,60.24096386,,
0,0,1.112,0,60,60,40,1,41,rebuscar,1,REAL,FAKE,6046ac1161b60d0fc94b0000,Castellano,2025-04-30_09h15.10.565,lextale_sp,2021.2.3,Win32,60.24096386,,
1,1,1.0032,0,61,61,87,1,88,acantilado,1,REAL,FAKE,6046ac1161b60d0fc94b0000,Castellano,2025-04-30_09h15.10.565,lextale_sp,2021.2.3,Win32,60.24096386,,
1,1,0.6272,0,62,62,42,1,43,canela,1,REAL,FAKE,6046ac1161b60d0fc94b0000,Castellano,2025-04-30_09h15.10.565,lextale_sp,2021.2.3,Win32,60.24096386,,
0,1,0.9267,0,63,63,86,1,87,grodo,0,REAL,FAKE,6046ac1161b60d0fc94b0000,Castellano,2025-04-30_09h15.10.565,lextale_sp,2021.2.3,Win32,60.24096386,,
0,0,0.942,0,64,64,37,1,38,estornudar,1,REAL,FAKE,6046ac1161b60d0fc94b0000,Castellano,2025-04-30_09h15.10.565,lextale_sp,2021.2.3,Win32,60.24096386,,
1,1,0.8747,0,65,65,66,1,67,cabello,1,REAL,FAKE,6046ac1161b60d0fc94b0000,Castellano,2025-04-30_09h15.10.565,lextale_sp,2021.2.3,Win32,60.24096386,,
1,1,0.9206,0,66,66,54,1,55,nevar,1,REAL,FAKE,6046ac1161b60d0fc94b0000,Castellano,2025-04-30_09h15.10.565,lextale_sp,2021.2.3,Win32,60.24096386,,
0,0,0.687,0,67,67,5,1,6,tergiversar,1,REAL,FAKE,6046ac1161b60d0fc94b0000,Castellano,2025-04-30_09h15.10.565,lextale_sp,2021.2.3,Win32,60.24096386,,
1,0,0.8544,0,68,68,22,1,23,lampera,0,REAL,FAKE,6046ac1161b60d0fc94b0000,Castellano,2025-04-30_09h15.10.565,lextale_sp,2021.2.3,Win32,60.24096386,,
0,0,0.8355,0,69,69,39,1,40,alfombra,1,REAL,FAKE,6046ac1161b60d0fc94b0000,Castellano,2025-04-30_09h15.10.565,lextale_sp,2021.2.3,Win32,60.24096386,,
0,0,0.8298,0,70,70,80,1,81,pozo,1,REAL,FAKE,6046ac1161b60d0fc94b0000,Castellano,2025-04-30_09h15.10.565,lextale_sp,2021.2.3,Win32,60.24096386,,
0,0,0.8364,0,71,71,82,1,83,guante,1,REAL,FAKE,6046ac1161b60d0fc94b0000,Castellano,2025-04-30_09h15.10.565,lextale_sp,2021.2.3,Win32,60.24096386,,
0,0,0.5643,0,72,72,11,1,12,asesinato,1,REAL,FAKE,6046ac1161b60d0fc94b0000,Castellano,2025-04-30_09h15.10.565,lextale_sp,2021.2.3,Win32,60.24096386,,
0,1,0.6234,0,73,73,29,1,30,alardio,0,REAL,FAKE,6046ac1161b60d0fc94b0000,Castellano,2025-04-30_09h15.10.565,lextale_sp,2021.2.3,Win32,60.24096386,,
1,1,0.9719,0,74,74,51,1,52,camisa,1,REAL,FAKE,6046ac1161b60d0fc94b0000,Castellano,2025-04-30_09h15.10.565,lextale_sp,2021.2.3,Win32,60.24096386,,
1,1,0.9561,0,75,75,75,1,76,atar,1,REAL,FAKE,6046ac1161b60d0fc94b0000,Castellano,2025-04-30_09h15.10.565,lextale_sp,2021.2.3,Win32,60.24096386,,
0,0,0.8979,0,76,76,70,1,71,polvoriento,1,REAL,FAKE,6046ac1161b60d0fc94b0000,Castellano,2025-04-30_09h15.10.565,lextale_sp,2021.2.3,Win32,60.24096386,,
0,1,0.9856,0,77,77,15,1,16,abracer,0,REAL,FAKE,6046ac1161b60d0fc94b0000,Castellano,2025-04-30_09h15.10.565,lextale_sp,2021.2.3,Win32,60.24096386,,
1,1,0.6842,0,78,78,56,1,57,tacaño,1,REAL,FAKE,6046ac1161b60d0fc94b0000,Castellano,2025-04-30_09h15.10.565,lextale_sp,2021.2.3,Win32,60.24096386,,
0,1,1.1815,0,79,79,81,1,82,empirador,0,REAL,FAKE,6046ac1161b60d0fc94b0000,Castellano,2025-04-30_09h15.10.565,lextale_sp,2021.2.3,Win32,60.24096386,,
0,0,0.7098,0,80,80,84,1,85,laúd,1,REAL,FAKE,6046ac1161b60d0fc94b0000,Castellano,2025-04-30_09h15.10.565,lextale_sp,2021.2.3,Win32,60.24096386,,
1,1,0.9564,0,81,81,24,1,25,bisagra,1,REAL,FAKE,6046ac1161b60d0fc94b0000,Castellano,2025-04-30_09h15.10.565,lextale_sp,2021.2.3,Win32,60.24096386,,
1,1,0.8733,0,82,82,67,1,68,alegre,1,REAL,FAKE,6046ac1161b60d0fc94b0000,Castellano,2025-04-30_09h15.10.565,lextale_sp,2021.2.3,Win32,60.24096386,,
1,1,0.7294,0,83,83,33,1,34,aviso,1,REAL,FAKE,6046ac1161b60d0fc94b0000,Castellano,2025-04-30_09h15.10.565,lextale_sp,2021.2.3,Win32,60.24096386,,
1,1,1.3197,0,84,84,50,1,51,candado,1,REAL,FAKE,6046ac1161b60d0fc94b0000,Castellano,2025-04-30_09h15.10.565,lextale_sp,2021.2.3,Win32,60.24096386,,
1,0,1.0797,0,85,85,52,1,53,vegada,0,REAL,FAKE,6046ac1161b60d0fc94b0000,Castellano,2025-04-30_09h15.10.565,lextale_sp,2021.2.3,Win32,60.24096386,,
1,1,0.7367,0,86,86,60,1,61,seda,1,REAL,FAKE,6046ac1161b60d0fc94b0000,Castellano,2025-04-30_09h15.10.565,lextale_sp,2021.2.3,Win32,60.24096386,,
0,0,0.6452,0,87,87,55,1,56,musgo,1,REAL,FAKE,6046ac1161b60d0fc94b0000,Castellano,2025-04-30_09h15.10.565,lextale_sp,2021.2.3,Win32,60.24096386,,
0,1,0.8961,0,88,88,69,1,70,temblo,0,REAL,FAKE,6046ac1161b60d0fc94b0000,Castellano,2025-04-30_09h15.10.565,lextale_sp,2021.2.3,Win32,60.24096386,,
1,1,1.0535,0,89,89,45,1,46,martillo,1,REAL,FAKE,6046ac1161b60d0fc94b0000,Castellano,2025-04-30_09h15.10.565,lextale_sp,2021.2.3,Win32,60.24096386,,
,,,,,,,,,,,,,6046ac1161b60d0fc94b0000,Castellano,2025-04-30_09h15.10.565,lextale_sp,2021.2.3,Win32,60.24096386,space,29.3485
