lextale_instructions.started,lextale_instructions.stopped,lextale_instructions_loop.thisRepN,lextale_instructions_loop.thisTrialN,lextale_instructions_loop.thisN,lextale_instructions_loop.thisIndex,lextale_instructions_loop.ran,instructions_text,continue_text,participant,session,date,expName,psychopyVersion,OS,frameRate,lextale_practice.started,lextale_practice.stopped,key_resp_lextale_practice.keys,key_resp_lextale_practice.corr,key_resp_lextale_practice.rt,key_resp_lextale_practice.duration,lextale_practice_feedback.started,lextale_practice_feedback.stopped,lextale_practice_trials.thisRepN,lextale_practice_trials.thisTrialN,lextale_practice_trials.thisN,lextale_practice_trials.thisIndex,lextale_practice_trials.ran,stim,word,correct_response,prac_button_real,prac_button_false,lextale_check.started,lextale_check.stopped,lextale_trial.started,lextale_trial.stopped,key_resp_lextale_trial.keys,key_resp_lextale_trial.corr,key_resp_lextale_trial.rt,key_resp_lextale_trial.duration,lextail_trials.thisRepN,lextail_trials.thisTrialN,lextail_trials.thisN,lextail_trials.thisIndex,lextail_trials.ran,type,correct_reponse,button_real,button_false
0.0056,1052.0304,0,0,0,0,1,"Este es un test de vocabulario en español. 
  
  A continuación vas a ver 90 secuencias de letras que parecen 'españolas'.
  
  Solo algunas de ellas son palabras de verdad.",(presiona la barra espaciadora para continuar),5c3820ee1ede2b0001155929,001,2024-06-30_06h59.40.317,empathy_intonation_perc,2024.1.4,Win32,232.5581395,,,,,,,,,,,,,,,,,,,,,,,,,,,,,,,,,,,
1052.0309,1423.1722,0,1,1,1,1,"Por favor, señala las palabras que tú conoces (aquellas que estás convencido que son palabras españolas, incluso aunque no seas capaz de dar el significado preciso).",(presiona la barra espaciadora para continuar),5c3820ee1ede2b0001155929,001,2024-06-30_06h59.40.317,empathy_intonation_perc,2024.1.4,Win32,232.5581395,,,,,,,,,,,,,,,,,,,,,,,,,,,,,,,,,,,
1423.1725,1437.9252,0,2,2,2,1,Pero cuidado: los errores se penalizan. Por eso no tiene sentido tratar de incrementar tu puntuación marcando como reales palabras que nunca has visto.,(presiona la barra espaciadora para continuar),5c3820ee1ede2b0001155929,001,2024-06-30_06h59.40.317,empathy_intonation_perc,2024.1.4,Win32,232.5581395,,,,,,,,,,,,,,,,,,,,,,,,,,,,,,,,,,,
1437.9314,1464.2619,0,3,3,3,1,"Presiona la tecla 1 si piensas que es una palabra real y la tecla 
  0 si piensas que es una palabra falsa. 
  
  Vamos a practicar un poco...",(presiona la barra espaciadora para continuar),5c3820ee1ede2b0001155929,001,2024-06-30_06h59.40.317,empathy_intonation_perc,2024.1.4,Win32,232.5581395,,,,,,,,,,,,,,,,,,,,,,,,,,,,,,,,,,,
,,,,,,,,,5c3820ee1ede2b0001155929,001,2024-06-30_06h59.40.317,empathy_intonation_perc,2024.1.4,Win32,232.5581395,1464.2701,1471.7253,1,0,6.9426,,1471.7304,1472.7244,0,0,0,0,1,0,depiste,0,REAL,FALSA,,,,,,,,,,,,,,,,,
,,,,,,,,,5c3820ee1ede2b0001155929,001,2024-06-30_06h59.40.317,empathy_intonation_perc,2024.1.4,Win32,232.5581395,1472.725,1478.7963,1,1,5.5644,,1478.7963,1479.7976,0,1,1,1,1,0,sí,1,REAL,FALSA,,,,,,,,,,,,,,,,,
,,,,,,,,,5c3820ee1ede2b0001155929,001,2024-06-30_06h59.40.317,empathy_intonation_perc,2024.1.4,Win32,232.5581395,1479.8034,1485.9635,0,1,5.6535,,1485.9636,1486.9632,0,2,2,2,1,0,coné,0,REAL,FALSA,,,,,,,,,,,,,,,,,
,,,,,,,,,5c3820ee1ede2b0001155929,001,2024-06-30_06h59.40.317,empathy_intonation_perc,2024.1.4,Win32,232.5581395,1486.9691,1493.9563,0,1,6.4823,,1493.9563,1494.9549,0,3,3,3,1,0,calpar,0,REAL,FALSA,,,,,,,,,,,,,,,,,
,,,,,,,,,5c3820ee1ede2b0001155929,001,2024-06-30_06h59.40.317,empathy_intonation_perc,2024.1.4,Win32,232.5581395,1494.9606,1500.4773,1,0,5.006,,1500.4773,1501.4771,0,4,4,4,1,0,joten,0,REAL,FALSA,,,,,,,,,,,,,,,,,
,,,,,,,,,5c3820ee1ede2b0001155929,001,2024-06-30_06h59.40.317,empathy_intonation_perc,2024.1.4,Win32,232.5581395,1501.4825,1507.7486,1,1,5.7558,,1507.7487,1508.7482,0,5,5,5,1,0,sacapuntas,1,REAL,FALSA,,,,,,,,,,,,,,,,,
,,,,,,,,,5c3820ee1ede2b0001155929,001,2024-06-30_06h59.40.317,empathy_intonation_perc,2024.1.4,Win32,232.5581395,1508.7538,1514.516,0,1,5.2524,,1514.5161,1515.5135,0,6,6,6,1,0,priba,0,REAL,FALSA,,,,,,,,,,,,,,,,,
,,,,,,,,,5c3820ee1ede2b0001155929,001,2024-06-30_06h59.40.317,empathy_intonation_perc,2024.1.4,Win32,232.5581395,1515.5187,1522.2038,1,0,6.177,,1522.2038,1523.2034,0,7,7,7,1,0,pelasula,0,REAL,FALSA,,,,,,,,,,,,,,,,,
,,,,,,,,,5c3820ee1ede2b0001155929,001,2024-06-30_06h59.40.317,empathy_intonation_perc,2024.1.4,Win32,232.5581395,1523.2091,1526.0452,1,1,2.3312,,1526.0453,1527.0451,0,8,8,8,1,0,bien,1,REAL,FALSA,,,,,,,,,,,,,,,,,
,,,,,,,,,5c3820ee1ede2b0001155929,001,2024-06-30_06h59.40.317,empathy_intonation_perc,2024.1.4,Win32,232.5581395,1527.0501,1529.0525,1,1,1.4906,,1529.0525,1530.0482,0,9,9,9,1,0,casa,1,REAL,FALSA,,,,,,,,,,,,,,,,,
,,,,,,,,,5c3820ee1ede2b0001155929,001,2024-06-30_06h59.40.317,empathy_intonation_perc,2024.1.4,Win32,232.5581395,1530.0482,1531.5825,0,1,1.0249,,1531.5826,1532.58,0,10,10,10,1,0,lejo,0,REAL,FALSA,,,,,,,,,,,,,,,,,
,,,,,,,,,5c3820ee1ede2b0001155929,001,2024-06-30_06h59.40.317,empathy_intonation_perc,2024.1.4,Win32,232.5581395,1532.5849,1541.2069,0,1,8.1121,,1541.2069,1542.2065,0,11,11,11,1,0,pretantas,0,REAL,FALSA,,,,,,,,,,,,,,,,,
,,,,,,,,,5c3820ee1ede2b0001155929,001,2024-06-30_06h59.40.317,empathy_intonation_perc,2024.1.4,Win32,232.5581395,,,,,,,,,,,,,,,,,,,1542.2068,1551.4436,,,,,,,,,,,,,,,
,,,,,,,,,5c3820ee1ede2b0001155929,001,2024-06-30_06h59.40.317,empathy_intonation_perc,2024.1.4,Win32,232.5581395,,,,,,,,,,,,,,51,listo,,,,,,1551.4541,1556.966,1,0,5.0018,,0,0,0,50,1,non_cognate,1,REAL,FALSA
,,,,,,,,,5c3820ee1ede2b0001155929,001,2024-06-30_06h59.40.317,empathy_intonation_perc,2024.1.4,Win32,232.5581395,,,,,,,,,,,,,,4,flora,,,,,,1556.9715,1559.2521,1,0,1.7709,,0,1,1,3,1,three_way_cognate,1,REAL,FALSA
,,,,,,,,,5c3820ee1ede2b0001155929,001,2024-06-30_06h59.40.317,empathy_intonation_perc,2024.1.4,Win32,232.5581395,,,,,,,,,,,,,,183,edioso,,,,,,1559.2523,1565.8279,0,1,6.0651,,0,2,2,182,1,pseudoword,0,REAL,FALSA
,,,,,,,,,5c3820ee1ede2b0001155929,001,2024-06-30_06h59.40.317,empathy_intonation_perc,2024.1.4,Win32,232.5581395,,,,,,,,,,,,,,156,ozoso,,,,,,1565.8334,1571.5002,0,1,5.1593,,0,3,3,155,1,pseudoword,0,REAL,FALSA
,,,,,,,,,5c3820ee1ede2b0001155929,001,2024-06-30_06h59.40.317,empathy_intonation_perc,2024.1.4,Win32,232.5581395,,,,,,,,,,,,,,30,fiscal,,,,,,1571.5054,1572.9661,1,0,0.95,,0,4,4,29,1,two_way_cognate,1,REAL,FALSA
,,,,,,,,,5c3820ee1ede2b0001155929,001,2024-06-30_06h59.40.317,empathy_intonation_perc,2024.1.4,Win32,232.5581395,,,,,,,,,,,,,,84,aviso,,,,,,1572.9665,1575.4441,1,0,1.9661,,0,5,5,83,1,non_cognate,1,REAL,FALSA
,,,,,,,,,5c3820ee1ede2b0001155929,001,2024-06-30_06h59.40.317,empathy_intonation_perc,2024.1.4,Win32,232.5581395,,,,,,,,,,,,,,181,gravés,,,,,,1575.4444,1583.3109,1,0,7.3535,,0,6,6,180,1,pseudoword,0,REAL,FALSA
,,,,,,,,,5c3820ee1ede2b0001155929,001,2024-06-30_06h59.40.317,empathy_intonation_perc,2024.1.4,Win32,232.5581395,,,,,,,,,,,,,,169,pitis,,,,,,1583.3165,1590.7656,0,1,6.9377,,0,7,7,168,1,pseudoword,0,REAL,FALSA
,,,,,,,,,5c3820ee1ede2b0001155929,001,2024-06-30_06h59.40.317,empathy_intonation_perc,2024.1.4,Win32,232.5581395,,,,,,,,,,,,,,14,aura,,,,,,1590.7715,1592.1274,1,0,0.8484,,0,8,8,13,1,three_way_cognate,1,REAL,FALSA
,,,,,,,,,5c3820ee1ede2b0001155929,001,2024-06-30_06h59.40.317,empathy_intonation_perc,2024.1.4,Win32,232.5581395,,,,,,,,,,,,,,98,martir,,,,,,1592.1276,1601.601,1,0,8.9675,,0,9,9,97,1,pseudoword,0,REAL,FALSA
,,,,,,,,,5c3820ee1ede2b0001155929,001,2024-06-30_06h59.40.317,empathy_intonation_perc,2024.1.4,Win32,232.5581395,,,,,,,,,,,,,,99,bugor,,,,,,1601.6064,1609.1189,0,1,7.0013,,0,10,10,98,1,pseudoword,0,REAL,FALSA
,,,,,,,,,5c3820ee1ede2b0001155929,001,2024-06-30_06h59.40.317,empathy_intonation_perc,2024.1.4,Win32,232.5581395,,,,,,,,,,,,,,35,aurora,,,,,,1609.1247,1612.1008,1,0,2.4707,,0,11,11,34,1,two_way_cognate,1,REAL,FALSA
,,,,,,,,,5c3820ee1ede2b0001155929,001,2024-06-30_06h59.40.317,empathy_intonation_perc,2024.1.4,Win32,232.5581395,,,,,,,,,,,,,,62,pegar,,,,,,1612.1063,1617.9085,0,1,5.2924,,0,12,12,61,1,non_cognate,1,REAL,FALSA
,,,,,,,,,5c3820ee1ede2b0001155929,001,2024-06-30_06h59.40.317,empathy_intonation_perc,2024.1.4,Win32,232.5581395,,,,,,,,,,,,,,52,blando,,,,,,1617.9136,1621.6403,1,0,3.2198,,0,13,13,51,1,non_cognate,1,REAL,FALSA
,,,,,,,,,5c3820ee1ede2b0001155929,001,2024-06-30_06h59.40.317,empathy_intonation_perc,2024.1.4,Win32,232.5581395,,,,,,,,,,,,,,23,plural,,,,,,1621.6454,1623.7157,1,0,1.5629,,0,14,14,22,1,three_way_cognate,1,REAL,FALSA
,,,,,,,,,5c3820ee1ede2b0001155929,001,2024-06-30_06h59.40.317,empathy_intonation_perc,2024.1.4,Win32,232.5581395,,,,,,,,,,,,,,39,casual,,,,,,1623.7159,1624.9985,1,0,0.7707,,0,15,15,38,1,two_way_cognate,1,REAL,FALSA
,,,,,,,,,5c3820ee1ede2b0001155929,001,2024-06-30_06h59.40.317,empathy_intonation_perc,2024.1.4,Win32,232.5581395,,,,,,,,,,,,,,79,suelo,,,,,,1624.9988,1631.2454,1,0,5.7377,,0,16,16,78,1,non_cognate,1,REAL,FALSA
,,,,,,,,,5c3820ee1ede2b0001155929,001,2024-06-30_06h59.40.317,empathy_intonation_perc,2024.1.4,Win32,232.5581395,,,,,,,,,,,,,,187,nomata,,,,,,1631.2508,1638.0632,1,0,6.3035,,0,17,17,186,1,pseudoword,0,REAL,FALSA
,,,,,,,,,5c3820ee1ede2b0001155929,001,2024-06-30_06h59.40.317,empathy_intonation_perc,2024.1.4,Win32,232.5581395,,,,,,,,,,,,,,9,portal,,,,,,1638.0687,1639.4039,1,0,0.8282,,0,18,18,8,1,three_way_cognate,1,REAL,FALSA
,,,,,,,,,5c3820ee1ede2b0001155929,001,2024-06-30_06h59.40.317,empathy_intonation_perc,2024.1.4,Win32,232.5581395,,,,,,,,,,,,,,116,grigir,,,,,,1639.404,1640.924,0,1,1.0084,,0,19,19,115,1,pseudoword,0,REAL,FALSA
,,,,,,,,,5c3820ee1ede2b0001155929,001,2024-06-30_06h59.40.317,empathy_intonation_perc,2024.1.4,Win32,232.5581395,,,,,,,,,,,,,,45,total,,,,,,1640.9242,1642.0774,1,0,0.6407,,0,20,20,44,1,two_way_cognate,1,REAL,FALSA
,,,,,,,,,5c3820ee1ede2b0001155929,001,2024-06-30_06h59.40.317,empathy_intonation_perc,2024.1.4,Win32,232.5581395,,,,,,,,,,,,,,97,nocita,,,,,,1642.0776,1650.3194,0,1,7.7338,,0,21,21,96,1,pseudoword,0,REAL,FALSA
,,,,,,,,,5c3820ee1ede2b0001155929,001,2024-06-30_06h59.40.317,empathy_intonation_perc,2024.1.4,Win32,232.5581395,,,,,,,,,,,,,,48,pelvis,,,,,,1650.3251,1651.6351,1,0,0.8013,,0,22,22,47,1,two_way_cognate,1,REAL,FALSA
,,,,,,,,,5c3820ee1ede2b0001155929,001,2024-06-30_06h59.40.317,empathy_intonation_perc,2024.1.4,Win32,232.5581395,,,,,,,,,,,,,,132,nocó,,,,,,1651.6354,1660.1726,0,1,8.0251,,0,23,23,131,1,pseudoword,0,REAL,FALSA
,,,,,,,,,5c3820ee1ede2b0001155929,001,2024-06-30_06h59.40.317,empathy_intonation_perc,2024.1.4,Win32,232.5581395,,,,,,,,,,,,,,115,lidena,,,,,,1660.1789,1668.1334,0,1,7.4464,,0,24,24,114,1,pseudoword,0,REAL,FALSA
,,,,,,,,,5c3820ee1ede2b0001155929,001,2024-06-30_06h59.40.317,empathy_intonation_perc,2024.1.4,Win32,232.5581395,,,,,,,,,,,,,,138,tator,,,,,,1668.1385,1669.5263,1,0,0.8791,,0,25,25,137,1,pseudoword,0,REAL,FALSA
,,,,,,,,,5c3820ee1ede2b0001155929,001,2024-06-30_06h59.40.317,empathy_intonation_perc,2024.1.4,Win32,232.5581395,,,,,,,,,,,,,,94,forro,,,,,,1669.5265,1680.8456,1,0,10.8119,,0,26,26,93,1,non_cognate,1,REAL,FALSA
,,,,,,,,,5c3820ee1ede2b0001155929,001,2024-06-30_06h59.40.317,empathy_intonation_perc,2024.1.4,Win32,232.5581395,,,,,,,,,,,,,,68,puñal,,,,,,1680.8512,1695.4216,1,0,14.0543,,0,27,27,67,1,non_cognate,1,REAL,FALSA
,,,,,,,,,5c3820ee1ede2b0001155929,001,2024-06-30_06h59.40.317,empathy_intonation_perc,2024.1.4,Win32,232.5581395,,,,,,,,,,,,,,101,losco,,,,,,1695.4275,1702.9077,1,0,6.9713,,0,28,28,100,1,pseudoword,0,REAL,FALSA
,,,,,,,,,5c3820ee1ede2b0001155929,001,2024-06-30_06h59.40.317,empathy_intonation_perc,2024.1.4,Win32,232.5581395,,,,,,,,,,,,,,180,pupica,,,,,,1702.9126,1709.6605,0,1,6.2389,,0,29,29,179,1,pseudoword,0,REAL,FALSA
,,,,,,,,,5c3820ee1ede2b0001155929,001,2024-06-30_06h59.40.317,empathy_intonation_perc,2024.1.4,Win32,232.5581395,,,,,,,,,,,,,,139,sasos,,,,,,1709.6665,1717.4213,0,1,7.2465,,0,30,30,138,1,pseudoword,0,REAL,FALSA
,,,,,,,,,5c3820ee1ede2b0001155929,001,2024-06-30_06h59.40.317,empathy_intonation_perc,2024.1.4,Win32,232.5581395,,,,,,,,,,,,,,149,emén,,,,,,1717.4265,1718.6394,1,0,0.7067,,0,31,31,148,1,pseudoword,0,REAL,FALSA
,,,,,,,,,5c3820ee1ede2b0001155929,001,2024-06-30_06h59.40.317,empathy_intonation_perc,2024.1.4,Win32,232.5581395,,,,,,,,,,,,,,118,bará,,,,,,1718.6399,1723.5076,1,0,4.3576,,0,32,32,117,1,pseudoword,0,REAL,FALSA
,,,,,,,,,5c3820ee1ede2b0001155929,001,2024-06-30_06h59.40.317,empathy_intonation_perc,2024.1.4,Win32,232.5581395,,,,,,,,,,,,,,24,retina,,,,,,1723.5132,1726.223,1,0,2.1984,,0,33,33,23,1,three_way_cognate,1,REAL,FALSA
,,,,,,,,,5c3820ee1ede2b0001155929,001,2024-06-30_06h59.40.317,empathy_intonation_perc,2024.1.4,Win32,232.5581395,,,,,,,,,,,,,,189,medium,,,,,,1726.2233,1727.4766,1,0,0.7395,,0,34,34,188,1,pseudoword,0,REAL,FALSA
,,,,,,,,,5c3820ee1ede2b0001155929,001,2024-06-30_06h59.40.317,empathy_intonation_perc,2024.1.4,Win32,232.5581395,,,,,,,,,,,,,,2,tumor,,,,,,1727.4769,1728.8217,1,0,0.8317,,0,35,35,1,1,three_way_cognate,1,REAL,FALSA
,,,,,,,,,5c3820ee1ede2b0001155929,001,2024-06-30_06h59.40.317,empathy_intonation_perc,2024.1.4,Win32,232.5581395,,,,,,,,,,,,,,28,ardor,,,,,,1728.8218,1730.2709,1,0,0.938,,0,36,36,27,1,two_way_cognate,1,REAL,FALSA
,,,,,,,,,5c3820ee1ede2b0001155929,001,2024-06-30_06h59.40.317,empathy_intonation_perc,2024.1.4,Win32,232.5581395,,,,,,,,,,,,,,33,collar,,,,,,1730.2712,1731.6787,1,0,0.8955,,0,37,37,32,1,two_way_cognate,1,REAL,FALSA
,,,,,,,,,5c3820ee1ede2b0001155929,001,2024-06-30_06h59.40.317,empathy_intonation_perc,2024.1.4,Win32,232.5581395,,,,,,,,,,,,,,172,dogue,,,,,,1731.6788,1736.8511,1,0,4.6657,,0,38,38,171,1,pseudoword,0,REAL,FALSA
,,,,,,,,,5c3820ee1ede2b0001155929,001,2024-06-30_06h59.40.317,empathy_intonation_perc,2024.1.4,Win32,232.5581395,,,,,,,,,,,,,,117,morrá,,,,,,1736.8565,1741.782,1,0,4.4143,,0,39,39,116,1,pseudoword,0,REAL,FALSA
,,,,,,,,,5c3820ee1ede2b0001155929,001,2024-06-30_06h59.40.317,empathy_intonation_perc,2024.1.4,Win32,232.5581395,,,,,,,,,,,,,,38,halo,,,,,,1741.7873,1743.8227,1,0,1.5219,,0,40,40,37,1,two_way_cognate,1,REAL,FALSA
,,,,,,,,,5c3820ee1ede2b0001155929,001,2024-06-30_06h59.40.317,empathy_intonation_perc,2024.1.4,Win32,232.5581395,,,,,,,,,,,,,,43,honor,,,,,,1743.8229,1747.4062,1,0,3.0736,,0,41,41,42,1,two_way_cognate,1,REAL,FALSA
,,,,,,,,,5c3820ee1ede2b0001155929,001,2024-06-30_06h59.40.317,empathy_intonation_perc,2024.1.4,Win32,232.5581395,,,,,,,,,,,,,,29,clamor,,,,,,1747.4064,1748.7828,1,0,0.8664,,0,42,42,28,1,two_way_cognate,1,REAL,FALSA
,,,,,,,,,5c3820ee1ede2b0001155929,001,2024-06-30_06h59.40.317,empathy_intonation_perc,2024.1.4,Win32,232.5581395,,,,,,,,,,,,,,151,prías,,,,,,1748.7829,1754.1883,1,0,4.8942,,0,43,43,150,1,pseudoword,0,REAL,FALSA
,,,,,,,,,5c3820ee1ede2b0001155929,001,2024-06-30_06h59.40.317,empathy_intonation_perc,2024.1.4,Win32,232.5581395,,,,,,,,,,,,,,88,percha,,,,,,1754.1939,1760.8601,0,1,6.1565,,0,44,44,87,1,non_cognate,1,REAL,FALSA
,,,,,,,,,5c3820ee1ede2b0001155929,001,2024-06-30_06h59.40.317,empathy_intonation_perc,2024.1.4,Win32,232.5581395,,,,,,,,,,,,,,15,test,,,,,,1760.8657,1762.1509,1,0,0.7744,,0,45,45,14,1,three_way_cognate,1,REAL,FALSA
,,,,,,,,,5c3820ee1ede2b0001155929,001,2024-06-30_06h59.40.317,empathy_intonation_perc,2024.1.4,Win32,232.5581395,,,,,,,,,,,,,,75,patada,,,,,,1762.1515,1767.4047,1,0,4.7432,,0,46,46,74,1,non_cognate,1,REAL,FALSA
,,,,,,,,,5c3820ee1ede2b0001155929,001,2024-06-30_06h59.40.317,empathy_intonation_perc,2024.1.4,Win32,232.5581395,,,,,,,,,,,,,,46,mortal,,,,,,1767.4098,1768.831,1,0,0.9116,,0,47,47,45,1,two_way_cognate,1,REAL,FALSA
,,,,,,,,,5c3820ee1ede2b0001155929,001,2024-06-30_06h59.40.317,empathy_intonation_perc,2024.1.4,Win32,232.5581395,,,,,,,,,,,,,,108,jauda,,,,,,1768.8312,1775.4694,1,0,6.1262,,0,48,48,107,1,pseudoword,0,REAL,FALSA
,,,,,,,,,5c3820ee1ede2b0001155929,001,2024-06-30_06h59.40.317,empathy_intonation_perc,2024.1.4,Win32,232.5581395,,,,,,,,,,,,,,159,trcia,,,,,,1775.4751,1779.9672,0,1,3.9842,,0,49,49,158,1,pseudoword,0,REAL,FALSA
,,,,,,,,,5c3820ee1ede2b0001155929,001,2024-06-30_06h59.40.317,empathy_intonation_perc,2024.1.4,Win32,232.5581395,,,,,,,,,,,,,,182,desaro,,,,,,1779.9729,1786.0288,0,1,5.5472,,0,50,50,181,1,pseudoword,0,REAL,FALSA
,,,,,,,,,5c3820ee1ede2b0001155929,001,2024-06-30_06h59.40.317,empathy_intonation_perc,2024.1.4,Win32,232.5581395,,,,,,,,,,,,,,5,extra,,,,,,1786.0338,1788.0381,1,0,1.4985,,0,51,51,4,1,three_way_cognate,1,REAL,FALSA
,,,,,,,,,5c3820ee1ede2b0001155929,001,2024-06-30_06h59.40.317,empathy_intonation_perc,2024.1.4,Win32,232.5581395,,,,,,,,,,,,,,171,gotro,,,,,,1788.0384,1895.7511,0,1,107.2009,,0,52,52,170,1,pseudoword,0,REAL,FALSA
,,,,,,,,,5c3820ee1ede2b0001155929,001,2024-06-30_06h59.40.317,empathy_intonation_perc,2024.1.4,Win32,232.5581395,,,,,,,,,,,,,,128,pelí,,,,,,1895.7572,1897.2545,1,0,0.9824,,0,53,53,127,1,pseudoword,0,REAL,FALSA
,,,,,,,,,5c3820ee1ede2b0001155929,001,2024-06-30_06h59.40.317,empathy_intonation_perc,2024.1.4,Win32,232.5581395,,,,,,,,,,,,,,144,diroco,,,,,,1897.2548,1900.203,0,1,2.4381,,0,54,54,143,1,pseudoword,0,REAL,FALSA
,,,,,,,,,5c3820ee1ede2b0001155929,001,2024-06-30_06h59.40.317,empathy_intonation_perc,2024.1.4,Win32,232.5581395,,,,,,,,,,,,,,37,torso,,,,,,1900.2085,1901.3648,1,0,0.6449,,0,55,55,36,1,two_way_cognate,1,REAL,FALSA
,,,,,,,,,5c3820ee1ede2b0001155929,001,2024-06-30_06h59.40.317,empathy_intonation_perc,2024.1.4,Win32,232.5581395,,,,,,,,,,,,,,53,punta,,,,,,1901.365,1902.5975,1,0,0.72,,0,56,56,52,1,non_cognate,1,REAL,FALSA
,,,,,,,,,5c3820ee1ede2b0001155929,001,2024-06-30_06h59.40.317,empathy_intonation_perc,2024.1.4,Win32,232.5581395,,,,,,,,,,,,,,12,dogma,,,,,,1902.5977,1903.9468,1,0,0.8426,,0,57,57,11,1,three_way_cognate,1,REAL,FALSA
,,,,,,,,,5c3820ee1ede2b0001155929,001,2024-06-30_06h59.40.317,empathy_intonation_perc,2024.1.4,Win32,232.5581395,,,,,,,,,,,,,,166,anfia,,,,,,1903.9471,1905.3816,0,1,0.9243,,0,58,58,165,1,pseudoword,0,REAL,FALSA
,,,,,,,,,5c3820ee1ede2b0001155929,001,2024-06-30_06h59.40.317,empathy_intonation_perc,2024.1.4,Win32,232.5581395,,,,,,,,,,,,,,61,aduana,,,,,,1905.3818,1908.3031,0,1,2.4144,,0,59,59,60,1,non_cognate,1,REAL,FALSA
,,,,,,,,,5c3820ee1ede2b0001155929,001,2024-06-30_06h59.40.317,empathy_intonation_perc,2024.1.4,Win32,232.5581395,,,,,,,,,,,,,,21,hotel,,,,,,1908.3085,1909.3757,1,0,0.5611,,0,60,60,20,1,three_way_cognate,1,REAL,FALSA
,,,,,,,,,5c3820ee1ede2b0001155929,001,2024-06-30_06h59.40.317,empathy_intonation_perc,2024.1.4,Win32,232.5581395,,,,,,,,,,,,,,3,disco,,,,,,1909.3758,1910.4207,1,0,0.537,,0,61,61,2,1,three_way_cognate,1,REAL,FALSA
,,,,,,,,,5c3820ee1ede2b0001155929,001,2024-06-30_06h59.40.317,empathy_intonation_perc,2024.1.4,Win32,232.5581395,,,,,,,,,,,,,,77,suave,,,,,,1910.4209,1911.5557,1,0,0.6258,,0,62,62,76,1,non_cognate,1,REAL,FALSA
,,,,,,,,,5c3820ee1ede2b0001155929,001,2024-06-30_06h59.40.317,empathy_intonation_perc,2024.1.4,Win32,232.5581395,,,,,,,,,,,,,,60,siglo,,,,,,1911.556,1913.8614,1,0,1.7932,,0,63,63,59,1,non_cognate,1,REAL,FALSA
,,,,,,,,,5c3820ee1ede2b0001155929,001,2024-06-30_06h59.40.317,empathy_intonation_perc,2024.1.4,Win32,232.5581395,,,,,,,,,,,,,,123,arane,,,,,,1913.8669,1915.3723,0,1,0.9948,,0,64,64,122,1,pseudoword,0,REAL,FALSA
,,,,,,,,,5c3820ee1ede2b0001155929,001,2024-06-30_06h59.40.317,empathy_intonation_perc,2024.1.4,Win32,232.5581395,,,,,,,,,,,,,,36,viable,,,,,,1915.3726,1916.5325,1,0,0.6535,,0,65,65,35,1,two_way_cognate,1,REAL,FALSA
,,,,,,,,,5c3820ee1ede2b0001155929,001,2024-06-30_06h59.40.317,empathy_intonation_perc,2024.1.4,Win32,232.5581395,,,,,,,,,,,,,,19,mafia,,,,,,1916.5327,1917.6813,1,0,0.6386,,0,66,66,18,1,three_way_cognate,1,REAL,FALSA
,,,,,,,,,5c3820ee1ede2b0001155929,001,2024-06-30_06h59.40.317,empathy_intonation_perc,2024.1.4,Win32,232.5581395,,,,,,,,,,,,,,40,pelvis,,,,,,1917.6814,1918.7895,1,0,0.5956,,0,67,67,39,1,two_way_cognate,1,REAL,FALSA
,,,,,,,,,5c3820ee1ede2b0001155929,001,2024-06-30_06h59.40.317,empathy_intonation_perc,2024.1.4,Win32,232.5581395,,,,,,,,,,,,,,32,animal,,,,,,1918.7897,1919.8431,1,0,0.5432,,0,68,68,31,1,two_way_cognate,1,REAL,FALSA
,,,,,,,,,5c3820ee1ede2b0001155929,001,2024-06-30_06h59.40.317,empathy_intonation_perc,2024.1.4,Win32,232.5581395,,,,,,,,,,,,,,192,próces,,,,,,1919.8433,1921.8365,1,0,1.4831,,0,69,69,191,1,pseudoword,0,REAL,FALSA
,,,,,,,,,5c3820ee1ede2b0001155929,001,2024-06-30_06h59.40.317,empathy_intonation_perc,2024.1.4,Win32,232.5581395,,,,,,,,,,,,,,91,equipo,,,,,,1921.8367,1923.1252,1,0,0.7845,,0,70,70,90,1,non_cognate,1,REAL,FALSA
,,,,,,,,,5c3820ee1ede2b0001155929,001,2024-06-30_06h59.40.317,empathy_intonation_perc,2024.1.4,Win32,232.5581395,,,,,,,,,,,,,,104,estulo,,,,,,1923.1258,1924.5326,1,0,0.8959,,0,71,71,103,1,pseudoword,0,REAL,FALSA
,,,,,,,,,5c3820ee1ede2b0001155929,001,2024-06-30_06h59.40.317,empathy_intonation_perc,2024.1.4,Win32,232.5581395,,,,,,,,,,,,,,176,gripar,,,,,,1924.5328,1926.2882,0,1,1.2497,,0,72,72,175,1,pseudoword,0,REAL,FALSA
,,,,,,,,,5c3820ee1ede2b0001155929,001,2024-06-30_06h59.40.317,empathy_intonation_perc,2024.1.4,Win32,232.5581395,,,,,,,,,,,,,,58,colcha,,,,,,1926.2883,1928.439,0,1,1.6438,,0,73,73,57,1,non_cognate,1,REAL,FALSA
,,,,,,,,,5c3820ee1ede2b0001155929,001,2024-06-30_06h59.40.317,empathy_intonation_perc,2024.1.4,Win32,232.5581395,,,,,,,,,,,,,,64,rizado,,,,,,1928.4393,1929.7966,0,1,0.8459,,0,74,74,63,1,non_cognate,1,REAL,FALSA
,,,,,,,,,5c3820ee1ede2b0001155929,001,2024-06-30_06h59.40.317,empathy_intonation_perc,2024.1.4,Win32,232.5581395,,,,,,,,,,,,,,142,parre,,,,,,1929.797,1931.2192,1,0,0.9124,,0,75,75,141,1,pseudoword,0,REAL,FALSA
,,,,,,,,,5c3820ee1ede2b0001155929,001,2024-06-30_06h59.40.317,empathy_intonation_perc,2024.1.4,Win32,232.5581395,,,,,,,,,,,,,,111,monue,,,,,,1931.2194,1933.0449,1,0,1.3191,,0,76,76,110,1,pseudoword,0,REAL,FALSA
,,,,,,,,,5c3820ee1ede2b0001155929,001,2024-06-30_06h59.40.317,empathy_intonation_perc,2024.1.4,Win32,232.5581395,,,,,,,,,,,,,,146,gió,,,,,,1933.0453,1934.91,1,0,1.355,,0,77,77,145,1,pseudoword,0,REAL,FALSA
,,,,,,,,,5c3820ee1ede2b0001155929,001,2024-06-30_06h59.40.317,empathy_intonation_perc,2024.1.4,Win32,232.5581395,,,,,,,,,,,,,,168,cobén,,,,,,1934.9102,1947.5336,0,1,12.111,,0,78,78,167,1,pseudoword,0,REAL,FALSA
,,,,,,,,,5c3820ee1ede2b0001155929,001,2024-06-30_06h59.40.317,empathy_intonation_perc,2024.1.4,Win32,232.5581395,,,,,,,,,,,,,,190,asumie,,,,,,1947.5393,1953.543,1,0,5.496,,0,79,79,189,1,pseudoword,0,REAL,FALSA
,,,,,,,,,5c3820ee1ede2b0001155929,001,2024-06-30_06h59.40.317,empathy_intonation_perc,2024.1.4,Win32,232.5581395,,,,,,,,,,,,,,44,editor,,,,,,1953.5484,1955.5257,1,0,1.4665,,0,80,80,43,1,two_way_cognate,1,REAL,FALSA
,,,,,,,,,5c3820ee1ede2b0001155929,001,2024-06-30_06h59.40.317,empathy_intonation_perc,2024.1.4,Win32,232.5581395,,,,,,,,,,,,,,122,boñaz,,,,,,1955.5259,1960.0357,0,1,4.0042,,0,81,81,121,1,pseudoword,0,REAL,FALSA
,,,,,,,,,5c3820ee1ede2b0001155929,001,2024-06-30_06h59.40.317,empathy_intonation_perc,2024.1.4,Win32,232.5581395,,,,,,,,,,,,,,17,clan,,,,,,1960.0412,1961.3724,1,0,0.8206,,0,82,82,16,1,three_way_cognate,1,REAL,FALSA
,,,,,,,,,5c3820ee1ede2b0001155929,001,2024-06-30_06h59.40.317,empathy_intonation_perc,2024.1.4,Win32,232.5581395,,,,,,,,,,,,,,34,actor,,,,,,1961.3726,1962.5012,1,0,0.6167,,0,83,83,33,1,two_way_cognate,1,REAL,FALSA
,,,,,,,,,5c3820ee1ede2b0001155929,001,2024-06-30_06h59.40.317,empathy_intonation_perc,2024.1.4,Win32,232.5581395,,,,,,,,,,,,,,85,enorme,,,,,,1962.5015,1967.3726,1,0,4.3613,,0,84,84,84,1,non_cognate,1,REAL,FALSA
,,,,,,,,,5c3820ee1ede2b0001155929,001,2024-06-30_06h59.40.317,empathy_intonation_perc,2024.1.4,Win32,232.5581395,,,,,,,,,,,,,,121,barbs,,,,,,1967.3776,1973.404,1,0,5.5149,,0,85,85,120,1,pseudoword,0,REAL,FALSA
,,,,,,,,,5c3820ee1ede2b0001155929,001,2024-06-30_06h59.40.317,empathy_intonation_perc,2024.1.4,Win32,232.5581395,,,,,,,,,,,,,,134,molor,,,,,,1973.4097,1977.8352,1,0,3.9146,,0,86,86,133,1,pseudoword,0,REAL,FALSA
,,,,,,,,,5c3820ee1ede2b0001155929,001,2024-06-30_06h59.40.317,empathy_intonation_perc,2024.1.4,Win32,232.5581395,,,,,,,,,,,,,,161,civas,,,,,,1977.8412,1982.8534,0,1,4.5048,,0,87,87,160,1,pseudoword,0,REAL,FALSA
,,,,,,,,,5c3820ee1ede2b0001155929,001,2024-06-30_06h59.40.317,empathy_intonation_perc,2024.1.4,Win32,232.5581395,,,,,,,,,,,,,,7,albino,,,,,,1982.8589,1984.453,1,0,1.0832,,0,88,88,6,1,three_way_cognate,1,REAL,FALSA
,,,,,,,,,5c3820ee1ede2b0001155929,001,2024-06-30_06h59.40.317,empathy_intonation_perc,2024.1.4,Win32,232.5581395,,,,,,,,,,,,,,150,cricó,,,,,,1984.4534,1989.8292,0,1,4.8645,,0,89,89,149,1,pseudoword,0,REAL,FALSA
,,,,,,,,,5c3820ee1ede2b0001155929,001,2024-06-30_06h59.40.317,empathy_intonation_perc,2024.1.4,Win32,232.5581395,,,,,,,,,,,,,,42,rumor,,,,,,1989.8348,1991.6365,1,0,1.2926,,0,90,90,41,1,two_way_cognate,1,REAL,FALSA
,,,,,,,,,5c3820ee1ede2b0001155929,001,2024-06-30_06h59.40.317,empathy_intonation_perc,2024.1.4,Win32,232.5581395,,,,,,,,,,,,,,74,ala,,,,,,1991.6367,1995.6221,0,1,3.4773,,0,91,91,73,1,non_cognate,1,REAL,FALSA
,,,,,,,,,5c3820ee1ede2b0001155929,001,2024-06-30_06h59.40.317,empathy_intonation_perc,2024.1.4,Win32,232.5581395,,,,,,,,,,,,,,78,rendir,,,,,,1995.6277,2001.6191,1,0,5.48,,0,92,92,77,1,non_cognate,1,REAL,FALSA
,,,,,,,,,5c3820ee1ede2b0001155929,001,2024-06-30_06h59.40.317,empathy_intonation_perc,2024.1.4,Win32,232.5581395,,,,,,,,,,,,,,143,hurcos,,,,,,2001.6246,2006.5008,0,1,4.3671,,0,93,93,142,1,pseudoword,0,REAL,FALSA
,,,,,,,,,5c3820ee1ede2b0001155929,001,2024-06-30_06h59.40.317,empathy_intonation_perc,2024.1.4,Win32,232.5581395,,,,,,,,,,,,,,54,tapón,,,,,,2006.506,2011.8348,1,0,4.8201,,0,94,94,53,1,non_cognate,1,REAL,FALSA
,,,,,,,,,5c3820ee1ede2b0001155929,001,2024-06-30_06h59.40.317,empathy_intonation_perc,2024.1.4,Win32,232.5581395,,,,,,,,,,,,,,140,chorde,,,,,,2011.8403,2017.2112,0,1,4.8616,,0,95,95,139,1,pseudoword,0,REAL,FALSA
,,,,,,,,,5c3820ee1ede2b0001155929,001,2024-06-30_06h59.40.317,empathy_intonation_perc,2024.1.4,Win32,232.5581395,,,,,,,,,,,,,,106,diebro,,,,,,2017.2167,2023.6691,0,1,5.9476,,0,96,96,105,1,pseudoword,0,REAL,FALSA
,,,,,,,,,5c3820ee1ede2b0001155929,001,2024-06-30_06h59.40.317,empathy_intonation_perc,2024.1.4,Win32,232.5581395,,,,,,,,,,,,,,86,cuenco,,,,,,2023.6755,2028.9429,1,0,4.7562,,0,97,97,85,1,non_cognate,1,REAL,FALSA
,,,,,,,,,5c3820ee1ede2b0001155929,001,2024-06-30_06h59.40.317,empathy_intonation_perc,2024.1.4,Win32,232.5581395,,,,,,,,,,,,,,18,altar,,,,,,2028.9485,2030.2275,1,0,0.7701,,0,98,98,17,1,three_way_cognate,1,REAL,FALSA
,,,,,,,,,5c3820ee1ede2b0001155929,001,2024-06-30_06h59.40.317,empathy_intonation_perc,2024.1.4,Win32,232.5581395,,,,,,,,,,,,,,170,diabo,,,,,,2030.2276,2038.4216,1,0,7.6845,,0,99,99,169,1,pseudoword,0,REAL,FALSA
,,,,,,,,,5c3820ee1ede2b0001155929,001,2024-06-30_06h59.40.317,empathy_intonation_perc,2024.1.4,Win32,232.5581395,,,,,,,,,,,,,,186,rizate,,,,,,2038.4275,2043.6606,1,0,4.7277,,0,100,100,185,1,pseudoword,0,REAL,FALSA
,,,,,,,,,5c3820ee1ede2b0001155929,001,2024-06-30_06h59.40.317,empathy_intonation_perc,2024.1.4,Win32,232.5581395,,,,,,,,,,,,,,179,suelet,,,,,,2043.666,2048.4375,0,1,4.2603,,0,101,101,178,1,pseudoword,0,REAL,FALSA
,,,,,,,,,5c3820ee1ede2b0001155929,001,2024-06-30_06h59.40.317,empathy_intonation_perc,2024.1.4,Win32,232.5581395,,,,,,,,,,,,,,155,kugis,,,,,,2048.4431,2053.8515,0,1,4.8994,,0,102,102,154,1,pseudoword,0,REAL,FALSA
,,,,,,,,,5c3820ee1ede2b0001155929,001,2024-06-30_06h59.40.317,empathy_intonation_perc,2024.1.4,Win32,232.5581395,,,,,,,,,,,,,,16,chat,,,,,,2053.8572,2055.7962,1,0,1.43,,0,103,103,15,1,three_way_cognate,1,REAL,FALSA
,,,,,,,,,5c3820ee1ede2b0001155929,001,2024-06-30_06h59.40.317,empathy_intonation_perc,2024.1.4,Win32,232.5581395,,,,,,,,,,,,,,73,llevar,,,,,,2055.7965,2060.7563,1,0,4.4483,,0,104,104,72,1,non_cognate,1,REAL,FALSA
,,,,,,,,,5c3820ee1ede2b0001155929,001,2024-06-30_06h59.40.317,empathy_intonation_perc,2024.1.4,Win32,232.5581395,,,,,,,,,,,,,,184,huenos,,,,,,2060.7616,2066.4118,0,1,5.1408,,0,105,105,183,1,pseudoword,0,REAL,FALSA
,,,,,,,,,5c3820ee1ede2b0001155929,001,2024-06-30_06h59.40.317,empathy_intonation_perc,2024.1.4,Win32,232.5581395,,,,,,,,,,,,,,124,lobe,,,,,,2066.4175,2067.8862,1,0,0.963,,0,106,106,123,1,pseudoword,0,REAL,FALSA
,,,,,,,,,5c3820ee1ede2b0001155929,001,2024-06-30_06h59.40.317,empathy_intonation_perc,2024.1.4,Win32,232.5581395,,,,,,,,,,,,,,31,civil,,,,,,2067.8864,2069.148,1,0,0.7504,,0,107,107,30,1,two_way_cognate,1,REAL,FALSA
,,,,,,,,,5c3820ee1ede2b0001155929,001,2024-06-30_06h59.40.317,empathy_intonation_perc,2024.1.4,Win32,232.5581395,,,,,,,,,,,,,,157,seled,,,,,,2069.1482,2074.187,0,1,4.528,,0,108,108,156,1,pseudoword,0,REAL,FALSA
,,,,,,,,,5c3820ee1ede2b0001155929,001,2024-06-30_06h59.40.317,empathy_intonation_perc,2024.1.4,Win32,232.5581395,,,,,,,,,,,,,,175,tradía,,,,,,2074.1924,2079.422,1,0,4.7183,,0,109,109,174,1,pseudoword,0,REAL,FALSA
,,,,,,,,,5c3820ee1ede2b0001155929,001,2024-06-30_06h59.40.317,empathy_intonation_perc,2024.1.4,Win32,232.5581395,,,,,,,,,,,,,,173,mibro,,,,,,2079.4274,2085.5023,0,1,5.5641,,0,110,110,172,1,pseudoword,0,REAL,FALSA
,,,,,,,,,5c3820ee1ede2b0001155929,001,2024-06-30_06h59.40.317,empathy_intonation_perc,2024.1.4,Win32,232.5581395,,,,,,,,,,,,,,153,golla,,,,,,2085.5079,2091.6702,0,1,5.6512,,0,111,111,152,1,pseudoword,0,REAL,FALSA
,,,,,,,,,5c3820ee1ede2b0001155929,001,2024-06-30_06h59.40.317,empathy_intonation_perc,2024.1.4,Win32,232.5581395,,,,,,,,,,,,,,1,moral,,,,,,2091.6754,2093.8856,1,0,1.6968,,0,112,112,0,1,three_way_cognate,1,REAL,FALSA
,,,,,,,,,5c3820ee1ede2b0001155929,001,2024-06-30_06h59.40.317,empathy_intonation_perc,2024.1.4,Win32,232.5581395,,,,,,,,,,,,,,125,ceme,,,,,,2093.8915,2099.7076,0,1,5.3072,,0,113,113,124,1,pseudoword,0,REAL,FALSA
,,,,,,,,,5c3820ee1ede2b0001155929,001,2024-06-30_06h59.40.317,empathy_intonation_perc,2024.1.4,Win32,232.5581395,,,,,,,,,,,,,,147,alla,,,,,,2099.7132,2105.0301,0,1,4.811,,0,114,114,146,1,pseudoword,0,REAL,FALSA
,,,,,,,,,5c3820ee1ede2b0001155929,001,2024-06-30_06h59.40.317,empathy_intonation_perc,2024.1.4,Win32,232.5581395,,,,,,,,,,,,,,96,caro,,,,,,2105.0355,2113.7322,0,1,8.1867,,0,115,115,95,1,non_cognate,1,REAL,FALSA
,,,,,,,,,5c3820ee1ede2b0001155929,001,2024-06-30_06h59.40.317,empathy_intonation_perc,2024.1.4,Win32,232.5581395,,,,,,,,,,,,,,126,tobre,,,,,,2113.7377,2118.5566,1,0,4.3104,,0,116,116,125,1,pseudoword,0,REAL,FALSA
,,,,,,,,,5c3820ee1ede2b0001155929,001,2024-06-30_06h59.40.317,empathy_intonation_perc,2024.1.4,Win32,232.5581395,,,,,,,,,,,,,,133,conso,,,,,,2118.5623,2126.5026,1,0,7.4304,,0,117,117,132,1,pseudoword,0,REAL,FALSA
,,,,,,,,,5c3820ee1ede2b0001155929,001,2024-06-30_06h59.40.317,empathy_intonation_perc,2024.1.4,Win32,232.5581395,,,,,,,,,,,,,,11,golf,,,,,,2126.5087,2127.7395,1,0,0.7195,,0,118,118,10,1,three_way_cognate,1,REAL,FALSA
,,,,,,,,,5c3820ee1ede2b0001155929,001,2024-06-30_06h59.40.317,empathy_intonation_perc,2024.1.4,Win32,232.5581395,,,,,,,,,,,,,,158,babrá,,,,,,2127.7397,2132.4635,0,1,4.2155,,0,119,119,157,1,pseudoword,0,REAL,FALSA
,,,,,,,,,5c3820ee1ede2b0001155929,001,2024-06-30_06h59.40.317,empathy_intonation_perc,2024.1.4,Win32,232.5581395,,,,,,,,,,,,,,177,entodo,,,,,,2132.4687,2138.1031,1,0,5.1255,,0,120,120,176,1,pseudoword,0,REAL,FALSA
,,,,,,,,,5c3820ee1ede2b0001155929,001,2024-06-30_06h59.40.317,empathy_intonation_perc,2024.1.4,Win32,232.5581395,,,,,,,,,,,,,,93,tapa,,,,,,2138.1081,2140.1,1,0,1.4832,,0,121,121,92,1,non_cognate,1,REAL,FALSA
,,,,,,,,,5c3820ee1ede2b0001155929,001,2024-06-30_06h59.40.317,empathy_intonation_perc,2024.1.4,Win32,232.5581395,,,,,,,,,,,,,,76,chocar,,,,,,2140.1003,2146.1346,1,0,5.5231,,0,122,122,75,1,non_cognate,1,REAL,FALSA
,,,,,,,,,5c3820ee1ede2b0001155929,001,2024-06-30_06h59.40.317,empathy_intonation_perc,2024.1.4,Win32,232.5581395,,,,,,,,,,,,,,102,coyo,,,,,,2146.1399,2150.8532,0,1,4.2051,,0,123,123,101,1,pseudoword,0,REAL,FALSA
,,,,,,,,,5c3820ee1ede2b0001155929,001,2024-06-30_06h59.40.317,empathy_intonation_perc,2024.1.4,Win32,232.5581395,,,,,,,,,,,,,,49,teñir,,,,,,2150.8586,2156.1878,0,1,4.8228,,0,124,124,48,1,non_cognate,1,REAL,FALSA
,,,,,,,,,5c3820ee1ede2b0001155929,001,2024-06-30_06h59.40.317,empathy_intonation_perc,2024.1.4,Win32,232.5581395,,,,,,,,,,,,,,20,trauma,,,,,,2156.1943,2157.9811,1,0,1.2785,,0,125,125,19,1,three_way_cognate,1,REAL,FALSA
,,,,,,,,,5c3820ee1ede2b0001155929,001,2024-06-30_06h59.40.317,empathy_intonation_perc,2024.1.4,Win32,232.5581395,,,,,,,,,,,,,,129,vinzó,,,,,,2157.9813,2166.2205,1,0,7.7293,,0,126,126,128,1,pseudoword,0,REAL,FALSA
,,,,,,,,,5c3820ee1ede2b0001155929,001,2024-06-30_06h59.40.317,empathy_intonation_perc,2024.1.4,Win32,232.5581395,,,,,,,,,,,,,,131,fuar,,,,,,2166.2264,2171.6136,1,0,4.8809,,0,127,127,130,1,pseudoword,0,REAL,FALSA
,,,,,,,,,5c3820ee1ede2b0001155929,001,2024-06-30_06h59.40.317,empathy_intonation_perc,2024.1.4,Win32,232.5581395,,,,,,,,,,,,,,81,sacar,,,,,,2171.6189,2176.4362,1,0,4.3105,,0,128,128,80,1,non_cognate,1,REAL,FALSA
,,,,,,,,,5c3820ee1ede2b0001155929,001,2024-06-30_06h59.40.317,empathy_intonation_perc,2024.1.4,Win32,232.5581395,,,,,,,,,,,,,,65,guerra,,,,,,2176.442,2178.3504,1,0,1.3998,,0,129,129,64,1,non_cognate,1,REAL,FALSA
,,,,,,,,,5c3820ee1ede2b0001155929,001,2024-06-30_06h59.40.317,empathy_intonation_perc,2024.1.4,Win32,232.5581395,,,,,,,,,,,,,,25,vigor,,,,,,2178.3506,2179.5887,1,0,0.7304,,0,130,130,24,1,two_way_cognate,1,REAL,FALSA
,,,,,,,,,5c3820ee1ede2b0001155929,001,2024-06-30_06h59.40.317,empathy_intonation_perc,2024.1.4,Win32,232.5581395,,,,,,,,,,,,,,82,brillo,,,,,,2179.5888,2181.1398,1,0,1.0408,,0,131,131,81,1,non_cognate,1,REAL,FALSA
,,,,,,,,,5c3820ee1ede2b0001155929,001,2024-06-30_06h59.40.317,empathy_intonation_perc,2024.1.4,Win32,232.5581395,,,,,,,,,,,,,,141,virios,,,,,,2181.1399,2185.4764,0,1,3.8316,,0,132,132,140,1,pseudoword,0,REAL,FALSA
,,,,,,,,,5c3820ee1ede2b0001155929,001,2024-06-30_06h59.40.317,empathy_intonation_perc,2024.1.4,Win32,232.5581395,,,,,,,,,,,,,,164,tecia,,,,,,2185.4815,2191.5648,0,1,5.5757,,0,133,133,163,1,pseudoword,0,REAL,FALSA
,,,,,,,,,5c3820ee1ede2b0001155929,001,2024-06-30_06h59.40.317,empathy_intonation_perc,2024.1.4,Win32,232.5581395,,,,,,,,,,,,,,120,mauja,,,,,,2191.57,2197.0782,0,1,5.0048,,0,134,134,119,1,pseudoword,0,REAL,FALSA
,,,,,,,,,5c3820ee1ede2b0001155929,001,2024-06-30_06h59.40.317,empathy_intonation_perc,2024.1.4,Win32,232.5581395,,,,,,,,,,,,,,66,aleta,,,,,,2197.0832,2205.9257,1,0,8.3323,,0,135,135,65,1,non_cognate,1,REAL,FALSA
,,,,,,,,,5c3820ee1ede2b0001155929,001,2024-06-30_06h59.40.317,empathy_intonation_perc,2024.1.4,Win32,232.5581395,,,,,,,,,,,,,,90,venado,,,,,,2205.9313,2210.3984,1,0,3.9568,,0,136,136,89,1,non_cognate,1,REAL,FALSA
,,,,,,,,,5c3820ee1ede2b0001155929,001,2024-06-30_06h59.40.317,empathy_intonation_perc,2024.1.4,Win32,232.5581395,,,,,,,,,,,,,,112,samón,,,,,,2210.4039,2216.4538,0,1,5.5421,,0,137,137,111,1,pseudoword,0,REAL,FALSA
,,,,,,,,,5c3820ee1ede2b0001155929,001,2024-06-30_06h59.40.317,empathy_intonation_perc,2024.1.4,Win32,232.5581395,,,,,,,,,,,,,,56,pico,,,,,,2216.4592,2218.2028,1,0,1.2327,,0,138,138,55,1,non_cognate,1,REAL,FALSA
,,,,,,,,,5c3820ee1ede2b0001155929,001,2024-06-30_06h59.40.317,empathy_intonation_perc,2024.1.4,Win32,232.5581395,,,,,,,,,,,,,,109,laras,,,,,,2218.203,2219.7002,1,0,0.9872,,0,139,139,108,1,pseudoword,0,REAL,FALSA
,,,,,,,,,5c3820ee1ede2b0001155929,001,2024-06-30_06h59.40.317,empathy_intonation_perc,2024.1.4,Win32,232.5581395,,,,,,,,,,,,,,59,feo,,,,,,2219.7003,2224.5748,0,1,4.3639,,0,140,140,58,1,non_cognate,1,REAL,FALSA
,,,,,,,,,5c3820ee1ede2b0001155929,001,2024-06-30_06h59.40.317,empathy_intonation_perc,2024.1.4,Win32,232.5581395,,,,,,,,,,,,,,72,rostro,,,,,,2224.5803,2229.6437,1,0,4.5535,,0,141,141,71,1,non_cognate,1,REAL,FALSA
,,,,,,,,,5c3820ee1ede2b0001155929,001,2024-06-30_06h59.40.317,empathy_intonation_perc,2024.1.4,Win32,232.5581395,,,,,,,,,,,,,,148,gino,,,,,,2229.6491,2234.7424,0,1,4.5845,,0,142,142,147,1,pseudoword,0,REAL,FALSA
,,,,,,,,,5c3820ee1ede2b0001155929,001,2024-06-30_06h59.40.317,empathy_intonation_perc,2024.1.4,Win32,232.5581395,,,,,,,,,,,,,,113,nasce,,,,,,2234.7476,2241.7494,1,0,6.4942,,0,143,143,112,1,pseudoword,0,REAL,FALSA
,,,,,,,,,5c3820ee1ede2b0001155929,001,2024-06-30_06h59.40.317,empathy_intonation_perc,2024.1.4,Win32,232.5581395,,,,,,,,,,,,,,63,hilo,,,,,,2241.7546,2247.5437,0,1,5.2798,,0,144,144,62,1,non_cognate,1,REAL,FALSA
,,,,,,,,,5c3820ee1ede2b0001155929,001,2024-06-30_06h59.40.317,empathy_intonation_perc,2024.1.4,Win32,232.5581395,,,,,,,,,,,,,,174,pabea,,,,,,2247.5495,2253.635,0,1,5.5743,,0,145,145,173,1,pseudoword,0,REAL,FALSA
,,,,,,,,,5c3820ee1ede2b0001155929,001,2024-06-30_06h59.40.317,empathy_intonation_perc,2024.1.4,Win32,232.5581395,,,,,,,,,,,,,,119,esís,,,,,,2253.6405,2273.4295,0,1,19.2776,,0,146,146,118,1,pseudoword,0,REAL,FALSA
,,,,,,,,,5c3820ee1ede2b0001155929,001,2024-06-30_06h59.40.317,empathy_intonation_perc,2024.1.4,Win32,232.5581395,,,,,,,,,,,,,,50,sierra,,,,,,2273.4352,2276.0992,1,0,2.1552,,0,147,147,49,1,non_cognate,1,REAL,FALSA
,,,,,,,,,5c3820ee1ede2b0001155929,001,2024-06-30_06h59.40.317,empathy_intonation_perc,2024.1.4,Win32,232.5581395,,,,,,,,,,,,,,130,dubo,,,,,,2276.0996,2281.6628,1,0,5.0493,,0,148,148,129,1,pseudoword,0,REAL,FALSA
,,,,,,,,,5c3820ee1ede2b0001155929,001,2024-06-30_06h59.40.317,empathy_intonation_perc,2024.1.4,Win32,232.5581395,,,,,,,,,,,,,,135,panté,,,,,,2281.6683,2283.9031,1,0,1.7257,,0,149,149,134,1,pseudoword,0,REAL,FALSA
,,,,,,,,,5c3820ee1ede2b0001155929,001,2024-06-30_06h59.40.317,empathy_intonation_perc,2024.1.4,Win32,232.5581395,,,,,,,,,,,,,,160,fomeó,,,,,,2283.9033,2291.6372,1,0,7.2221,,0,150,150,159,1,pseudoword,0,REAL,FALSA
,,,,,,,,,5c3820ee1ede2b0001155929,001,2024-06-30_06h59.40.317,empathy_intonation_perc,2024.1.4,Win32,232.5581395,,,,,,,,,,,,,,110,densó,,,,,,2291.6429,2293.0932,1,0,0.9447,,0,151,151,109,1,pseudoword,0,REAL,FALSA
,,,,,,,,,5c3820ee1ede2b0001155929,001,2024-06-30_06h59.40.317,empathy_intonation_perc,2024.1.4,Win32,232.5581395,,,,,,,,,,,,,,89,muñeca,,,,,,2293.0934,2298.455,1,0,4.8539,,0,152,152,88,1,non_cognate,1,REAL,FALSA
,,,,,,,,,5c3820ee1ede2b0001155929,001,2024-06-30_06h59.40.317,empathy_intonation_perc,2024.1.4,Win32,232.5581395,,,,,,,,,,,,,,83,hálito,,,,,,2298.4602,2303.6144,1,0,4.6442,,0,153,153,82,1,non_cognate,1,REAL,FALSA
,,,,,,,,,5c3820ee1ede2b0001155929,001,2024-06-30_06h59.40.317,empathy_intonation_perc,2024.1.4,Win32,232.5581395,,,,,,,,,,,,,,80,cuenco,,,,,,2303.62,2308.6523,1,0,4.5237,,0,154,154,79,1,non_cognate,1,REAL,FALSA
,,,,,,,,,5c3820ee1ede2b0001155929,001,2024-06-30_06h59.40.317,empathy_intonation_perc,2024.1.4,Win32,232.5581395,,,,,,,,,,,,,,136,hueas,,,,,,2308.6574,2310.6151,1,0,1.4493,,0,155,155,135,1,pseudoword,0,REAL,FALSA
,,,,,,,,,5c3820ee1ede2b0001155929,001,2024-06-30_06h59.40.317,empathy_intonation_perc,2024.1.4,Win32,232.5581395,,,,,,,,,,,,,,26,enigma,,,,,,2310.6156,2312.0685,1,0,0.9405,,0,156,156,25,1,two_way_cognate,1,REAL,FALSA
,,,,,,,,,5c3820ee1ede2b0001155929,001,2024-06-30_06h59.40.317,empathy_intonation_perc,2024.1.4,Win32,232.5581395,,,,,,,,,,,,,,114,dibrea,,,,,,2312.0689,2314.1091,0,1,1.5296,,0,157,157,113,1,pseudoword,0,REAL,FALSA
,,,,,,,,,5c3820ee1ede2b0001155929,001,2024-06-30_06h59.40.317,empathy_intonation_perc,2024.1.4,Win32,232.5581395,,,,,,,,,,,,,,167,dobbo,,,,,,2314.1093,2320.9266,0,1,6.3061,,0,158,158,166,1,pseudoword,0,REAL,FALSA
,,,,,,,,,5c3820ee1ede2b0001155929,001,2024-06-30_06h59.40.317,empathy_intonation_perc,2024.1.4,Win32,232.5581395,,,,,,,,,,,,,,67,llamar,,,,,,2320.9321,2326.5988,1,0,5.1556,,0,159,159,66,1,non_cognate,1,REAL,FALSA
,,,,,,,,,5c3820ee1ede2b0001155929,001,2024-06-30_06h59.40.317,empathy_intonation_perc,2024.1.4,Win32,232.5581395,,,,,,,,,,,,,,95,listo,,,,,,2326.604,2332.5334,1,0,5.4171,,0,160,160,94,1,non_cognate,1,REAL,FALSA
,,,,,,,,,5c3820ee1ede2b0001155929,001,2024-06-30_06h59.40.317,empathy_intonation_perc,2024.1.4,Win32,232.5581395,,,,,,,,,,,,,,162,cengo,,,,,,2332.5387,2337.9474,0,1,4.8989,,0,161,161,161,1,pseudoword,0,REAL,FALSA
,,,,,,,,,5c3820ee1ede2b0001155929,001,2024-06-30_06h59.40.317,empathy_intonation_perc,2024.1.4,Win32,232.5581395,,,,,,,,,,,,,,69,tiza,,,,,,2337.9553,2343.5817,1,0,5.1176,,0,162,162,68,1,non_cognate,1,REAL,FALSA
,,,,,,,,,5c3820ee1ede2b0001155929,001,2024-06-30_06h59.40.317,empathy_intonation_perc,2024.1.4,Win32,232.5581395,,,,,,,,,,,,,,87,muleta,,,,,,2343.5875,2348.7878,1,0,4.6935,,0,163,163,86,1,non_cognate,1,REAL,FALSA
,,,,,,,,,5c3820ee1ede2b0001155929,001,2024-06-30_06h59.40.317,empathy_intonation_perc,2024.1.4,Win32,232.5581395,,,,,,,,,,,,,,103,vueras,,,,,,2348.7932,2353.9206,0,1,4.6164,,0,164,164,102,1,pseudoword,0,REAL,FALSA
,,,,,,,,,5c3820ee1ede2b0001155929,001,2024-06-30_06h59.40.317,empathy_intonation_perc,2024.1.4,Win32,232.5581395,,,,,,,,,,,,,,47,color,,,,,,2353.9256,2358.2289,1,0,3.7894,,0,165,165,46,1,two_way_cognate,1,REAL,FALSA
,,,,,,,,,5c3820ee1ede2b0001155929,001,2024-06-30_06h59.40.317,empathy_intonation_perc,2024.1.4,Win32,232.5581395,,,,,,,,,,,,,,13,plan,,,,,,2358.2344,2360.7985,1,0,2.0525,,0,166,166,12,1,three_way_cognate,1,REAL,FALSA
,,,,,,,,,5c3820ee1ede2b0001155929,001,2024-06-30_06h59.40.317,empathy_intonation_perc,2024.1.4,Win32,232.5581395,,,,,,,,,,,,,,165,chote,,,,,,2360.7987,2366.9954,1,0,5.6861,,0,167,167,164,1,pseudoword,0,REAL,FALSA
,,,,,,,,,5c3820ee1ede2b0001155929,001,2024-06-30_06h59.40.317,empathy_intonation_perc,2024.1.4,Win32,232.5581395,,,,,,,,,,,,,,92,flecha,,,,,,2367.0012,2371.8429,1,0,4.3331,,0,168,168,91,1,non_cognate,1,REAL,FALSA
,,,,,,,,,5c3820ee1ede2b0001155929,001,2024-06-30_06h59.40.317,empathy_intonation_perc,2024.1.4,Win32,232.5581395,,,,,,,,,,,,,,22,mango,,,,,,2371.8484,2373.2846,1,0,0.9298,,0,169,169,21,1,three_way_cognate,1,REAL,FALSA
,,,,,,,,,5c3820ee1ede2b0001155929,001,2024-06-30_06h59.40.317,empathy_intonation_perc,2024.1.4,Win32,232.5581395,,,,,,,,,,,,,,100,épinas,,,,,,2373.2849,2378.6791,0,1,4.8851,,0,170,170,99,1,pseudoword,0,REAL,FALSA
,,,,,,,,,5c3820ee1ede2b0001155929,001,2024-06-30_06h59.40.317,empathy_intonation_perc,2024.1.4,Win32,232.5581395,,,,,,,,,,,,,,10,drama,,,,,,2378.6842,2380.0846,1,0,0.8917,,0,171,171,9,1,three_way_cognate,1,REAL,FALSA
,,,,,,,,,5c3820ee1ede2b0001155929,001,2024-06-30_06h59.40.317,empathy_intonation_perc,2024.1.4,Win32,232.5581395,,,,,,,,,,,,,,137,trugo,,,,,,2380.0851,2381.9003,0,1,1.3041,,0,172,172,136,1,pseudoword,0,REAL,FALSA
,,,,,,,,,5c3820ee1ede2b0001155929,001,2024-06-30_06h59.40.317,empathy_intonation_perc,2024.1.4,Win32,232.5581395,,,,,,,,,,,,,,8,kilo,,,,,,2381.9006,2383.3331,1,0,0.9211,,0,173,173,7,1,three_way_cognate,1,REAL,FALSA
,,,,,,,,,5c3820ee1ede2b0001155929,001,2024-06-30_06h59.40.317,empathy_intonation_perc,2024.1.4,Win32,232.5581395,,,,,,,,,,,,,,105,leniz,,,,,,2383.3332,2390.646,0,1,6.8003,,0,174,174,104,1,pseudoword,0,REAL,FALSA
,,,,,,,,,5c3820ee1ede2b0001155929,001,2024-06-30_06h59.40.317,empathy_intonation_perc,2024.1.4,Win32,232.5581395,,,,,,,,,,,,,,145,rúo,,,,,,2390.6513,2396.918,1,0,5.7553,,0,175,175,144,1,pseudoword,0,REAL,FALSA
,,,,,,,,,5c3820ee1ede2b0001155929,001,2024-06-30_06h59.40.317,empathy_intonation_perc,2024.1.4,Win32,232.5581395,,,,,,,,,,,,,,178,inichó,,,,,,2396.9234,2403.5397,1,0,6.1039,,0,176,176,177,1,pseudoword,0,REAL,FALSA
,,,,,,,,,5c3820ee1ede2b0001155929,001,2024-06-30_06h59.40.317,empathy_intonation_perc,2024.1.4,Win32,232.5581395,,,,,,,,,,,,,,127,vien,,,,,,2403.5449,2405.5427,1,0,1.4893,,0,177,177,126,1,pseudoword,0,REAL,FALSA
,,,,,,,,,5c3820ee1ede2b0001155929,001,2024-06-30_06h59.40.317,empathy_intonation_perc,2024.1.4,Win32,232.5581395,,,,,,,,,,,,,,71,torta,,,,,,2405.5429,2407.6543,1,0,1.5993,,0,178,178,70,1,non_cognate,1,REAL,FALSA
,,,,,,,,,5c3820ee1ede2b0001155929,001,2024-06-30_06h59.40.317,empathy_intonation_perc,2024.1.4,Win32,232.5581395,,,,,,,,,,,,,,188,amplir,,,,,,2407.6598,2413.7012,1,0,5.5286,,0,179,179,187,1,pseudoword,0,REAL,FALSA
,,,,,,,,,5c3820ee1ede2b0001155929,001,2024-06-30_06h59.40.317,empathy_intonation_perc,2024.1.4,Win32,232.5581395,,,,,,,,,,,,,,27,piano,,,,,,2413.7069,2414.9963,1,0,0.779,,0,180,180,26,1,two_way_cognate,1,REAL,FALSA
,,,,,,,,,5c3820ee1ede2b0001155929,001,2024-06-30_06h59.40.317,empathy_intonation_perc,2024.1.4,Win32,232.5581395,,,,,,,,,,,,,,70,ánimo,,,,,,2414.9966,2420.375,1,0,4.8676,,0,181,181,69,1,non_cognate,1,REAL,FALSA
,,,,,,,,,5c3820ee1ede2b0001155929,001,2024-06-30_06h59.40.317,empathy_intonation_perc,2024.1.4,Win32,232.5581395,,,,,,,,,,,,,,41,pasta,,,,,,2420.3801,2421.8388,1,0,0.9535,,0,182,182,40,1,two_way_cognate,1,REAL,FALSA
,,,,,,,,,5c3820ee1ede2b0001155929,001,2024-06-30_06h59.40.317,empathy_intonation_perc,2024.1.4,Win32,232.5581395,,,,,,,,,,,,,,185,aljizo,,,,,,2421.839,2429.4142,0,1,7.0631,,0,183,183,184,1,pseudoword,0,REAL,FALSA
,,,,,,,,,5c3820ee1ede2b0001155929,001,2024-06-30_06h59.40.317,empathy_intonation_perc,2024.1.4,Win32,232.5581395,,,,,,,,,,,,,,107,plago,,,,,,2429.4197,2438.6166,1,0,8.6926,,0,184,184,106,1,pseudoword,0,REAL,FALSA
,,,,,,,,,5c3820ee1ede2b0001155929,001,2024-06-30_06h59.40.317,empathy_intonation_perc,2024.1.4,Win32,232.5581395,,,,,,,,,,,,,,163,olzan,,,,,,2438.622,2443.4697,0,1,4.337,,0,185,185,162,1,pseudoword,0,REAL,FALSA
,,,,,,,,,5c3820ee1ede2b0001155929,001,2024-06-30_06h59.40.317,empathy_intonation_perc,2024.1.4,Win32,232.5581395,,,,,,,,,,,,,,154,harvé,,,,,,2443.4751,2444.7761,1,0,0.7865,,0,186,186,153,1,pseudoword,0,REAL,FALSA
,,,,,,,,,5c3820ee1ede2b0001155929,001,2024-06-30_06h59.40.317,empathy_intonation_perc,2024.1.4,Win32,232.5581395,,,,,,,,,,,,,,57,regalo,,,,,,2444.7763,2449.7706,1,0,4.4849,,0,187,187,56,1,non_cognate,1,REAL,FALSA
,,,,,,,,,5c3820ee1ede2b0001155929,001,2024-06-30_06h59.40.317,empathy_intonation_perc,2024.1.4,Win32,232.5581395,,,,,,,,,,,,,,55,maldad,,,,,,2449.7759,2454.542,1,0,4.2547,,0,188,188,54,1,non_cognate,1,REAL,FALSA
,,,,,,,,,5c3820ee1ede2b0001155929,001,2024-06-30_06h59.40.317,empathy_intonation_perc,2024.1.4,Win32,232.5581395,,,,,,,,,,,,,,191,frasis,,,,,,2454.547,2460.2531,0,1,5.2008,,0,189,189,190,1,pseudoword,0,REAL,FALSA
,,,,,,,,,5c3820ee1ede2b0001155929,001,2024-06-30_06h59.40.317,empathy_intonation_perc,2024.1.4,Win32,232.5581395,,,,,,,,,,,,,,6,horror,,,,,,2460.2584,2461.6064,1,0,0.8368,,0,190,190,5,1,three_way_cognate,1,REAL,FALSA
,,,,,,,,,5c3820ee1ede2b0001155929,001,2024-06-30_06h59.40.317,empathy_intonation_perc,2024.1.4,Win32,232.5581395,,,,,,,,,,,,,,152,prave,,,,,,2461.6066,2468.6698,1,0,6.5512,,0,191,191,151,1,pseudoword,0,REAL,FALSA
