lextale_instructions.started,lextale_instructions.stopped,lextale_instructions_loop.thisRepN,lextale_instructions_loop.thisTrialN,lextale_instructions_loop.thisN,lextale_instructions_loop.thisIndex,lextale_instructions_loop.ran,instructions_text,continue_text,participant,session,date,expName,psychopyVersion,OS,frameRate,lextale_practice.started,lextale_practice.stopped,key_resp_lextale_practice.keys,key_resp_lextale_practice.corr,key_resp_lextale_practice.rt,key_resp_lextale_practice.duration,lextale_practice_feedback.started,lextale_practice_feedback.stopped,lextale_practice_trials.thisRepN,lextale_practice_trials.thisTrialN,lextale_practice_trials.thisN,lextale_practice_trials.thisIndex,lextale_practice_trials.ran,stim,word,correct_response,prac_button_real,prac_button_false,lextale_check.started,lextale_check.stopped,lextale_trial.started,lextale_trial.stopped,key_resp_lextale_trial.keys,key_resp_lextale_trial.corr,key_resp_lextale_trial.rt,key_resp_lextale_trial.duration,lextail_trials.thisRepN,lextail_trials.thisTrialN,lextail_trials.thisN,lextail_trials.thisIndex,lextail_trials.ran,type,correct_reponse,button_real,button_false
0.0035,6.2577,0,0,0,0,1,"Este es un test de vocabulario en español. 
  
  A continuación vas a ver 90 secuencias de letras que parecen 'españolas'.
  
  Solo algunas de ellas son palabras de verdad.",(presiona la barra espaciadora para continuar),61523f5edff0567aa388e752,001,2024-06-30_03h00.47.121,empathy_intonation_perc,2024.1.4,MacIntel,120.4819277,,,,,,,,,,,,,,,,,,,,,,,,,,,,,,,,,,,
6.2585,17.2076,0,1,1,1,1,"Por favor, señala las palabras que tú conoces (aquellas que estás convencido que son palabras españolas, incluso aunque no seas capaz de dar el significado preciso).",(presiona la barra espaciadora para continuar),61523f5edff0567aa388e752,001,2024-06-30_03h00.47.121,empathy_intonation_perc,2024.1.4,MacIntel,120.4819277,,,,,,,,,,,,,,,,,,,,,,,,,,,,,,,,,,,
17.2082,23.0307,0,2,2,2,1,Pero cuidado: los errores se penalizan. Por eso no tiene sentido tratar de incrementar tu puntuación marcando como reales palabras que nunca has visto.,(presiona la barra espaciadora para continuar),61523f5edff0567aa388e752,001,2024-06-30_03h00.47.121,empathy_intonation_perc,2024.1.4,MacIntel,120.4819277,,,,,,,,,,,,,,,,,,,,,,,,,,,,,,,,,,,
23.0313,42.2462,0,3,3,3,1,"Presiona la tecla 1 si piensas que es una palabra real y la tecla 
  0 si piensas que es una palabra falsa. 
  
  Vamos a practicar un poco...",(presiona la barra espaciadora para continuar),61523f5edff0567aa388e752,001,2024-06-30_03h00.47.121,empathy_intonation_perc,2024.1.4,MacIntel,120.4819277,,,,,,,,,,,,,,,,,,,,,,,,,,,,,,,,,,,
,,,,,,,,,61523f5edff0567aa388e752,001,2024-06-30_03h00.47.121,empathy_intonation_perc,2024.1.4,MacIntel,120.4819277,42.2495,46.4862,0,1,3.7238,,46.4864,47.4862,0,0,0,0,1,0,depiste,0,REAL,FALSA,,,,,,,,,,,,,,,,,
,,,,,,,,,61523f5edff0567aa388e752,001,2024-06-30_03h00.47.121,empathy_intonation_perc,2024.1.4,MacIntel,120.4819277,47.4873,49.207,1,1,1.201,,49.207,50.2065,0,1,1,1,1,0,sí,1,REAL,FALSA,,,,,,,,,,,,,,,,,
,,,,,,,,,61523f5edff0567aa388e752,001,2024-06-30_03h00.47.121,empathy_intonation_perc,2024.1.4,MacIntel,120.4819277,50.2071,52.3479,0,1,1.6256,,52.348,53.3439,0,2,2,2,1,0,coné,0,REAL,FALSA,,,,,,,,,,,,,,,,,
,,,,,,,,,61523f5edff0567aa388e752,001,2024-06-30_03h00.47.121,empathy_intonation_perc,2024.1.4,MacIntel,120.4819277,53.3519,55.1958,0,1,1.3248,,55.1959,56.1952,0,3,3,3,1,0,calpar,0,REAL,FALSA,,,,,,,,,,,,,,,,,
,,,,,,,,,61523f5edff0567aa388e752,001,2024-06-30_03h00.47.121,empathy_intonation_perc,2024.1.4,MacIntel,120.4819277,56.1955,58.3804,0,1,1.6693,,58.3804,59.3744,0,4,4,4,1,0,joten,0,REAL,FALSA,,,,,,,,,,,,,,,,,
,,,,,,,,,61523f5edff0567aa388e752,001,2024-06-30_03h00.47.121,empathy_intonation_perc,2024.1.4,MacIntel,120.4819277,59.3835,61.4766,0,0,1.5733,,61.4767,62.4707,0,5,5,5,1,0,sacapuntas,1,REAL,FALSA,,,,,,,,,,,,,,,,,
,,,,,,,,,61523f5edff0567aa388e752,001,2024-06-30_03h00.47.121,empathy_intonation_perc,2024.1.4,MacIntel,120.4819277,62.4804,65.2175,0,1,2.2207,,65.2176,66.2131,0,6,6,6,1,0,priba,0,REAL,FALSA,,,,,,,,,,,,,,,,,
,,,,,,,,,61523f5edff0567aa388e752,001,2024-06-30_03h00.47.121,empathy_intonation_perc,2024.1.4,MacIntel,120.4819277,66.2136,68.6251,0,1,1.8948,,68.6252,69.623,0,7,7,7,1,0,pelasula,0,REAL,FALSA,,,,,,,,,,,,,,,,,
,,,,,,,,,61523f5edff0567aa388e752,001,2024-06-30_03h00.47.121,empathy_intonation_perc,2024.1.4,MacIntel,120.4819277,69.6315,70.9689,1,1,0.8191,,70.9689,71.9727,0,8,8,8,1,0,bien,1,REAL,FALSA,,,,,,,,,,,,,,,,,
,,,,,,,,,61523f5edff0567aa388e752,001,2024-06-30_03h00.47.121,empathy_intonation_perc,2024.1.4,MacIntel,120.4819277,71.9732,73.4769,1,1,0.9916,,73.477,74.4792,0,9,9,9,1,0,casa,1,REAL,FALSA,,,,,,,,,,,,,,,,,
,,,,,,,,,61523f5edff0567aa388e752,001,2024-06-30_03h00.47.121,empathy_intonation_perc,2024.1.4,MacIntel,120.4819277,74.4878,76.3569,1,0,1.3491,,76.357,77.3566,0,10,10,10,1,0,lejo,0,REAL,FALSA,,,,,,,,,,,,,,,,,
,,,,,,,,,61523f5edff0567aa388e752,001,2024-06-30_03h00.47.121,empathy_intonation_perc,2024.1.4,MacIntel,120.4819277,77.3571,79.3689,0,1,1.4972,,79.369,80.364,0,11,11,11,1,0,pretantas,0,REAL,FALSA,,,,,,,,,,,,,,,,,
,,,,,,,,,61523f5edff0567aa388e752,001,2024-06-30_03h00.47.121,empathy_intonation_perc,2024.1.4,MacIntel,120.4819277,,,,,,,,,,,,,,,,,,,80.3645,82.7401,,,,,,,,,,,,,,,
,,,,,,,,,61523f5edff0567aa388e752,001,2024-06-30_03h00.47.121,empathy_intonation_perc,2024.1.4,MacIntel,120.4819277,,,,,,,,,,,,,,42,rumor,,,,,,82.751,84.6565,0,1,1.3867,,0,0,0,41,1,two_way_cognate,1,REAL,FALSA
,,,,,,,,,61523f5edff0567aa388e752,001,2024-06-30_03h00.47.121,empathy_intonation_perc,2024.1.4,MacIntel,120.4819277,,,,,,,,,,,,,,16,chat,,,,,,84.6571,88.6572,0,1,3.4824,,0,1,1,15,1,three_way_cognate,1,REAL,FALSA
,,,,,,,,,61523f5edff0567aa388e752,001,2024-06-30_03h00.47.121,empathy_intonation_perc,2024.1.4,MacIntel,120.4819277,,,,,,,,,,,,,,132,nocó,,,,,,88.6655,90.2601,0,1,1.0727,,0,2,2,131,1,pseudoword,0,REAL,FALSA
,,,,,,,,,61523f5edff0567aa388e752,001,2024-06-30_03h00.47.121,empathy_intonation_perc,2024.1.4,MacIntel,120.4819277,,,,,,,,,,,,,,99,bugor,,,,,,90.2606,91.8103,0,1,1.0338,,0,3,3,98,1,pseudoword,0,REAL,FALSA
,,,,,,,,,61523f5edff0567aa388e752,001,2024-06-30_03h00.47.121,empathy_intonation_perc,2024.1.4,MacIntel,120.4819277,,,,,,,,,,,,,,107,plago,,,,,,91.8107,93.8756,1,0,1.5458,,0,4,4,106,1,pseudoword,0,REAL,FALSA
,,,,,,,,,61523f5edff0567aa388e752,001,2024-06-30_03h00.47.121,empathy_intonation_perc,2024.1.4,MacIntel,120.4819277,,,,,,,,,,,,,,126,tobre,,,,,,93.8763,95.5115,1,0,1.1196,,0,5,5,125,1,pseudoword,0,REAL,FALSA
,,,,,,,,,61523f5edff0567aa388e752,001,2024-06-30_03h00.47.121,empathy_intonation_perc,2024.1.4,MacIntel,120.4819277,,,,,,,,,,,,,,81,sacar,,,,,,95.512,97.1658,1,0,1.1344,,0,6,6,80,1,non_cognate,1,REAL,FALSA
,,,,,,,,,61523f5edff0567aa388e752,001,2024-06-30_03h00.47.121,empathy_intonation_perc,2024.1.4,MacIntel,120.4819277,,,,,,,,,,,,,,140,chorde,,,,,,97.1662,98.7541,0,1,1.0672,,0,7,7,139,1,pseudoword,0,REAL,FALSA
,,,,,,,,,61523f5edff0567aa388e752,001,2024-06-30_03h00.47.121,empathy_intonation_perc,2024.1.4,MacIntel,120.4819277,,,,,,,,,,,,,,50,sierra,,,,,,98.7546,100.7236,1,0,1.4539,,0,8,8,49,1,non_cognate,1,REAL,FALSA
,,,,,,,,,61523f5edff0567aa388e752,001,2024-06-30_03h00.47.121,empathy_intonation_perc,2024.1.4,MacIntel,120.4819277,,,,,,,,,,,,,,9,portal,,,,,,100.7241,102.4882,0,1,1.2446,,0,9,9,8,1,three_way_cognate,1,REAL,FALSA
,,,,,,,,,61523f5edff0567aa388e752,001,2024-06-30_03h00.47.121,empathy_intonation_perc,2024.1.4,MacIntel,120.4819277,,,,,,,,,,,,,,34,actor,,,,,,102.4887,103.8182,0,1,0.8128,,0,10,10,33,1,two_way_cognate,1,REAL,FALSA
,,,,,,,,,61523f5edff0567aa388e752,001,2024-06-30_03h00.47.121,empathy_intonation_perc,2024.1.4,MacIntel,120.4819277,,,,,,,,,,,,,,178,inichó,,,,,,103.8187,106.3787,0,1,2.0381,,0,11,11,177,1,pseudoword,0,REAL,FALSA
,,,,,,,,,61523f5edff0567aa388e752,001,2024-06-30_03h00.47.121,empathy_intonation_perc,2024.1.4,MacIntel,120.4819277,,,,,,,,,,,,,,12,dogma,,,,,,106.3789,107.8609,0,1,0.9613,,0,12,12,11,1,three_way_cognate,1,REAL,FALSA
,,,,,,,,,61523f5edff0567aa388e752,001,2024-06-30_03h00.47.121,empathy_intonation_perc,2024.1.4,MacIntel,120.4819277,,,,,,,,,,,,,,72,rostro,,,,,,107.8614,109.2957,0,1,0.9189,,0,13,13,71,1,non_cognate,1,REAL,FALSA
,,,,,,,,,61523f5edff0567aa388e752,001,2024-06-30_03h00.47.121,empathy_intonation_perc,2024.1.4,MacIntel,120.4819277,,,,,,,,,,,,,,166,anfia,,,,,,109.2961,111.2661,0,1,1.4566,,0,14,14,165,1,pseudoword,0,REAL,FALSA
,,,,,,,,,61523f5edff0567aa388e752,001,2024-06-30_03h00.47.121,empathy_intonation_perc,2024.1.4,MacIntel,120.4819277,,,,,,,,,,,,,,189,medium,,,,,,111.2666,112.7762,0,1,0.9929,,0,15,15,188,1,pseudoword,0,REAL,FALSA
,,,,,,,,,61523f5edff0567aa388e752,001,2024-06-30_03h00.47.121,empathy_intonation_perc,2024.1.4,MacIntel,120.4819277,,,,,,,,,,,,,,183,edioso,,,,,,112.7767,116.5978,0,1,3.2976,,0,16,16,182,1,pseudoword,0,REAL,FALSA
,,,,,,,,,61523f5edff0567aa388e752,001,2024-06-30_03h00.47.121,empathy_intonation_perc,2024.1.4,MacIntel,120.4819277,,,,,,,,,,,,,,180,pupica,,,,,,116.6059,119.3798,1,0,2.259,,0,17,17,179,1,pseudoword,0,REAL,FALSA
,,,,,,,,,61523f5edff0567aa388e752,001,2024-06-30_03h00.47.121,empathy_intonation_perc,2024.1.4,MacIntel,120.4819277,,,,,,,,,,,,,,79,suelo,,,,,,119.3802,121.2602,1,0,1.3633,,0,18,18,78,1,non_cognate,1,REAL,FALSA
,,,,,,,,,61523f5edff0567aa388e752,001,2024-06-30_03h00.47.121,empathy_intonation_perc,2024.1.4,MacIntel,120.4819277,,,,,,,,,,,,,,177,entodo,,,,,,121.2607,122.8731,1,0,1.1018,,0,19,19,176,1,pseudoword,0,REAL,FALSA
,,,,,,,,,61523f5edff0567aa388e752,001,2024-06-30_03h00.47.121,empathy_intonation_perc,2024.1.4,MacIntel,120.4819277,,,,,,,,,,,,,,59,feo,,,,,,122.8736,124.2931,1,0,0.9041,,0,20,20,58,1,non_cognate,1,REAL,FALSA
,,,,,,,,,61523f5edff0567aa388e752,001,2024-06-30_03h00.47.121,empathy_intonation_perc,2024.1.4,MacIntel,120.4819277,,,,,,,,,,,,,,154,harvé,,,,,,124.2936,125.7054,0,1,0.8919,,0,21,21,153,1,pseudoword,0,REAL,FALSA
,,,,,,,,,61523f5edff0567aa388e752,001,2024-06-30_03h00.47.121,empathy_intonation_perc,2024.1.4,MacIntel,120.4819277,,,,,,,,,,,,,,165,chote,,,,,,125.7059,127.4988,0,1,1.2822,,0,22,22,164,1,pseudoword,0,REAL,FALSA
,,,,,,,,,61523f5edff0567aa388e752,001,2024-06-30_03h00.47.121,empathy_intonation_perc,2024.1.4,MacIntel,120.4819277,,,,,,,,,,,,,,35,aurora,,,,,,127.4994,128.9858,0,1,0.9644,,0,23,23,34,1,two_way_cognate,1,REAL,FALSA
,,,,,,,,,61523f5edff0567aa388e752,001,2024-06-30_03h00.47.121,empathy_intonation_perc,2024.1.4,MacIntel,120.4819277,,,,,,,,,,,,,,108,jauda,,,,,,128.9863,130.4229,0,1,0.9258,,0,24,24,107,1,pseudoword,0,REAL,FALSA
,,,,,,,,,61523f5edff0567aa388e752,001,2024-06-30_03h00.47.121,empathy_intonation_perc,2024.1.4,MacIntel,120.4819277,,,,,,,,,,,,,,174,pabea,,,,,,130.4234,131.8348,0,1,0.8967,,0,25,25,173,1,pseudoword,0,REAL,FALSA
,,,,,,,,,61523f5edff0567aa388e752,001,2024-06-30_03h00.47.121,empathy_intonation_perc,2024.1.4,MacIntel,120.4819277,,,,,,,,,,,,,,109,laras,,,,,,131.8352,133.2698,0,1,0.9169,,0,26,26,108,1,pseudoword,0,REAL,FALSA
,,,,,,,,,61523f5edff0567aa388e752,001,2024-06-30_03h00.47.121,empathy_intonation_perc,2024.1.4,MacIntel,120.4819277,,,,,,,,,,,,,,113,nasce,,,,,,133.2703,137.7713,0,1,3.9851,,0,27,27,112,1,pseudoword,0,REAL,FALSA
,,,,,,,,,61523f5edff0567aa388e752,001,2024-06-30_03h00.47.121,empathy_intonation_perc,2024.1.4,MacIntel,120.4819277,,,,,,,,,,,,,,38,halo,,,,,,137.7798,139.3648,0,1,1.0694,,0,28,28,37,1,two_way_cognate,1,REAL,FALSA
,,,,,,,,,61523f5edff0567aa388e752,001,2024-06-30_03h00.47.121,empathy_intonation_perc,2024.1.4,MacIntel,120.4819277,,,,,,,,,,,,,,56,pico,,,,,,139.3653,142.5482,0,1,2.669,,0,29,29,55,1,non_cognate,1,REAL,FALSA
,,,,,,,,,61523f5edff0567aa388e752,001,2024-06-30_03h00.47.121,empathy_intonation_perc,2024.1.4,MacIntel,120.4819277,,,,,,,,,,,,,,156,ozoso,,,,,,142.5558,145.994,0,1,2.9272,,0,30,30,155,1,pseudoword,0,REAL,FALSA
,,,,,,,,,61523f5edff0567aa388e752,001,2024-06-30_03h00.47.121,empathy_intonation_perc,2024.1.4,MacIntel,120.4819277,,,,,,,,,,,,,,170,diabo,,,,,,145.9945,149.0213,0,1,2.5053,,0,31,31,169,1,pseudoword,0,REAL,FALSA
,,,,,,,,,61523f5edff0567aa388e752,001,2024-06-30_03h00.47.121,empathy_intonation_perc,2024.1.4,MacIntel,120.4819277,,,,,,,,,,,,,,94,forro,,,,,,149.0298,150.4763,0,1,0.9307,,0,32,32,93,1,non_cognate,1,REAL,FALSA
,,,,,,,,,61523f5edff0567aa388e752,001,2024-06-30_03h00.47.121,empathy_intonation_perc,2024.1.4,MacIntel,120.4819277,,,,,,,,,,,,,,53,punta,,,,,,150.4768,151.681,1,0,0.6953,,0,33,33,52,1,non_cognate,1,REAL,FALSA
,,,,,,,,,61523f5edff0567aa388e752,001,2024-06-30_03h00.47.121,empathy_intonation_perc,2024.1.4,MacIntel,120.4819277,,,,,,,,,,,,,,37,torso,,,,,,151.6815,153.3147,0,1,1.1203,,0,34,34,36,1,two_way_cognate,1,REAL,FALSA
,,,,,,,,,61523f5edff0567aa388e752,001,2024-06-30_03h00.47.121,empathy_intonation_perc,2024.1.4,MacIntel,120.4819277,,,,,,,,,,,,,,1,moral,,,,,,153.3153,155.0193,0,1,1.1903,,0,35,35,0,1,three_way_cognate,1,REAL,FALSA
,,,,,,,,,61523f5edff0567aa388e752,001,2024-06-30_03h00.47.121,empathy_intonation_perc,2024.1.4,MacIntel,120.4819277,,,,,,,,,,,,,,116,grigir,,,,,,155.0198,156.7013,0,1,1.1665,,0,36,36,115,1,pseudoword,0,REAL,FALSA
,,,,,,,,,61523f5edff0567aa388e752,001,2024-06-30_03h00.47.121,empathy_intonation_perc,2024.1.4,MacIntel,120.4819277,,,,,,,,,,,,,,138,tator,,,,,,156.7018,158.2876,0,1,1.0733,,0,37,37,137,1,pseudoword,0,REAL,FALSA
,,,,,,,,,61523f5edff0567aa388e752,001,2024-06-30_03h00.47.121,empathy_intonation_perc,2024.1.4,MacIntel,120.4819277,,,,,,,,,,,,,,148,gino,,,,,,158.2881,160.1512,0,1,1.3512,,0,38,38,147,1,pseudoword,0,REAL,FALSA
,,,,,,,,,61523f5edff0567aa388e752,001,2024-06-30_03h00.47.121,empathy_intonation_perc,2024.1.4,MacIntel,120.4819277,,,,,,,,,,,,,,176,gripar,,,,,,160.1517,161.8346,1,0,1.1686,,0,39,39,175,1,pseudoword,0,REAL,FALSA
,,,,,,,,,61523f5edff0567aa388e752,001,2024-06-30_03h00.47.121,empathy_intonation_perc,2024.1.4,MacIntel,120.4819277,,,,,,,,,,,,,,49,teñir,,,,,,161.8351,165.0171,0,1,2.67,,0,40,40,48,1,non_cognate,1,REAL,FALSA
,,,,,,,,,61523f5edff0567aa388e752,001,2024-06-30_03h00.47.121,empathy_intonation_perc,2024.1.4,MacIntel,120.4819277,,,,,,,,,,,,,,39,casual,,,,,,165.027,166.4339,0,1,0.8832,,0,41,41,38,1,two_way_cognate,1,REAL,FALSA
,,,,,,,,,61523f5edff0567aa388e752,001,2024-06-30_03h00.47.121,empathy_intonation_perc,2024.1.4,MacIntel,120.4819277,,,,,,,,,,,,,,160,fomeó,,,,,,166.4344,168.1476,0,1,1.1984,,0,42,42,159,1,pseudoword,0,REAL,FALSA
,,,,,,,,,61523f5edff0567aa388e752,001,2024-06-30_03h00.47.121,empathy_intonation_perc,2024.1.4,MacIntel,120.4819277,,,,,,,,,,,,,,20,trauma,,,,,,168.1481,169.5586,0,1,0.8923,,0,43,43,19,1,three_way_cognate,1,REAL,FALSA
,,,,,,,,,61523f5edff0567aa388e752,001,2024-06-30_03h00.47.121,empathy_intonation_perc,2024.1.4,MacIntel,120.4819277,,,,,,,,,,,,,,71,torta,,,,,,169.5589,171.014,1,0,0.9386,,0,44,44,70,1,non_cognate,1,REAL,FALSA
,,,,,,,,,61523f5edff0567aa388e752,001,2024-06-30_03h00.47.121,empathy_intonation_perc,2024.1.4,MacIntel,120.4819277,,,,,,,,,,,,,,128,pelí,,,,,,171.0146,172.5083,0,1,0.9781,,0,45,45,127,1,pseudoword,0,REAL,FALSA
,,,,,,,,,61523f5edff0567aa388e752,001,2024-06-30_03h00.47.121,empathy_intonation_perc,2024.1.4,MacIntel,120.4819277,,,,,,,,,,,,,,65,guerra,,,,,,172.509,174.01,1,0,0.9795,,0,46,46,64,1,non_cognate,1,REAL,FALSA
,,,,,,,,,61523f5edff0567aa388e752,001,2024-06-30_03h00.47.121,empathy_intonation_perc,2024.1.4,MacIntel,120.4819277,,,,,,,,,,,,,,33,collar,,,,,,174.0105,175.4247,0,1,0.8962,,0,47,47,32,1,two_way_cognate,1,REAL,FALSA
,,,,,,,,,61523f5edff0567aa388e752,001,2024-06-30_03h00.47.121,empathy_intonation_perc,2024.1.4,MacIntel,120.4819277,,,,,,,,,,,,,,158,babrá,,,,,,175.4251,177.4663,0,1,1.5227,,0,48,48,157,1,pseudoword,0,REAL,FALSA
,,,,,,,,,61523f5edff0567aa388e752,001,2024-06-30_03h00.47.121,empathy_intonation_perc,2024.1.4,MacIntel,120.4819277,,,,,,,,,,,,,,186,rizate,,,,,,177.4667,179.3693,0,1,1.3908,,0,49,49,185,1,pseudoword,0,REAL,FALSA
,,,,,,,,,61523f5edff0567aa388e752,001,2024-06-30_03h00.47.121,empathy_intonation_perc,2024.1.4,MacIntel,120.4819277,,,,,,,,,,,,,,162,cengo,,,,,,179.3697,180.7636,0,1,0.8753,,0,50,50,161,1,pseudoword,0,REAL,FALSA
,,,,,,,,,61523f5edff0567aa388e752,001,2024-06-30_03h00.47.121,empathy_intonation_perc,2024.1.4,MacIntel,120.4819277,,,,,,,,,,,,,,85,enorme,,,,,,180.7641,182.8776,1,0,1.592,,0,51,51,84,1,non_cognate,1,REAL,FALSA
,,,,,,,,,61523f5edff0567aa388e752,001,2024-06-30_03h00.47.121,empathy_intonation_perc,2024.1.4,MacIntel,120.4819277,,,,,,,,,,,,,,142,parre,,,,,,182.8781,184.9549,0,1,1.5526,,0,52,52,141,1,pseudoword,0,REAL,FALSA
,,,,,,,,,61523f5edff0567aa388e752,001,2024-06-30_03h00.47.121,empathy_intonation_perc,2024.1.4,MacIntel,120.4819277,,,,,,,,,,,,,,11,golf,,,,,,184.9553,186.2676,0,1,0.7875,,0,53,53,10,1,three_way_cognate,1,REAL,FALSA
,,,,,,,,,61523f5edff0567aa388e752,001,2024-06-30_03h00.47.121,empathy_intonation_perc,2024.1.4,MacIntel,120.4819277,,,,,,,,,,,,,,131,fuar,,,,,,186.2681,187.7016,0,1,0.9193,,0,54,54,130,1,pseudoword,0,REAL,FALSA
,,,,,,,,,61523f5edff0567aa388e752,001,2024-06-30_03h00.47.121,empathy_intonation_perc,2024.1.4,MacIntel,120.4819277,,,,,,,,,,,,,,100,épinas,,,,,,187.7021,191.5965,1,0,3.3783,,0,55,55,99,1,pseudoword,0,REAL,FALSA
,,,,,,,,,61523f5edff0567aa388e752,001,2024-06-30_03h00.47.121,empathy_intonation_perc,2024.1.4,MacIntel,120.4819277,,,,,,,,,,,,,,106,diebro,,,,,,191.604,195.3267,0,1,3.2001,,0,56,56,105,1,pseudoword,0,REAL,FALSA
,,,,,,,,,61523f5edff0567aa388e752,001,2024-06-30_03h00.47.121,empathy_intonation_perc,2024.1.4,MacIntel,120.4819277,,,,,,,,,,,,,,168,cobén,,,,,,195.3367,197.0315,0,1,1.1766,,0,57,57,167,1,pseudoword,0,REAL,FALSA
,,,,,,,,,61523f5edff0567aa388e752,001,2024-06-30_03h00.47.121,empathy_intonation_perc,2024.1.4,MacIntel,120.4819277,,,,,,,,,,,,,,179,suelet,,,,,,197.0318,198.3125,0,1,0.7645,,0,58,58,178,1,pseudoword,0,REAL,FALSA
,,,,,,,,,61523f5edff0567aa388e752,001,2024-06-30_03h00.47.121,empathy_intonation_perc,2024.1.4,MacIntel,120.4819277,,,,,,,,,,,,,,175,tradía,,,,,,198.313,199.6995,0,1,0.8737,,0,59,59,174,1,pseudoword,0,REAL,FALSA
,,,,,,,,,61523f5edff0567aa388e752,001,2024-06-30_03h00.47.121,empathy_intonation_perc,2024.1.4,MacIntel,120.4819277,,,,,,,,,,,,,,155,kugis,,,,,,199.6999,201.0287,0,1,0.8172,,0,60,60,154,1,pseudoword,0,REAL,FALSA
,,,,,,,,,61523f5edff0567aa388e752,001,2024-06-30_03h00.47.121,empathy_intonation_perc,2024.1.4,MacIntel,120.4819277,,,,,,,,,,,,,,171,gotro,,,,,,201.0292,202.4307,0,1,0.8879,,0,61,61,170,1,pseudoword,0,REAL,FALSA
,,,,,,,,,61523f5edff0567aa388e752,001,2024-06-30_03h00.47.121,empathy_intonation_perc,2024.1.4,MacIntel,120.4819277,,,,,,,,,,,,,,125,ceme,,,,,,202.4311,203.7552,0,1,0.8019,,0,62,62,124,1,pseudoword,0,REAL,FALSA
,,,,,,,,,61523f5edff0567aa388e752,001,2024-06-30_03h00.47.121,empathy_intonation_perc,2024.1.4,MacIntel,120.4819277,,,,,,,,,,,,,,97,nocita,,,,,,203.7556,207.2634,0,1,2.9892,,0,63,63,96,1,pseudoword,0,REAL,FALSA
,,,,,,,,,61523f5edff0567aa388e752,001,2024-06-30_03h00.47.121,empathy_intonation_perc,2024.1.4,MacIntel,120.4819277,,,,,,,,,,,,,,143,hurcos,,,,,,207.2723,208.6883,0,1,0.8939,,0,64,64,142,1,pseudoword,0,REAL,FALSA
,,,,,,,,,61523f5edff0567aa388e752,001,2024-06-30_03h00.47.121,empathy_intonation_perc,2024.1.4,MacIntel,120.4819277,,,,,,,,,,,,,,29,clamor,,,,,,208.6888,210.0883,0,1,0.8776,,0,65,65,28,1,two_way_cognate,1,REAL,FALSA
,,,,,,,,,61523f5edff0567aa388e752,001,2024-06-30_03h00.47.121,empathy_intonation_perc,2024.1.4,MacIntel,120.4819277,,,,,,,,,,,,,,32,animal,,,,,,210.0889,211.2963,0,1,0.6924,,0,66,66,31,1,two_way_cognate,1,REAL,FALSA
,,,,,,,,,61523f5edff0567aa388e752,001,2024-06-30_03h00.47.121,empathy_intonation_perc,2024.1.4,MacIntel,120.4819277,,,,,,,,,,,,,,70,ánimo,,,,,,211.2968,215.1302,0,1,3.3148,,0,67,67,69,1,non_cognate,1,REAL,FALSA
,,,,,,,,,61523f5edff0567aa388e752,001,2024-06-30_03h00.47.121,empathy_intonation_perc,2024.1.4,MacIntel,120.4819277,,,,,,,,,,,,,,120,mauja,,,,,,215.1386,217.1963,0,1,1.5386,,0,68,68,119,1,pseudoword,0,REAL,FALSA
,,,,,,,,,61523f5edff0567aa388e752,001,2024-06-30_03h00.47.121,empathy_intonation_perc,2024.1.4,MacIntel,120.4819277,,,,,,,,,,,,,,40,pelvis,,,,,,217.1966,218.6339,0,1,0.9228,,0,69,69,39,1,two_way_cognate,1,REAL,FALSA
,,,,,,,,,61523f5edff0567aa388e752,001,2024-06-30_03h00.47.121,empathy_intonation_perc,2024.1.4,MacIntel,120.4819277,,,,,,,,,,,,,,5,extra,,,,,,218.6344,219.8427,0,1,0.6931,,0,70,70,4,1,three_way_cognate,1,REAL,FALSA
,,,,,,,,,61523f5edff0567aa388e752,001,2024-06-30_03h00.47.121,empathy_intonation_perc,2024.1.4,MacIntel,120.4819277,,,,,,,,,,,,,,181,gravés,,,,,,219.8431,223.2248,0,1,2.8668,,0,71,71,180,1,pseudoword,0,REAL,FALSA
,,,,,,,,,61523f5edff0567aa388e752,001,2024-06-30_03h00.47.121,empathy_intonation_perc,2024.1.4,MacIntel,120.4819277,,,,,,,,,,,,,,51,listo,,,,,,223.2327,224.7177,1,0,0.9694,,0,72,72,50,1,non_cognate,1,REAL,FALSA
,,,,,,,,,61523f5edff0567aa388e752,001,2024-06-30_03h00.47.121,empathy_intonation_perc,2024.1.4,MacIntel,120.4819277,,,,,,,,,,,,,,188,amplir,,,,,,224.718,227.0463,0,1,1.8098,,0,73,73,187,1,pseudoword,0,REAL,FALSA
,,,,,,,,,61523f5edff0567aa388e752,001,2024-06-30_03h00.47.121,empathy_intonation_perc,2024.1.4,MacIntel,120.4819277,,,,,,,,,,,,,,62,pegar,,,,,,227.0466,228.4797,0,1,0.9141,,0,74,74,61,1,non_cognate,1,REAL,FALSA
,,,,,,,,,61523f5edff0567aa388e752,001,2024-06-30_03h00.47.121,empathy_intonation_perc,2024.1.4,MacIntel,120.4819277,,,,,,,,,,,,,,163,olzan,,,,,,228.4802,230.5796,0,1,1.5795,,0,75,75,162,1,pseudoword,0,REAL,FALSA
,,,,,,,,,61523f5edff0567aa388e752,001,2024-06-30_03h00.47.121,empathy_intonation_perc,2024.1.4,MacIntel,120.4819277,,,,,,,,,,,,,,121,barbs,,,,,,230.5889,232.1214,0,1,1.0143,,0,76,76,120,1,pseudoword,0,REAL,FALSA
,,,,,,,,,61523f5edff0567aa388e752,001,2024-06-30_03h00.47.121,empathy_intonation_perc,2024.1.4,MacIntel,120.4819277,,,,,,,,,,,,,,27,piano,,,,,,232.1219,234.0701,0,1,1.4286,,0,77,77,26,1,two_way_cognate,1,REAL,FALSA
,,,,,,,,,61523f5edff0567aa388e752,001,2024-06-30_03h00.47.121,empathy_intonation_perc,2024.1.4,MacIntel,120.4819277,,,,,,,,,,,,,,60,siglo,,,,,,234.0706,235.6122,0,1,1.0211,,0,78,78,59,1,non_cognate,1,REAL,FALSA
,,,,,,,,,61523f5edff0567aa388e752,001,2024-06-30_03h00.47.121,empathy_intonation_perc,2024.1.4,MacIntel,120.4819277,,,,,,,,,,,,,,161,civas,,,,,,235.6127,238.4045,0,1,2.2786,,0,79,79,160,1,pseudoword,0,REAL,FALSA
,,,,,,,,,61523f5edff0567aa388e752,001,2024-06-30_03h00.47.121,empathy_intonation_perc,2024.1.4,MacIntel,120.4819277,,,,,,,,,,,,,,150,cricó,,,,,,238.4049,240.2544,0,1,1.3305,,0,80,80,149,1,pseudoword,0,REAL,FALSA
,,,,,,,,,61523f5edff0567aa388e752,001,2024-06-30_03h00.47.121,empathy_intonation_perc,2024.1.4,MacIntel,120.4819277,,,,,,,,,,,,,,43,honor,,,,,,240.2548,241.5628,0,1,0.7866,,0,81,81,42,1,two_way_cognate,1,REAL,FALSA
,,,,,,,,,61523f5edff0567aa388e752,001,2024-06-30_03h00.47.121,empathy_intonation_perc,2024.1.4,MacIntel,120.4819277,,,,,,,,,,,,,,44,editor,,,,,,241.5633,242.9044,0,1,0.821,,0,82,82,43,1,two_way_cognate,1,REAL,FALSA
,,,,,,,,,61523f5edff0567aa388e752,001,2024-06-30_03h00.47.121,empathy_intonation_perc,2024.1.4,MacIntel,120.4819277,,,,,,,,,,,,,,134,molor,,,,,,242.9047,245.7535,0,1,2.3263,,0,83,83,133,1,pseudoword,0,REAL,FALSA
,,,,,,,,,61523f5edff0567aa388e752,001,2024-06-30_03h00.47.121,empathy_intonation_perc,2024.1.4,MacIntel,120.4819277,,,,,,,,,,,,,,137,trugo,,,,,,245.7538,248.1287,0,1,1.859,,0,84,84,136,1,pseudoword,0,REAL,FALSA
,,,,,,,,,61523f5edff0567aa388e752,001,2024-06-30_03h00.47.121,empathy_intonation_perc,2024.1.4,MacIntel,120.4819277,,,,,,,,,,,,,,54,tapón,,,,,,248.129,249.9421,0,1,1.3038,,0,85,85,53,1,non_cognate,1,REAL,FALSA
,,,,,,,,,61523f5edff0567aa388e752,001,2024-06-30_03h00.47.121,empathy_intonation_perc,2024.1.4,MacIntel,120.4819277,,,,,,,,,,,,,,141,virios,,,,,,249.9426,252.5799,0,1,2.1213,,0,86,86,140,1,pseudoword,0,REAL,FALSA
,,,,,,,,,61523f5edff0567aa388e752,001,2024-06-30_03h00.47.121,empathy_intonation_perc,2024.1.4,MacIntel,120.4819277,,,,,,,,,,,,,,77,suave,,,,,,252.5899,254.3341,1,0,1.2249,,0,87,87,76,1,non_cognate,1,REAL,FALSA
,,,,,,,,,61523f5edff0567aa388e752,001,2024-06-30_03h00.47.121,empathy_intonation_perc,2024.1.4,MacIntel,120.4819277,,,,,,,,,,,,,,46,mortal,,,,,,254.3345,255.8021,0,1,0.9554,,0,88,88,45,1,two_way_cognate,1,REAL,FALSA
,,,,,,,,,61523f5edff0567aa388e752,001,2024-06-30_03h00.47.121,empathy_intonation_perc,2024.1.4,MacIntel,120.4819277,,,,,,,,,,,,,,64,rizado,,,,,,255.8027,257.6208,0,1,1.3062,,0,89,89,63,1,non_cognate,1,REAL,FALSA
,,,,,,,,,61523f5edff0567aa388e752,001,2024-06-30_03h00.47.121,empathy_intonation_perc,2024.1.4,MacIntel,120.4819277,,,,,,,,,,,,,,112,samón,,,,,,257.6212,259.4448,0,1,1.3041,,0,90,90,111,1,pseudoword,0,REAL,FALSA
,,,,,,,,,61523f5edff0567aa388e752,001,2024-06-30_03h00.47.121,empathy_intonation_perc,2024.1.4,MacIntel,120.4819277,,,,,,,,,,,,,,93,tapa,,,,,,259.4453,260.9003,1,0,0.9381,,0,91,91,92,1,non_cognate,1,REAL,FALSA
,,,,,,,,,61523f5edff0567aa388e752,001,2024-06-30_03h00.47.121,empathy_intonation_perc,2024.1.4,MacIntel,120.4819277,,,,,,,,,,,,,,182,desaro,,,,,,260.9008,262.6272,0,1,1.2123,,0,92,92,181,1,pseudoword,0,REAL,FALSA
,,,,,,,,,61523f5edff0567aa388e752,001,2024-06-30_03h00.47.121,empathy_intonation_perc,2024.1.4,MacIntel,120.4819277,,,,,,,,,,,,,,22,mango,,,,,,262.6278,264.892,1,0,1.751,,0,93,93,21,1,three_way_cognate,1,REAL,FALSA
,,,,,,,,,61523f5edff0567aa388e752,001,2024-06-30_03h00.47.121,empathy_intonation_perc,2024.1.4,MacIntel,120.4819277,,,,,,,,,,,,,,2,tumor,,,,,,264.8927,266.5637,0,1,1.1543,,0,94,94,1,1,three_way_cognate,1,REAL,FALSA
,,,,,,,,,61523f5edff0567aa388e752,001,2024-06-30_03h00.47.121,empathy_intonation_perc,2024.1.4,MacIntel,120.4819277,,,,,,,,,,,,,,26,enigma,,,,,,266.5643,268.0627,0,1,0.9828,,0,95,95,25,1,two_way_cognate,1,REAL,FALSA
,,,,,,,,,61523f5edff0567aa388e752,001,2024-06-30_03h00.47.121,empathy_intonation_perc,2024.1.4,MacIntel,120.4819277,,,,,,,,,,,,,,135,panté,,,,,,268.0633,269.456,0,1,0.8744,,0,96,96,134,1,pseudoword,0,REAL,FALSA
,,,,,,,,,61523f5edff0567aa388e752,001,2024-06-30_03h00.47.121,empathy_intonation_perc,2024.1.4,MacIntel,120.4819277,,,,,,,,,,,,,,55,maldad,,,,,,269.4564,271.3348,0,1,1.3575,,0,97,97,54,1,non_cognate,1,REAL,FALSA
,,,,,,,,,61523f5edff0567aa388e752,001,2024-06-30_03h00.47.121,empathy_intonation_perc,2024.1.4,MacIntel,120.4819277,,,,,,,,,,,,,,86,cuenco,,,,,,271.3353,273.0173,0,1,1.1686,,0,98,98,85,1,non_cognate,1,REAL,FALSA
,,,,,,,,,61523f5edff0567aa388e752,001,2024-06-30_03h00.47.121,empathy_intonation_perc,2024.1.4,MacIntel,120.4819277,,,,,,,,,,,,,,111,monue,,,,,,273.0178,274.2871,0,1,0.7578,,0,99,99,110,1,pseudoword,0,REAL,FALSA
,,,,,,,,,61523f5edff0567aa388e752,001,2024-06-30_03h00.47.121,empathy_intonation_perc,2024.1.4,MacIntel,120.4819277,,,,,,,,,,,,,,8,kilo,,,,,,274.2876,275.8974,0,1,1.0968,,0,100,100,7,1,three_way_cognate,1,REAL,FALSA
,,,,,,,,,61523f5edff0567aa388e752,001,2024-06-30_03h00.47.121,empathy_intonation_perc,2024.1.4,MacIntel,120.4819277,,,,,,,,,,,,,,14,aura,,,,,,275.8977,277.1687,0,1,0.7555,,0,101,101,13,1,three_way_cognate,1,REAL,FALSA
,,,,,,,,,61523f5edff0567aa388e752,001,2024-06-30_03h00.47.121,empathy_intonation_perc,2024.1.4,MacIntel,120.4819277,,,,,,,,,,,,,,83,hálito,,,,,,277.1691,278.8992,0,1,1.2197,,0,102,102,82,1,non_cognate,1,REAL,FALSA
,,,,,,,,,61523f5edff0567aa388e752,001,2024-06-30_03h00.47.121,empathy_intonation_perc,2024.1.4,MacIntel,120.4819277,,,,,,,,,,,,,,76,chocar,,,,,,278.8997,283.2459,0,1,3.8269,,0,103,103,75,1,non_cognate,1,REAL,FALSA
,,,,,,,,,61523f5edff0567aa388e752,001,2024-06-30_03h00.47.121,empathy_intonation_perc,2024.1.4,MacIntel,120.4819277,,,,,,,,,,,,,,124,lobe,,,,,,283.2546,284.7621,0,1,0.9916,,0,104,104,123,1,pseudoword,0,REAL,FALSA
,,,,,,,,,61523f5edff0567aa388e752,001,2024-06-30_03h00.47.121,empathy_intonation_perc,2024.1.4,MacIntel,120.4819277,,,,,,,,,,,,,,78,rendir,,,,,,284.7627,286.9251,0,1,1.6459,,0,105,105,77,1,non_cognate,1,REAL,FALSA
,,,,,,,,,61523f5edff0567aa388e752,001,2024-06-30_03h00.47.121,empathy_intonation_perc,2024.1.4,MacIntel,120.4819277,,,,,,,,,,,,,,96,caro,,,,,,286.9256,288.9129,1,0,1.472,,0,106,106,95,1,non_cognate,1,REAL,FALSA
,,,,,,,,,61523f5edff0567aa388e752,001,2024-06-30_03h00.47.121,empathy_intonation_perc,2024.1.4,MacIntel,120.4819277,,,,,,,,,,,,,,75,patada,,,,,,288.9136,290.8668,0,1,1.4366,,0,107,107,74,1,non_cognate,1,REAL,FALSA
,,,,,,,,,61523f5edff0567aa388e752,001,2024-06-30_03h00.47.121,empathy_intonation_perc,2024.1.4,MacIntel,120.4819277,,,,,,,,,,,,,,184,huenos,,,,,,290.8671,292.7328,0,1,1.3513,,0,108,108,183,1,pseudoword,0,REAL,FALSA
,,,,,,,,,61523f5edff0567aa388e752,001,2024-06-30_03h00.47.121,empathy_intonation_perc,2024.1.4,MacIntel,120.4819277,,,,,,,,,,,,,,41,pasta,,,,,,292.7335,294.3247,0,1,1.074,,0,109,109,40,1,two_way_cognate,1,REAL,FALSA
,,,,,,,,,61523f5edff0567aa388e752,001,2024-06-30_03h00.47.121,empathy_intonation_perc,2024.1.4,MacIntel,120.4819277,,,,,,,,,,,,,,102,coyo,,,,,,294.3251,295.7751,0,1,0.9281,,0,110,110,101,1,pseudoword,0,REAL,FALSA
,,,,,,,,,61523f5edff0567aa388e752,001,2024-06-30_03h00.47.121,empathy_intonation_perc,2024.1.4,MacIntel,120.4819277,,,,,,,,,,,,,,139,sasos,,,,,,295.7754,297.3158,0,1,1.0189,,0,111,111,138,1,pseudoword,0,REAL,FALSA
,,,,,,,,,61523f5edff0567aa388e752,001,2024-06-30_03h00.47.121,empathy_intonation_perc,2024.1.4,MacIntel,120.4819277,,,,,,,,,,,,,,69,tiza,,,,,,297.3161,299.2496,0,1,1.4131,,0,112,112,68,1,non_cognate,1,REAL,FALSA
,,,,,,,,,61523f5edff0567aa388e752,001,2024-06-30_03h00.47.121,empathy_intonation_perc,2024.1.4,MacIntel,120.4819277,,,,,,,,,,,,,,167,dobbo,,,,,,299.2501,300.8164,0,1,1.0457,,0,113,113,166,1,pseudoword,0,REAL,FALSA
,,,,,,,,,61523f5edff0567aa388e752,001,2024-06-30_03h00.47.121,empathy_intonation_perc,2024.1.4,MacIntel,120.4819277,,,,,,,,,,,,,,164,tecia,,,,,,300.8167,302.8499,0,1,1.5134,,0,114,114,163,1,pseudoword,0,REAL,FALSA
,,,,,,,,,61523f5edff0567aa388e752,001,2024-06-30_03h00.47.121,empathy_intonation_perc,2024.1.4,MacIntel,120.4819277,,,,,,,,,,,,,,89,muñeca,,,,,,302.8505,304.3746,1,0,1.0023,,0,115,115,88,1,non_cognate,1,REAL,FALSA
,,,,,,,,,61523f5edff0567aa388e752,001,2024-06-30_03h00.47.121,empathy_intonation_perc,2024.1.4,MacIntel,120.4819277,,,,,,,,,,,,,,88,percha,,,,,,304.375,306.1822,0,1,1.2889,,0,116,116,87,1,non_cognate,1,REAL,FALSA
,,,,,,,,,61523f5edff0567aa388e752,001,2024-06-30_03h00.47.121,empathy_intonation_perc,2024.1.4,MacIntel,120.4819277,,,,,,,,,,,,,,122,boñaz,,,,,,306.1827,307.6497,0,1,0.9516,,0,117,117,121,1,pseudoword,0,REAL,FALSA
,,,,,,,,,61523f5edff0567aa388e752,001,2024-06-30_03h00.47.121,empathy_intonation_perc,2024.1.4,MacIntel,120.4819277,,,,,,,,,,,,,,151,prías,,,,,,307.65,309.3164,0,1,1.1448,,0,118,118,150,1,pseudoword,0,REAL,FALSA
,,,,,,,,,61523f5edff0567aa388e752,001,2024-06-30_03h00.47.121,empathy_intonation_perc,2024.1.4,MacIntel,120.4819277,,,,,,,,,,,,,,25,vigor,,,,,,309.3169,311.8747,0,1,2.0387,,0,119,119,24,1,two_way_cognate,1,REAL,FALSA
,,,,,,,,,61523f5edff0567aa388e752,001,2024-06-30_03h00.47.121,empathy_intonation_perc,2024.1.4,MacIntel,120.4819277,,,,,,,,,,,,,,58,colcha,,,,,,311.8752,313.5328,0,1,1.1434,,0,120,120,57,1,non_cognate,1,REAL,FALSA
,,,,,,,,,61523f5edff0567aa388e752,001,2024-06-30_03h00.47.121,empathy_intonation_perc,2024.1.4,MacIntel,120.4819277,,,,,,,,,,,,,,17,clan,,,,,,313.5333,315.0662,0,1,1.0135,,0,121,121,16,1,three_way_cognate,1,REAL,FALSA
,,,,,,,,,61523f5edff0567aa388e752,001,2024-06-30_03h00.47.121,empathy_intonation_perc,2024.1.4,MacIntel,120.4819277,,,,,,,,,,,,,,136,hueas,,,,,,315.0667,316.3827,0,1,0.7953,,0,122,122,135,1,pseudoword,0,REAL,FALSA
,,,,,,,,,61523f5edff0567aa388e752,001,2024-06-30_03h00.47.121,empathy_intonation_perc,2024.1.4,MacIntel,120.4819277,,,,,,,,,,,,,,45,total,,,,,,316.383,320.0412,0,1,3.1391,,0,123,123,44,1,two_way_cognate,1,REAL,FALSA
,,,,,,,,,61523f5edff0567aa388e752,001,2024-06-30_03h00.47.121,empathy_intonation_perc,2024.1.4,MacIntel,120.4819277,,,,,,,,,,,,,,31,civil,,,,,,320.0508,321.4818,0,1,0.9104,,0,124,124,30,1,two_way_cognate,1,REAL,FALSA
,,,,,,,,,61523f5edff0567aa388e752,001,2024-06-30_03h00.47.121,empathy_intonation_perc,2024.1.4,MacIntel,120.4819277,,,,,,,,,,,,,,173,mibro,,,,,,321.4822,323.1997,0,1,1.2071,,0,125,125,172,1,pseudoword,0,REAL,FALSA
,,,,,,,,,61523f5edff0567aa388e752,001,2024-06-30_03h00.47.121,empathy_intonation_perc,2024.1.4,MacIntel,120.4819277,,,,,,,,,,,,,,110,densó,,,,,,323.2,324.6074,0,1,0.8855,,0,126,126,109,1,pseudoword,0,REAL,FALSA
,,,,,,,,,61523f5edff0567aa388e752,001,2024-06-30_03h00.47.121,empathy_intonation_perc,2024.1.4,MacIntel,120.4819277,,,,,,,,,,,,,,28,ardor,,,,,,324.6077,326.2907,0,1,1.1702,,0,127,127,27,1,two_way_cognate,1,REAL,FALSA
,,,,,,,,,61523f5edff0567aa388e752,001,2024-06-30_03h00.47.121,empathy_intonation_perc,2024.1.4,MacIntel,120.4819277,,,,,,,,,,,,,,19,mafia,,,,,,326.2912,328.0992,0,1,1.2865,,0,128,128,18,1,three_way_cognate,1,REAL,FALSA
,,,,,,,,,61523f5edff0567aa388e752,001,2024-06-30_03h00.47.121,empathy_intonation_perc,2024.1.4,MacIntel,120.4819277,,,,,,,,,,,,,,115,lidena,,,,,,328.0998,329.7853,0,1,1.1707,,0,129,129,114,1,pseudoword,0,REAL,FALSA
,,,,,,,,,61523f5edff0567aa388e752,001,2024-06-30_03h00.47.121,empathy_intonation_perc,2024.1.4,MacIntel,120.4819277,,,,,,,,,,,,,,95,listo,,,,,,329.7857,331.1911,1,0,0.8872,,0,130,130,94,1,non_cognate,1,REAL,FALSA
,,,,,,,,,61523f5edff0567aa388e752,001,2024-06-30_03h00.47.121,empathy_intonation_perc,2024.1.4,MacIntel,120.4819277,,,,,,,,,,,,,,24,retina,,,,,,331.1916,332.6495,0,1,0.9384,,0,131,131,23,1,three_way_cognate,1,REAL,FALSA
,,,,,,,,,61523f5edff0567aa388e752,001,2024-06-30_03h00.47.121,empathy_intonation_perc,2024.1.4,MacIntel,120.4819277,,,,,,,,,,,,,,133,conso,,,,,,332.6502,334.1742,0,1,1.007,,0,132,132,132,1,pseudoword,0,REAL,FALSA
,,,,,,,,,61523f5edff0567aa388e752,001,2024-06-30_03h00.47.121,empathy_intonation_perc,2024.1.4,MacIntel,120.4819277,,,,,,,,,,,,,,149,emén,,,,,,334.1746,335.4577,0,1,0.7623,,0,133,133,148,1,pseudoword,0,REAL,FALSA
,,,,,,,,,61523f5edff0567aa388e752,001,2024-06-30_03h00.47.121,empathy_intonation_perc,2024.1.4,MacIntel,120.4819277,,,,,,,,,,,,,,36,viable,,,,,,335.4583,336.9652,0,1,0.9902,,0,134,134,35,1,two_way_cognate,1,REAL,FALSA
,,,,,,,,,61523f5edff0567aa388e752,001,2024-06-30_03h00.47.121,empathy_intonation_perc,2024.1.4,MacIntel,120.4819277,,,,,,,,,,,,,,87,muleta,,,,,,336.9657,338.7912,1,0,1.3136,,0,135,135,86,1,non_cognate,1,REAL,FALSA
,,,,,,,,,61523f5edff0567aa388e752,001,2024-06-30_03h00.47.121,empathy_intonation_perc,2024.1.4,MacIntel,120.4819277,,,,,,,,,,,,,,191,frasis,,,,,,338.7918,340.2405,0,1,0.936,,0,136,136,190,1,pseudoword,0,REAL,FALSA
,,,,,,,,,61523f5edff0567aa388e752,001,2024-06-30_03h00.47.121,empathy_intonation_perc,2024.1.4,MacIntel,120.4819277,,,,,,,,,,,,,,172,dogue,,,,,,340.241,341.9096,0,1,1.1608,,0,137,137,171,1,pseudoword,0,REAL,FALSA
,,,,,,,,,61523f5edff0567aa388e752,001,2024-06-30_03h00.47.121,empathy_intonation_perc,2024.1.4,MacIntel,120.4819277,,,,,,,,,,,,,,3,disco,,,,,,341.9103,344.1034,0,1,1.679,,0,138,138,2,1,three_way_cognate,1,REAL,FALSA
,,,,,,,,,61523f5edff0567aa388e752,001,2024-06-30_03h00.47.121,empathy_intonation_perc,2024.1.4,MacIntel,120.4819277,,,,,,,,,,,,,,123,arane,,,,,,344.1039,345.4952,0,1,0.8709,,0,139,139,122,1,pseudoword,0,REAL,FALSA
,,,,,,,,,61523f5edff0567aa388e752,001,2024-06-30_03h00.47.121,empathy_intonation_perc,2024.1.4,MacIntel,120.4819277,,,,,,,,,,,,,,80,cuenco,,,,,,345.4958,347.5244,0,1,1.5166,,0,140,140,79,1,non_cognate,1,REAL,FALSA
,,,,,,,,,61523f5edff0567aa388e752,001,2024-06-30_03h00.47.121,empathy_intonation_perc,2024.1.4,MacIntel,120.4819277,,,,,,,,,,,,,,15,test,,,,,,347.5249,348.9181,0,1,0.8758,,0,141,141,14,1,three_way_cognate,1,REAL,FALSA
,,,,,,,,,61523f5edff0567aa388e752,001,2024-06-30_03h00.47.121,empathy_intonation_perc,2024.1.4,MacIntel,120.4819277,,,,,,,,,,,,,,129,vinzó,,,,,,348.9184,350.453,0,1,1.0219,,0,142,142,128,1,pseudoword,0,REAL,FALSA
,,,,,,,,,61523f5edff0567aa388e752,001,2024-06-30_03h00.47.121,empathy_intonation_perc,2024.1.4,MacIntel,120.4819277,,,,,,,,,,,,,,130,dubo,,,,,,350.4534,351.7201,0,1,0.7522,,0,143,143,129,1,pseudoword,0,REAL,FALSA
,,,,,,,,,61523f5edff0567aa388e752,001,2024-06-30_03h00.47.121,empathy_intonation_perc,2024.1.4,MacIntel,120.4819277,,,,,,,,,,,,,,101,losco,,,,,,351.7206,353.0969,0,1,0.8596,,0,144,144,100,1,pseudoword,0,REAL,FALSA
,,,,,,,,,61523f5edff0567aa388e752,001,2024-06-30_03h00.47.121,empathy_intonation_perc,2024.1.4,MacIntel,120.4819277,,,,,,,,,,,,,,66,aleta,,,,,,353.0974,354.4324,0,1,0.8147,,0,145,145,65,1,non_cognate,1,REAL,FALSA
,,,,,,,,,61523f5edff0567aa388e752,001,2024-06-30_03h00.47.121,empathy_intonation_perc,2024.1.4,MacIntel,120.4819277,,,,,,,,,,,,,,127,vien,,,,,,354.4329,356.0429,0,1,1.0926,,0,146,146,126,1,pseudoword,0,REAL,FALSA
,,,,,,,,,61523f5edff0567aa388e752,001,2024-06-30_03h00.47.121,empathy_intonation_perc,2024.1.4,MacIntel,120.4819277,,,,,,,,,,,,,,30,fiscal,,,,,,356.0435,357.6689,0,1,1.1111,,0,147,147,29,1,two_way_cognate,1,REAL,FALSA
,,,,,,,,,61523f5edff0567aa388e752,001,2024-06-30_03h00.47.121,empathy_intonation_perc,2024.1.4,MacIntel,120.4819277,,,,,,,,,,,,,,152,prave,,,,,,357.6693,358.9074,0,1,0.7252,,0,148,148,151,1,pseudoword,0,REAL,FALSA
,,,,,,,,,61523f5edff0567aa388e752,001,2024-06-30_03h00.47.121,empathy_intonation_perc,2024.1.4,MacIntel,120.4819277,,,,,,,,,,,,,,118,bará,,,,,,358.9079,361.2073,0,1,1.7871,,0,149,149,117,1,pseudoword,0,REAL,FALSA
,,,,,,,,,61523f5edff0567aa388e752,001,2024-06-30_03h00.47.121,empathy_intonation_perc,2024.1.4,MacIntel,120.4819277,,,,,,,,,,,,,,190,asumie,,,,,,361.2078,362.5592,0,1,0.8289,,0,150,150,189,1,pseudoword,0,REAL,FALSA
,,,,,,,,,61523f5edff0567aa388e752,001,2024-06-30_03h00.47.121,empathy_intonation_perc,2024.1.4,MacIntel,120.4819277,,,,,,,,,,,,,,169,pitis,,,,,,362.5596,363.8739,0,1,0.7997,,0,151,151,168,1,pseudoword,0,REAL,FALSA
,,,,,,,,,61523f5edff0567aa388e752,001,2024-06-30_03h00.47.121,empathy_intonation_perc,2024.1.4,MacIntel,120.4819277,,,,,,,,,,,,,,47,color,,,,,,363.8745,365.545,1,0,1.1514,,0,152,152,46,1,two_way_cognate,1,REAL,FALSA
,,,,,,,,,61523f5edff0567aa388e752,001,2024-06-30_03h00.47.121,empathy_intonation_perc,2024.1.4,MacIntel,120.4819277,,,,,,,,,,,,,,4,flora,,,,,,365.5453,367.6783,1,0,1.6172,,0,153,153,3,1,three_way_cognate,1,REAL,FALSA
,,,,,,,,,61523f5edff0567aa388e752,001,2024-06-30_03h00.47.121,empathy_intonation_perc,2024.1.4,MacIntel,120.4819277,,,,,,,,,,,,,,144,diroco,,,,,,367.6789,371.5907,0,1,3.3956,,0,154,154,143,1,pseudoword,0,REAL,FALSA
,,,,,,,,,61523f5edff0567aa388e752,001,2024-06-30_03h00.47.121,empathy_intonation_perc,2024.1.4,MacIntel,120.4819277,,,,,,,,,,,,,,157,seled,,,,,,371.6,372.9738,0,1,0.853,,0,155,155,156,1,pseudoword,0,REAL,FALSA
,,,,,,,,,61523f5edff0567aa388e752,001,2024-06-30_03h00.47.121,empathy_intonation_perc,2024.1.4,MacIntel,120.4819277,,,,,,,,,,,,,,61,aduana,,,,,,372.9742,374.3626,0,1,0.8753,,0,156,156,60,1,non_cognate,1,REAL,FALSA
,,,,,,,,,61523f5edff0567aa388e752,001,2024-06-30_03h00.47.121,empathy_intonation_perc,2024.1.4,MacIntel,120.4819277,,,,,,,,,,,,,,52,blando,,,,,,374.3631,375.9323,0,1,1.0567,,0,157,157,51,1,non_cognate,1,REAL,FALSA
,,,,,,,,,61523f5edff0567aa388e752,001,2024-06-30_03h00.47.121,empathy_intonation_perc,2024.1.4,MacIntel,120.4819277,,,,,,,,,,,,,,13,plan,,,,,,375.9327,377.1949,0,1,0.746,,0,158,158,12,1,three_way_cognate,1,REAL,FALSA
,,,,,,,,,61523f5edff0567aa388e752,001,2024-06-30_03h00.47.121,empathy_intonation_perc,2024.1.4,MacIntel,120.4819277,,,,,,,,,,,,,,114,dibrea,,,,,,377.1955,378.6533,0,1,0.9405,,0,159,159,113,1,pseudoword,0,REAL,FALSA
,,,,,,,,,61523f5edff0567aa388e752,001,2024-06-30_03h00.47.121,empathy_intonation_perc,2024.1.4,MacIntel,120.4819277,,,,,,,,,,,,,,117,morrá,,,,,,378.6538,380.1208,0,1,0.9562,,0,160,160,116,1,pseudoword,0,REAL,FALSA
,,,,,,,,,61523f5edff0567aa388e752,001,2024-06-30_03h00.47.121,empathy_intonation_perc,2024.1.4,MacIntel,120.4819277,,,,,,,,,,,,,,192,próces,,,,,,380.1213,382.125,0,1,1.4831,,0,161,161,191,1,pseudoword,0,REAL,FALSA
,,,,,,,,,61523f5edff0567aa388e752,001,2024-06-30_03h00.47.121,empathy_intonation_perc,2024.1.4,MacIntel,120.4819277,,,,,,,,,,,,,,119,esís,,,,,,382.1255,384.0543,0,1,1.4134,,0,162,162,118,1,pseudoword,0,REAL,FALSA
,,,,,,,,,61523f5edff0567aa388e752,001,2024-06-30_03h00.47.121,empathy_intonation_perc,2024.1.4,MacIntel,120.4819277,,,,,,,,,,,,,,187,nomata,,,,,,384.0548,385.6657,0,1,1.0932,,0,163,163,186,1,pseudoword,0,REAL,FALSA
,,,,,,,,,61523f5edff0567aa388e752,001,2024-06-30_03h00.47.121,empathy_intonation_perc,2024.1.4,MacIntel,120.4819277,,,,,,,,,,,,,,146,gió,,,,,,385.6662,387.2276,0,1,1.0454,,0,164,164,145,1,pseudoword,0,REAL,FALSA
,,,,,,,,,61523f5edff0567aa388e752,001,2024-06-30_03h00.47.121,empathy_intonation_perc,2024.1.4,MacIntel,120.4819277,,,,,,,,,,,,,,63,hilo,,,,,,387.2283,389.569,0,1,1.8289,,0,165,165,62,1,non_cognate,1,REAL,FALSA
,,,,,,,,,61523f5edff0567aa388e752,001,2024-06-30_03h00.47.121,empathy_intonation_perc,2024.1.4,MacIntel,120.4819277,,,,,,,,,,,,,,98,martir,,,,,,389.5696,391.2489,0,1,1.159,,0,166,166,97,1,pseudoword,0,REAL,FALSA
,,,,,,,,,61523f5edff0567aa388e752,001,2024-06-30_03h00.47.121,empathy_intonation_perc,2024.1.4,MacIntel,120.4819277,,,,,,,,,,,,,,92,flecha,,,,,,391.2495,392.9321,1,0,1.1653,,0,167,167,91,1,non_cognate,1,REAL,FALSA
,,,,,,,,,61523f5edff0567aa388e752,001,2024-06-30_03h00.47.121,empathy_intonation_perc,2024.1.4,MacIntel,120.4819277,,,,,,,,,,,,,,91,equipo,,,,,,392.9327,394.907,1,0,1.4516,,0,168,168,90,1,non_cognate,1,REAL,FALSA
,,,,,,,,,61523f5edff0567aa388e752,001,2024-06-30_03h00.47.121,empathy_intonation_perc,2024.1.4,MacIntel,120.4819277,,,,,,,,,,,,,,6,horror,,,,,,394.9075,396.6734,1,0,1.2459,,0,169,169,5,1,three_way_cognate,1,REAL,FALSA
,,,,,,,,,61523f5edff0567aa388e752,001,2024-06-30_03h00.47.121,empathy_intonation_perc,2024.1.4,MacIntel,120.4819277,,,,,,,,,,,,,,105,leniz,,,,,,396.6738,398.8983,0,1,1.7132,,0,170,170,104,1,pseudoword,0,REAL,FALSA
,,,,,,,,,61523f5edff0567aa388e752,001,2024-06-30_03h00.47.121,empathy_intonation_perc,2024.1.4,MacIntel,120.4819277,,,,,,,,,,,,,,57,regalo,,,,,,398.8986,400.5238,1,0,1.1151,,0,171,171,56,1,non_cognate,1,REAL,FALSA
,,,,,,,,,61523f5edff0567aa388e752,001,2024-06-30_03h00.47.121,empathy_intonation_perc,2024.1.4,MacIntel,120.4819277,,,,,,,,,,,,,,18,altar,,,,,,400.5244,401.9984,0,1,0.9543,,0,172,172,17,1,three_way_cognate,1,REAL,FALSA
,,,,,,,,,61523f5edff0567aa388e752,001,2024-06-30_03h00.47.121,empathy_intonation_perc,2024.1.4,MacIntel,120.4819277,,,,,,,,,,,,,,67,llamar,,,,,,401.9986,403.6644,1,0,1.1428,,0,173,173,66,1,non_cognate,1,REAL,FALSA
,,,,,,,,,61523f5edff0567aa388e752,001,2024-06-30_03h00.47.121,empathy_intonation_perc,2024.1.4,MacIntel,120.4819277,,,,,,,,,,,,,,21,hotel,,,,,,403.6649,405.8653,1,0,1.6806,,0,174,174,20,1,three_way_cognate,1,REAL,FALSA
,,,,,,,,,61523f5edff0567aa388e752,001,2024-06-30_03h00.47.121,empathy_intonation_perc,2024.1.4,MacIntel,120.4819277,,,,,,,,,,,,,,159,trcia,,,,,,405.8659,408.0364,0,1,1.6607,,0,175,175,158,1,pseudoword,0,REAL,FALSA
,,,,,,,,,61523f5edff0567aa388e752,001,2024-06-30_03h00.47.121,empathy_intonation_perc,2024.1.4,MacIntel,120.4819277,,,,,,,,,,,,,,104,estulo,,,,,,408.037,410.1321,0,1,1.5783,,0,176,176,103,1,pseudoword,0,REAL,FALSA
,,,,,,,,,61523f5edff0567aa388e752,001,2024-06-30_03h00.47.121,empathy_intonation_perc,2024.1.4,MacIntel,120.4819277,,,,,,,,,,,,,,145,rúo,,,,,,410.1326,411.4238,0,1,0.7719,,0,177,177,144,1,pseudoword,0,REAL,FALSA
,,,,,,,,,61523f5edff0567aa388e752,001,2024-06-30_03h00.47.121,empathy_intonation_perc,2024.1.4,MacIntel,120.4819277,,,,,,,,,,,,,,7,albino,,,,,,411.4243,412.9986,0,1,1.055,,0,178,178,6,1,three_way_cognate,1,REAL,FALSA
,,,,,,,,,61523f5edff0567aa388e752,001,2024-06-30_03h00.47.121,empathy_intonation_perc,2024.1.4,MacIntel,120.4819277,,,,,,,,,,,,,,147,alla,,,,,,412.9991,415.256,0,1,1.7362,,0,179,179,146,1,pseudoword,0,REAL,FALSA
,,,,,,,,,61523f5edff0567aa388e752,001,2024-06-30_03h00.47.121,empathy_intonation_perc,2024.1.4,MacIntel,120.4819277,,,,,,,,,,,,,,48,pelvis,,,,,,415.2566,416.6733,0,1,0.9041,,0,180,180,47,1,two_way_cognate,1,REAL,FALSA
,,,,,,,,,61523f5edff0567aa388e752,001,2024-06-30_03h00.47.121,empathy_intonation_perc,2024.1.4,MacIntel,120.4819277,,,,,,,,,,,,,,185,aljizo,,,,,,416.6737,418.0818,0,1,0.8875,,0,181,181,184,1,pseudoword,0,REAL,FALSA
,,,,,,,,,61523f5edff0567aa388e752,001,2024-06-30_03h00.47.121,empathy_intonation_perc,2024.1.4,MacIntel,120.4819277,,,,,,,,,,,,,,10,drama,,,,,,418.0825,419.6818,0,1,1.0795,,0,182,182,9,1,three_way_cognate,1,REAL,FALSA
,,,,,,,,,61523f5edff0567aa388e752,001,2024-06-30_03h00.47.121,empathy_intonation_perc,2024.1.4,MacIntel,120.4819277,,,,,,,,,,,,,,74,ala,,,,,,419.6824,421.0735,0,1,0.8719,,0,183,183,73,1,non_cognate,1,REAL,FALSA
,,,,,,,,,61523f5edff0567aa388e752,001,2024-06-30_03h00.47.121,empathy_intonation_perc,2024.1.4,MacIntel,120.4819277,,,,,,,,,,,,,,84,aviso,,,,,,421.074,423.4818,1,0,1.8854,,0,184,184,83,1,non_cognate,1,REAL,FALSA
,,,,,,,,,61523f5edff0567aa388e752,001,2024-06-30_03h00.47.121,empathy_intonation_perc,2024.1.4,MacIntel,120.4819277,,,,,,,,,,,,,,68,puñal,,,,,,423.4822,425.0069,0,1,1.0048,,0,185,185,67,1,non_cognate,1,REAL,FALSA
,,,,,,,,,61523f5edff0567aa388e752,001,2024-06-30_03h00.47.121,empathy_intonation_perc,2024.1.4,MacIntel,120.4819277,,,,,,,,,,,,,,90,venado,,,,,,425.0075,427.3066,0,1,1.7787,,0,186,186,89,1,non_cognate,1,REAL,FALSA
,,,,,,,,,61523f5edff0567aa388e752,001,2024-06-30_03h00.47.121,empathy_intonation_perc,2024.1.4,MacIntel,120.4819277,,,,,,,,,,,,,,73,llevar,,,,,,427.307,428.7651,1,0,0.9383,,0,187,187,72,1,non_cognate,1,REAL,FALSA
,,,,,,,,,61523f5edff0567aa388e752,001,2024-06-30_03h00.47.121,empathy_intonation_perc,2024.1.4,MacIntel,120.4819277,,,,,,,,,,,,,,82,brillo,,,,,,428.7656,430.5384,1,0,1.2534,,0,188,188,81,1,non_cognate,1,REAL,FALSA
,,,,,,,,,61523f5edff0567aa388e752,001,2024-06-30_03h00.47.121,empathy_intonation_perc,2024.1.4,MacIntel,120.4819277,,,,,,,,,,,,,,153,golla,,,,,,430.5386,431.9608,0,1,0.9034,,0,189,189,152,1,pseudoword,0,REAL,FALSA
,,,,,,,,,61523f5edff0567aa388e752,001,2024-06-30_03h00.47.121,empathy_intonation_perc,2024.1.4,MacIntel,120.4819277,,,,,,,,,,,,,,23,plural,,,,,,431.9613,433.4907,0,1,1.012,,0,190,190,22,1,three_way_cognate,1,REAL,FALSA
,,,,,,,,,61523f5edff0567aa388e752,001,2024-06-30_03h00.47.121,empathy_intonation_perc,2024.1.4,MacIntel,120.4819277,,,,,,,,,,,,,,103,vueras,,,,,,433.4913,435.0934,0,1,1.0835,,0,191,191,102,1,pseudoword,0,REAL,FALSA
