lextale_instructions.started,lextale_instructions.stopped,lextale_instructions_loop.thisRepN,lextale_instructions_loop.thisTrialN,lextale_instructions_loop.thisN,lextale_instructions_loop.thisIndex,lextale_instructions_loop.ran,instructions_text,continue_text,participant,session,date,expName,psychopyVersion,OS,frameRate,lextale_practice.started,lextale_practice.stopped,key_resp_lextale_practice.keys,key_resp_lextale_practice.corr,key_resp_lextale_practice.rt,key_resp_lextale_practice.duration,lextale_practice_feedback.started,lextale_practice_feedback.stopped,lextale_practice_trials.thisRepN,lextale_practice_trials.thisTrialN,lextale_practice_trials.thisN,lextale_practice_trials.thisIndex,lextale_practice_trials.ran,stim,word,correct_response,prac_button_real,prac_button_false,lextale_check.started,lextale_check.stopped,lextale_trial.started,lextale_trial.stopped,key_resp_lextale_trial.keys,key_resp_lextale_trial.corr,key_resp_lextale_trial.rt,key_resp_lextale_trial.duration,lextail_trials.thisRepN,lextail_trials.thisTrialN,lextail_trials.thisN,lextail_trials.thisIndex,lextail_trials.ran,type,correct_reponse,button_real,button_false
0.0025,5.5521,0,0,0,0,1,"Este es un test de vocabulario en español. 
  
  A continuación vas a ver 90 secuencias de letras que parecen 'españolas'.
  
  Solo algunas de ellas son palabras de verdad.",(presiona la barra espaciadora para continuar),62ac76db32757a0dbb1c59f0,001,2024-06-30_06h16.38.686,empathy_intonation_perc,2024.1.4,Win32,19.96007984,,,,,,,,,,,,,,,,,,,,,,,,,,,,,,,,,,,
5.5524,40.8415,0,1,1,1,1,"Por favor, señala las palabras que tú conoces (aquellas que estás convencido que son palabras españolas, incluso aunque no seas capaz de dar el significado preciso).",(presiona la barra espaciadora para continuar),62ac76db32757a0dbb1c59f0,001,2024-06-30_06h16.38.686,empathy_intonation_perc,2024.1.4,Win32,19.96007984,,,,,,,,,,,,,,,,,,,,,,,,,,,,,,,,,,,
40.8417,51.625,0,2,2,2,1,Pero cuidado: los errores se penalizan. Por eso no tiene sentido tratar de incrementar tu puntuación marcando como reales palabras que nunca has visto.,(presiona la barra espaciadora para continuar),62ac76db32757a0dbb1c59f0,001,2024-06-30_06h16.38.686,empathy_intonation_perc,2024.1.4,Win32,19.96007984,,,,,,,,,,,,,,,,,,,,,,,,,,,,,,,,,,,
51.6252,61.5642,0,3,3,3,1,"Presiona la tecla 1 si piensas que es una palabra real y la tecla 
  0 si piensas que es una palabra falsa. 
  
  Vamos a practicar un poco...",(presiona la barra espaciadora para continuar),62ac76db32757a0dbb1c59f0,001,2024-06-30_06h16.38.686,empathy_intonation_perc,2024.1.4,Win32,19.96007984,,,,,,,,,,,,,,,,,,,,,,,,,,,,,,,,,,,
,,,,,,,,,62ac76db32757a0dbb1c59f0,001,2024-06-30_06h16.38.686,empathy_intonation_perc,2024.1.4,Win32,19.96007984,61.5755,69.8424,0,1,7.6412,,69.8509,70.7868,0,0,0,0,1,0,depiste,0,REAL,FALSA,,,,,,,,,,,,,,,,,
,,,,,,,,,62ac76db32757a0dbb1c59f0,001,2024-06-30_06h16.38.686,empathy_intonation_perc,2024.1.4,Win32,19.96007984,70.7871,73.1129,1,1,1.7335,0.0001,73.113,74.0431,0,1,1,1,1,0,sí,1,REAL,FALSA,,,,,,,,,,,,,,,,,
,,,,,,,,,62ac76db32757a0dbb1c59f0,001,2024-06-30_06h16.38.686,empathy_intonation_perc,2024.1.4,Win32,19.96007984,74.0433,80.5753,0,1,5.9372,,80.5753,81.5891,0,2,2,2,1,0,coné,0,REAL,FALSA,,,,,,,,,,,,,,,,,
,,,,,,,,,62ac76db32757a0dbb1c59f0,001,2024-06-30_06h16.38.686,empathy_intonation_perc,2024.1.4,Win32,19.96007984,81.5983,85.7467,0,1,3.5597,,85.7468,86.6908,0,3,3,3,1,0,calpar,0,REAL,FALSA,,,,,,,,,,,,,,,,,
,,,,,,,,,62ac76db32757a0dbb1c59f0,001,2024-06-30_06h16.38.686,empathy_intonation_perc,2024.1.4,Win32,19.96007984,86.6991,93.653,0,1,6.3613,,93.6531,94.6686,0,4,4,4,1,0,joten,0,REAL,FALSA,,,,,,,,,,,,,,,,,
,,,,,,,,,62ac76db32757a0dbb1c59f0,001,2024-06-30_06h16.38.686,empathy_intonation_perc,2024.1.4,Win32,19.96007984,94.6772,100.1287,1,1,4.8636,,100.1287,101.0798,0,5,5,5,1,0,sacapuntas,1,REAL,FALSA,,,,,,,,,,,,,,,,,
,,,,,,,,,62ac76db32757a0dbb1c59f0,001,2024-06-30_06h16.38.686,empathy_intonation_perc,2024.1.4,Win32,19.96007984,101.088,105.188,0,1,3.5144,0.0001,105.1881,106.2056,0,6,6,6,1,0,priba,0,REAL,FALSA,,,,,,,,,,,,,,,,,
,,,,,,,,,62ac76db32757a0dbb1c59f0,001,2024-06-30_06h16.38.686,empathy_intonation_perc,2024.1.4,Win32,19.96007984,106.2139,113.379,0,1,6.5742,,113.3791,114.3215,0,7,7,7,1,0,pelasula,0,REAL,FALSA,,,,,,,,,,,,,,,,,
,,,,,,,,,62ac76db32757a0dbb1c59f0,001,2024-06-30_06h16.38.686,empathy_intonation_perc,2024.1.4,Win32,19.96007984,114.3299,116.0433,1,1,1.1208,,116.0433,116.9829,0,8,8,8,1,0,bien,1,REAL,FALSA,,,,,,,,,,,,,,,,,
,,,,,,,,,62ac76db32757a0dbb1c59f0,001,2024-06-30_06h16.38.686,empathy_intonation_perc,2024.1.4,Win32,19.96007984,116.9832,120.4075,1,1,2.7889,,120.4075,121.4278,0,9,9,9,1,0,casa,1,REAL,FALSA,,,,,,,,,,,,,,,,,
,,,,,,,,,62ac76db32757a0dbb1c59f0,001,2024-06-30_06h16.38.686,empathy_intonation_perc,2024.1.4,Win32,19.96007984,121.436,125.9968,0,1,3.9736,,125.9968,127.0139,0,10,10,10,1,0,lejo,0,REAL,FALSA,,,,,,,,,,,,,,,,,
,,,,,,,,,62ac76db32757a0dbb1c59f0,001,2024-06-30_06h16.38.686,empathy_intonation_perc,2024.1.4,Win32,19.96007984,127.0219,129.8818,0,1,2.2705,,129.8818,130.8506,0,11,11,11,1,0,pretantas,0,REAL,FALSA,,,,,,,,,,,,,,,,,
,,,,,,,,,62ac76db32757a0dbb1c59f0,001,2024-06-30_06h16.38.686,empathy_intonation_perc,2024.1.4,Win32,19.96007984,,,,,,,,,,,,,,,,,,,130.8509,135.6149,,,,,,,,,,,,,,,
,,,,,,,,,62ac76db32757a0dbb1c59f0,001,2024-06-30_06h16.38.686,empathy_intonation_perc,2024.1.4,Win32,19.96007984,,,,,,,,,,,,,,129,vinzó,,,,,,135.6306,143.0738,1,0,6.7809,,0,0,0,128,1,pseudoword,0,REAL,FALSA
,,,,,,,,,62ac76db32757a0dbb1c59f0,001,2024-06-30_06h16.38.686,empathy_intonation_perc,2024.1.4,Win32,19.96007984,,,,,,,,,,,,,,96,caro,,,,,,143.0827,145.6299,1,0,1.9558,,0,1,1,95,1,non_cognate,1,REAL,FALSA
,,,,,,,,,62ac76db32757a0dbb1c59f0,001,2024-06-30_06h16.38.686,empathy_intonation_perc,2024.1.4,Win32,19.96007984,,,,,,,,,,,,,,137,trugo,,,,,,145.6382,148.683,0,1,2.4468,,0,2,2,136,1,pseudoword,0,REAL,FALSA
,,,,,,,,,62ac76db32757a0dbb1c59f0,001,2024-06-30_06h16.38.686,empathy_intonation_perc,2024.1.4,Win32,19.96007984,,,,,,,,,,,,,,18,altar,,,,,,148.6832,150.6857,0,1,1.4001,,0,3,3,17,1,three_way_cognate,1,REAL,FALSA
,,,,,,,,,62ac76db32757a0dbb1c59f0,001,2024-06-30_06h16.38.686,empathy_intonation_perc,2024.1.4,Win32,19.96007984,,,,,,,,,,,,,,165,chote,,,,,,150.686,153.7107,0,1,2.4281,,0,4,4,164,1,pseudoword,0,REAL,FALSA
,,,,,,,,,62ac76db32757a0dbb1c59f0,001,2024-06-30_06h16.38.686,empathy_intonation_perc,2024.1.4,Win32,19.96007984,,,,,,,,,,,,,,82,brillo,,,,,,153.7109,156.0677,1,0,1.7645,,0,5,5,81,1,non_cognate,1,REAL,FALSA
,,,,,,,,,62ac76db32757a0dbb1c59f0,001,2024-06-30_06h16.38.686,empathy_intonation_perc,2024.1.4,Win32,19.96007984,,,,,,,,,,,,,,140,chorde,,,,,,156.0679,159.0563,0,1,2.3946,0.0001,0,6,6,139,1,pseudoword,0,REAL,FALSA
,,,,,,,,,62ac76db32757a0dbb1c59f0,001,2024-06-30_06h16.38.686,empathy_intonation_perc,2024.1.4,Win32,19.96007984,,,,,,,,,,,,,,133,conso,,,,,,159.0656,161.353,0,1,1.6746,,0,7,7,132,1,pseudoword,0,REAL,FALSA
,,,,,,,,,62ac76db32757a0dbb1c59f0,001,2024-06-30_06h16.38.686,empathy_intonation_perc,2024.1.4,Win32,19.96007984,,,,,,,,,,,,,,168,cobén,,,,,,161.3533,163.7013,0,1,1.7499,,0,8,8,167,1,pseudoword,0,REAL,FALSA
,,,,,,,,,62ac76db32757a0dbb1c59f0,001,2024-06-30_06h16.38.686,empathy_intonation_perc,2024.1.4,Win32,19.96007984,,,,,,,,,,,,,,170,diabo,,,,,,163.7015,166.9557,0,1,2.626,,0,9,9,169,1,pseudoword,0,REAL,FALSA
,,,,,,,,,62ac76db32757a0dbb1c59f0,001,2024-06-30_06h16.38.686,empathy_intonation_perc,2024.1.4,Win32,19.96007984,,,,,,,,,,,,,,61,aduana,,,,,,166.9717,169.0032,1,0,1.3998,,0,10,10,60,1,non_cognate,1,REAL,FALSA
,,,,,,,,,62ac76db32757a0dbb1c59f0,001,2024-06-30_06h16.38.686,empathy_intonation_perc,2024.1.4,Win32,19.96007984,,,,,,,,,,,,,,179,suelet,,,,,,169.0034,172.2251,0,1,2.6249,,0,11,11,178,1,pseudoword,0,REAL,FALSA
,,,,,,,,,62ac76db32757a0dbb1c59f0,001,2024-06-30_06h16.38.686,empathy_intonation_perc,2024.1.4,Win32,19.96007984,,,,,,,,,,,,,,80,cuenco,,,,,,172.2334,175.0042,1,0,2.1549,,0,12,12,79,1,non_cognate,1,REAL,FALSA
,,,,,,,,,62ac76db32757a0dbb1c59f0,001,2024-06-30_06h16.38.686,empathy_intonation_perc,2024.1.4,Win32,19.96007984,,,,,,,,,,,,,,81,sacar,,,,,,175.0044,177.6058,1,0,2.0047,,0,13,13,80,1,non_cognate,1,REAL,FALSA
,,,,,,,,,62ac76db32757a0dbb1c59f0,001,2024-06-30_06h16.38.686,empathy_intonation_perc,2024.1.4,Win32,19.96007984,,,,,,,,,,,,,,47,color,,,,,,177.6061,179.8504,1,0,1.6508,,0,14,14,46,1,two_way_cognate,1,REAL,FALSA
,,,,,,,,,62ac76db32757a0dbb1c59f0,001,2024-06-30_06h16.38.686,empathy_intonation_perc,2024.1.4,Win32,19.96007984,,,,,,,,,,,,,,72,rostro,,,,,,179.8506,183.4736,1,0,3.0204,,0,15,15,71,1,non_cognate,1,REAL,FALSA
,,,,,,,,,62ac76db32757a0dbb1c59f0,001,2024-06-30_06h16.38.686,empathy_intonation_perc,2024.1.4,Win32,19.96007984,,,,,,,,,,,,,,121,barbs,,,,,,183.4824,186.3729,0,1,2.2796,0.0001,0,16,16,120,1,pseudoword,0,REAL,FALSA
,,,,,,,,,62ac76db32757a0dbb1c59f0,001,2024-06-30_06h16.38.686,empathy_intonation_perc,2024.1.4,Win32,19.96007984,,,,,,,,,,,,,,146,gió,,,,,,186.3812,188.7549,0,1,1.745,0,0,17,17,145,1,pseudoword,0,REAL,FALSA
,,,,,,,,,62ac76db32757a0dbb1c59f0,001,2024-06-30_06h16.38.686,empathy_intonation_perc,2024.1.4,Win32,19.96007984,,,,,,,,,,,,,,13,plan,,,,,,188.7551,191.1082,1,0,1.7576,0,0,18,18,12,1,three_way_cognate,1,REAL,FALSA
,,,,,,,,,62ac76db32757a0dbb1c59f0,001,2024-06-30_06h16.38.686,empathy_intonation_perc,2024.1.4,Win32,19.96007984,,,,,,,,,,,,,,115,lidena,,,,,,191.1084,193.6029,0,1,1.9009,0.0001,0,19,19,114,1,pseudoword,0,REAL,FALSA
,,,,,,,,,62ac76db32757a0dbb1c59f0,001,2024-06-30_06h16.38.686,empathy_intonation_perc,2024.1.4,Win32,19.96007984,,,,,,,,,,,,,,12,dogma,,,,,,193.603,198.2733,0,1,4.0789,,0,20,20,11,1,three_way_cognate,1,REAL,FALSA
,,,,,,,,,62ac76db32757a0dbb1c59f0,001,2024-06-30_06h16.38.686,empathy_intonation_perc,2024.1.4,Win32,19.96007984,,,,,,,,,,,,,,63,hilo,,,,,,198.2813,202.1399,1,0,3.2705,,0,21,21,62,1,non_cognate,1,REAL,FALSA
,,,,,,,,,62ac76db32757a0dbb1c59f0,001,2024-06-30_06h16.38.686,empathy_intonation_perc,2024.1.4,Win32,19.96007984,,,,,,,,,,,,,,53,punta,,,,,,202.1481,205.7729,1,0,3.0368,,0,22,22,52,1,non_cognate,1,REAL,FALSA
,,,,,,,,,62ac76db32757a0dbb1c59f0,001,2024-06-30_06h16.38.686,empathy_intonation_perc,2024.1.4,Win32,19.96007984,,,,,,,,,,,,,,5,extra,,,,,,205.7819,209.897,1,0,3.5252,,0,23,23,4,1,three_way_cognate,1,REAL,FALSA
,,,,,,,,,62ac76db32757a0dbb1c59f0,001,2024-06-30_06h16.38.686,empathy_intonation_perc,2024.1.4,Win32,19.96007984,,,,,,,,,,,,,,26,enigma,,,,,,209.9053,211.91,1,0,1.4086,,0,24,24,25,1,two_way_cognate,1,REAL,FALSA
,,,,,,,,,62ac76db32757a0dbb1c59f0,001,2024-06-30_06h16.38.686,empathy_intonation_perc,2024.1.4,Win32,19.96007984,,,,,,,,,,,,,,99,bugor,,,,,,211.9102,215.3392,0,1,2.8396,,0,25,25,98,1,pseudoword,0,REAL,FALSA
,,,,,,,,,62ac76db32757a0dbb1c59f0,001,2024-06-30_06h16.38.686,empathy_intonation_perc,2024.1.4,Win32,19.96007984,,,,,,,,,,,,,,34,actor,,,,,,215.3395,217.9725,1,0,2.0343,,0,26,26,33,1,two_way_cognate,1,REAL,FALSA
,,,,,,,,,62ac76db32757a0dbb1c59f0,001,2024-06-30_06h16.38.686,empathy_intonation_perc,2024.1.4,Win32,19.96007984,,,,,,,,,,,,,,4,flora,,,,,,217.9727,221.3757,1,0,2.7867,,0,27,27,3,1,three_way_cognate,1,REAL,FALSA
,,,,,,,,,62ac76db32757a0dbb1c59f0,001,2024-06-30_06h16.38.686,empathy_intonation_perc,2024.1.4,Win32,19.96007984,,,,,,,,,,,,,,192,próces,,,,,,221.3841,223.5408,1,0,1.5643,,0,28,28,191,1,pseudoword,0,REAL,FALSA
,,,,,,,,,62ac76db32757a0dbb1c59f0,001,2024-06-30_06h16.38.686,empathy_intonation_perc,2024.1.4,Win32,19.96007984,,,,,,,,,,,,,,114,dibrea,,,,,,223.541,226.6506,0,1,2.4798,0.0001,0,29,29,113,1,pseudoword,0,REAL,FALSA
,,,,,,,,,62ac76db32757a0dbb1c59f0,001,2024-06-30_06h16.38.686,empathy_intonation_perc,2024.1.4,Win32,19.96007984,,,,,,,,,,,,,,188,amplir,,,,,,226.6508,230.3645,1,0,3.123,,0,30,30,187,1,pseudoword,0,REAL,FALSA
,,,,,,,,,62ac76db32757a0dbb1c59f0,001,2024-06-30_06h16.38.686,empathy_intonation_perc,2024.1.4,Win32,19.96007984,,,,,,,,,,,,,,142,parre,,,,,,230.3727,232.3749,0,1,1.4018,,0,31,31,141,1,pseudoword,0,REAL,FALSA
,,,,,,,,,62ac76db32757a0dbb1c59f0,001,2024-06-30_06h16.38.686,empathy_intonation_perc,2024.1.4,Win32,19.96007984,,,,,,,,,,,,,,19,mafia,,,,,,232.3751,234.6297,0,1,1.6627,0,0,32,32,18,1,three_way_cognate,1,REAL,FALSA
,,,,,,,,,62ac76db32757a0dbb1c59f0,001,2024-06-30_06h16.38.686,empathy_intonation_perc,2024.1.4,Win32,19.96007984,,,,,,,,,,,,,,156,ozoso,,,,,,234.6299,238.944,0,1,3.7147,,0,33,33,155,1,pseudoword,0,REAL,FALSA
,,,,,,,,,62ac76db32757a0dbb1c59f0,001,2024-06-30_06h16.38.686,empathy_intonation_perc,2024.1.4,Win32,19.96007984,,,,,,,,,,,,,,178,inichó,,,,,,238.9523,243.1666,0,1,3.6001,,0,34,34,177,1,pseudoword,0,REAL,FALSA
,,,,,,,,,62ac76db32757a0dbb1c59f0,001,2024-06-30_06h16.38.686,empathy_intonation_perc,2024.1.4,Win32,19.96007984,,,,,,,,,,,,,,100,épinas,,,,,,243.1748,246.4724,0,1,2.7001,0,0,35,35,99,1,pseudoword,0,REAL,FALSA
,,,,,,,,,62ac76db32757a0dbb1c59f0,001,2024-06-30_06h16.38.686,empathy_intonation_perc,2024.1.4,Win32,19.96007984,,,,,,,,,,,,,,150,cricó,,,,,,246.4807,249.7716,0,1,2.6951,,0,36,36,149,1,pseudoword,0,REAL,FALSA
,,,,,,,,,62ac76db32757a0dbb1c59f0,001,2024-06-30_06h16.38.686,empathy_intonation_perc,2024.1.4,Win32,19.96007984,,,,,,,,,,,,,,33,collar,,,,,,249.7719,253.2427,1,0,2.8732,,0,37,37,32,1,two_way_cognate,1,REAL,FALSA
,,,,,,,,,62ac76db32757a0dbb1c59f0,001,2024-06-30_06h16.38.686,empathy_intonation_perc,2024.1.4,Win32,19.96007984,,,,,,,,,,,,,,55,maldad,,,,,,253.251,256.8992,1,0,3.0607,,0,38,38,54,1,non_cognate,1,REAL,FALSA
,,,,,,,,,62ac76db32757a0dbb1c59f0,001,2024-06-30_06h16.38.686,empathy_intonation_perc,2024.1.4,Win32,19.96007984,,,,,,,,,,,,,,101,losco,,,,,,256.9075,260.2666,0,1,2.7522,,0,39,39,100,1,pseudoword,0,REAL,FALSA
,,,,,,,,,62ac76db32757a0dbb1c59f0,001,2024-06-30_06h16.38.686,empathy_intonation_perc,2024.1.4,Win32,19.96007984,,,,,,,,,,,,,,27,piano,,,,,,260.2668,262.1913,1,0,1.3178,,0,40,40,26,1,two_way_cognate,1,REAL,FALSA
,,,,,,,,,62ac76db32757a0dbb1c59f0,001,2024-06-30_06h16.38.686,empathy_intonation_perc,2024.1.4,Win32,19.96007984,,,,,,,,,,,,,,143,hurcos,,,,,,262.1916,265.7418,0,1,2.9529,,0,41,41,142,1,pseudoword,0,REAL,FALSA
,,,,,,,,,62ac76db32757a0dbb1c59f0,001,2024-06-30_06h16.38.686,empathy_intonation_perc,2024.1.4,Win32,19.96007984,,,,,,,,,,,,,,65,guerra,,,,,,265.7502,269.4152,1,0,3.0648,,0,42,42,64,1,non_cognate,1,REAL,FALSA
,,,,,,,,,62ac76db32757a0dbb1c59f0,001,2024-06-30_06h16.38.686,empathy_intonation_perc,2024.1.4,Win32,19.96007984,,,,,,,,,,,,,,50,sierra,,,,,,269.4155,272.6733,1,0,2.635,,0,43,43,49,1,non_cognate,1,REAL,FALSA
,,,,,,,,,62ac76db32757a0dbb1c59f0,001,2024-06-30_06h16.38.686,empathy_intonation_perc,2024.1.4,Win32,19.96007984,,,,,,,,,,,,,,123,arane,,,,,,272.6818,276.2254,0,1,2.9561,,0,44,44,122,1,pseudoword,0,REAL,FALSA
,,,,,,,,,62ac76db32757a0dbb1c59f0,001,2024-06-30_06h16.38.686,empathy_intonation_perc,2024.1.4,Win32,19.96007984,,,,,,,,,,,,,,67,llamar,,,,,,276.2333,278.3495,1,0,1.5183,,0,45,45,66,1,non_cognate,1,REAL,FALSA
,,,,,,,,,62ac76db32757a0dbb1c59f0,001,2024-06-30_06h16.38.686,empathy_intonation_perc,2024.1.4,Win32,19.96007984,,,,,,,,,,,,,,42,rumor,,,,,,278.3497,280.981,1,0,2.0371,,0,46,46,41,1,two_way_cognate,1,REAL,FALSA
,,,,,,,,,62ac76db32757a0dbb1c59f0,001,2024-06-30_06h16.38.686,empathy_intonation_perc,2024.1.4,Win32,19.96007984,,,,,,,,,,,,,,103,vueras,,,,,,280.9812,284.5249,1,0,2.9439,0.0001,0,47,47,102,1,pseudoword,0,REAL,FALSA
,,,,,,,,,62ac76db32757a0dbb1c59f0,001,2024-06-30_06h16.38.686,empathy_intonation_perc,2024.1.4,Win32,19.96007984,,,,,,,,,,,,,,24,retina,,,,,,284.5252,287.1406,1,0,2.0112,,0,48,48,23,1,three_way_cognate,1,REAL,FALSA
,,,,,,,,,62ac76db32757a0dbb1c59f0,001,2024-06-30_06h16.38.686,empathy_intonation_perc,2024.1.4,Win32,19.96007984,,,,,,,,,,,,,,184,huenos,,,,,,287.1492,290.0314,0,1,2.2836,,0,49,49,183,1,pseudoword,0,REAL,FALSA
,,,,,,,,,62ac76db32757a0dbb1c59f0,001,2024-06-30_06h16.38.686,empathy_intonation_perc,2024.1.4,Win32,19.96007984,,,,,,,,,,,,,,52,blando,,,,,,290.0316,293.3119,1,0,2.6704,,0,50,50,51,1,non_cognate,1,REAL,FALSA
,,,,,,,,,62ac76db32757a0dbb1c59f0,001,2024-06-30_06h16.38.686,empathy_intonation_perc,2024.1.4,Win32,19.96007984,,,,,,,,,,,,,,84,aviso,,,,,,293.32,296.7606,1,0,2.7765,,0,51,51,83,1,non_cognate,1,REAL,FALSA
,,,,,,,,,62ac76db32757a0dbb1c59f0,001,2024-06-30_06h16.38.686,empathy_intonation_perc,2024.1.4,Win32,19.96007984,,,,,,,,,,,,,,107,plago,,,,,,296.7608,299.0759,0,1,1.6996,,0,52,52,106,1,pseudoword,0,REAL,FALSA
,,,,,,,,,62ac76db32757a0dbb1c59f0,001,2024-06-30_06h16.38.686,empathy_intonation_perc,2024.1.4,Win32,19.96007984,,,,,,,,,,,,,,68,puñal,,,,,,299.0762,302.3626,1,0,2.6948,,0,53,53,67,1,non_cognate,1,REAL,FALSA
,,,,,,,,,62ac76db32757a0dbb1c59f0,001,2024-06-30_06h16.38.686,empathy_intonation_perc,2024.1.4,Win32,19.96007984,,,,,,,,,,,,,,45,total,,,,,,302.3706,305.2184,1,0,2.2538,,0,54,54,44,1,two_way_cognate,1,REAL,FALSA
,,,,,,,,,62ac76db32757a0dbb1c59f0,001,2024-06-30_06h16.38.686,empathy_intonation_perc,2024.1.4,Win32,19.96007984,,,,,,,,,,,,,,167,dobbo,,,,,,305.2186,307.2157,0,1,1.3899,,0,55,55,166,1,pseudoword,0,REAL,FALSA
,,,,,,,,,62ac76db32757a0dbb1c59f0,001,2024-06-30_06h16.38.686,empathy_intonation_perc,2024.1.4,Win32,19.96007984,,,,,,,,,,,,,,60,siglo,,,,,,307.216,310.9693,1,0,3.1521,,0,56,56,59,1,non_cognate,1,REAL,FALSA
,,,,,,,,,62ac76db32757a0dbb1c59f0,001,2024-06-30_06h16.38.686,empathy_intonation_perc,2024.1.4,Win32,19.96007984,,,,,,,,,,,,,,62,pegar,,,,,,310.9781,315.2609,1,0,3.6797,,0,57,57,61,1,non_cognate,1,REAL,FALSA
,,,,,,,,,62ac76db32757a0dbb1c59f0,001,2024-06-30_06h16.38.686,empathy_intonation_perc,2024.1.4,Win32,19.96007984,,,,,,,,,,,,,,102,coyo,,,,,,315.2687,317.2491,0,1,1.398,,0,58,58,101,1,pseudoword,0,REAL,FALSA
,,,,,,,,,62ac76db32757a0dbb1c59f0,001,2024-06-30_06h16.38.686,empathy_intonation_perc,2024.1.4,Win32,19.96007984,,,,,,,,,,,,,,138,tator,,,,,,317.2494,320.7155,0,1,2.867,,0,59,59,137,1,pseudoword,0,REAL,FALSA
,,,,,,,,,62ac76db32757a0dbb1c59f0,001,2024-06-30_06h16.38.686,empathy_intonation_perc,2024.1.4,Win32,19.96007984,,,,,,,,,,,,,,91,equipo,,,,,,320.7157,323.8374,1,0,2.5303,,0,60,60,90,1,non_cognate,1,REAL,FALSA
,,,,,,,,,62ac76db32757a0dbb1c59f0,001,2024-06-30_06h16.38.686,empathy_intonation_perc,2024.1.4,Win32,19.96007984,,,,,,,,,,,,,,38,halo,,,,,,323.8454,326.4999,1,0,2.0659,,0,61,61,37,1,two_way_cognate,1,REAL,FALSA
,,,,,,,,,62ac76db32757a0dbb1c59f0,001,2024-06-30_06h16.38.686,empathy_intonation_perc,2024.1.4,Win32,19.96007984,,,,,,,,,,,,,,125,ceme,,,,,,326.5001,329.797,0,1,2.701,,0,62,62,124,1,pseudoword,0,REAL,FALSA
,,,,,,,,,62ac76db32757a0dbb1c59f0,001,2024-06-30_06h16.38.686,empathy_intonation_perc,2024.1.4,Win32,19.96007984,,,,,,,,,,,,,,139,sasos,,,,,,329.8057,333.4335,0,1,3.0339,,0,63,63,138,1,pseudoword,0,REAL,FALSA
,,,,,,,,,62ac76db32757a0dbb1c59f0,001,2024-06-30_06h16.38.686,empathy_intonation_perc,2024.1.4,Win32,19.96007984,,,,,,,,,,,,,,136,hueas,,,,,,333.4337,336.7343,0,1,2.7113,,0,64,64,135,1,pseudoword,0,REAL,FALSA
,,,,,,,,,62ac76db32757a0dbb1c59f0,001,2024-06-30_06h16.38.686,empathy_intonation_perc,2024.1.4,Win32,19.96007984,,,,,,,,,,,,,,8,kilo,,,,,,336.7424,339.9747,0,1,2.6378,,0,65,65,7,1,three_way_cognate,1,REAL,FALSA
,,,,,,,,,62ac76db32757a0dbb1c59f0,001,2024-06-30_06h16.38.686,empathy_intonation_perc,2024.1.4,Win32,19.96007984,,,,,,,,,,,,,,70,ánimo,,,,,,339.9749,343.2818,1,0,2.6947,,0,66,66,69,1,non_cognate,1,REAL,FALSA
,,,,,,,,,62ac76db32757a0dbb1c59f0,001,2024-06-30_06h16.38.686,empathy_intonation_perc,2024.1.4,Win32,19.96007984,,,,,,,,,,,,,,83,hálito,,,,,,343.2897,346.9092,1,0,3.0346,,0,67,67,82,1,non_cognate,1,REAL,FALSA
,,,,,,,,,62ac76db32757a0dbb1c59f0,001,2024-06-30_06h16.38.686,empathy_intonation_perc,2024.1.4,Win32,19.96007984,,,,,,,,,,,,,,183,edioso,,,,,,346.9177,350.3907,0,1,2.8767,0,0,68,68,182,1,pseudoword,0,REAL,FALSA
,,,,,,,,,62ac76db32757a0dbb1c59f0,001,2024-06-30_06h16.38.686,empathy_intonation_perc,2024.1.4,Win32,19.96007984,,,,,,,,,,,,,,43,honor,,,,,,350.3909,353.4534,1,0,2.4651,,0,69,69,42,1,two_way_cognate,1,REAL,FALSA
,,,,,,,,,62ac76db32757a0dbb1c59f0,001,2024-06-30_06h16.38.686,empathy_intonation_perc,2024.1.4,Win32,19.96007984,,,,,,,,,,,,,,190,asumie,,,,,,353.4623,357.0364,1,0,2.9562,,0,70,70,189,1,pseudoword,0,REAL,FALSA
,,,,,,,,,62ac76db32757a0dbb1c59f0,001,2024-06-30_06h16.38.686,empathy_intonation_perc,2024.1.4,Win32,19.96007984,,,,,,,,,,,,,,41,pasta,,,,,,357.0366,359.369,1,0,1.7386,0.0001,0,71,71,40,1,two_way_cognate,1,REAL,FALSA
,,,,,,,,,62ac76db32757a0dbb1c59f0,001,2024-06-30_06h16.38.686,empathy_intonation_perc,2024.1.4,Win32,19.96007984,,,,,,,,,,,,,,172,dogue,,,,,,359.3692,362.8089,0,1,2.8411,0.0001,0,72,72,171,1,pseudoword,0,REAL,FALSA
,,,,,,,,,62ac76db32757a0dbb1c59f0,001,2024-06-30_06h16.38.686,empathy_intonation_perc,2024.1.4,Win32,19.96007984,,,,,,,,,,,,,,113,nasce,,,,,,362.8168,365.7807,1,0,2.3752,,0,73,73,112,1,pseudoword,0,REAL,FALSA
,,,,,,,,,62ac76db32757a0dbb1c59f0,001,2024-06-30_06h16.38.686,empathy_intonation_perc,2024.1.4,Win32,19.96007984,,,,,,,,,,,,,,119,esís,,,,,,365.7809,368.1813,0,1,1.7966,,0,74,74,118,1,pseudoword,0,REAL,FALSA
,,,,,,,,,62ac76db32757a0dbb1c59f0,001,2024-06-30_06h16.38.686,empathy_intonation_perc,2024.1.4,Win32,19.96007984,,,,,,,,,,,,,,6,horror,,,,,,368.1896,370.1882,1,0,1.3977,,0,75,75,5,1,three_way_cognate,1,REAL,FALSA
,,,,,,,,,62ac76db32757a0dbb1c59f0,001,2024-06-30_06h16.38.686,empathy_intonation_perc,2024.1.4,Win32,19.96007984,,,,,,,,,,,,,,75,patada,,,,,,370.1884,372.2797,1,0,1.4884,,0,76,76,74,1,non_cognate,1,REAL,FALSA
,,,,,,,,,62ac76db32757a0dbb1c59f0,001,2024-06-30_06h16.38.686,empathy_intonation_perc,2024.1.4,Win32,19.96007984,,,,,,,,,,,,,,23,plural,,,,,,372.2799,374.372,1,0,1.4763,,0,77,77,22,1,three_way_cognate,1,REAL,FALSA
,,,,,,,,,62ac76db32757a0dbb1c59f0,001,2024-06-30_06h16.38.686,empathy_intonation_perc,2024.1.4,Win32,19.96007984,,,,,,,,,,,,,,145,rúo,,,,,,374.3722,376.7766,0,1,1.8024,,0,78,78,144,1,pseudoword,0,REAL,FALSA
,,,,,,,,,62ac76db32757a0dbb1c59f0,001,2024-06-30_06h16.38.686,empathy_intonation_perc,2024.1.4,Win32,19.96007984,,,,,,,,,,,,,,175,tradía,,,,,,376.785,380.2477,0,1,2.8783,,0,79,79,174,1,pseudoword,0,REAL,FALSA
,,,,,,,,,62ac76db32757a0dbb1c59f0,001,2024-06-30_06h16.38.686,empathy_intonation_perc,2024.1.4,Win32,19.96007984,,,,,,,,,,,,,,69,tiza,,,,,,380.2478,383.7664,1,0,2.8929,,0,80,80,68,1,non_cognate,1,REAL,FALSA
,,,,,,,,,62ac76db32757a0dbb1c59f0,001,2024-06-30_06h16.38.686,empathy_intonation_perc,2024.1.4,Win32,19.96007984,,,,,,,,,,,,,,141,virios,,,,,,383.7746,385.8037,0,1,1.4258,,0,81,81,140,1,pseudoword,0,REAL,FALSA
,,,,,,,,,62ac76db32757a0dbb1c59f0,001,2024-06-30_06h16.38.686,empathy_intonation_perc,2024.1.4,Win32,19.96007984,,,,,,,,,,,,,,56,pico,,,,,,385.8038,387.6987,1,0,1.3088,,0,82,82,55,1,non_cognate,1,REAL,FALSA
,,,,,,,,,62ac76db32757a0dbb1c59f0,001,2024-06-30_06h16.38.686,empathy_intonation_perc,2024.1.4,Win32,19.96007984,,,,,,,,,,,,,,127,vien,,,,,,387.6989,391.7391,1,0,3.4474,,0,83,83,126,1,pseudoword,0,REAL,FALSA
,,,,,,,,,62ac76db32757a0dbb1c59f0,001,2024-06-30_06h16.38.686,empathy_intonation_perc,2024.1.4,Win32,19.96007984,,,,,,,,,,,,,,160,fomeó,,,,,,391.7476,395.002,0,1,2.6475,,0,84,84,159,1,pseudoword,0,REAL,FALSA
,,,,,,,,,62ac76db32757a0dbb1c59f0,001,2024-06-30_06h16.38.686,empathy_intonation_perc,2024.1.4,Win32,19.96007984,,,,,,,,,,,,,,17,clan,,,,,,395.0022,397.8872,1,0,2.2705,,0,85,85,16,1,three_way_cognate,1,REAL,FALSA
,,,,,,,,,62ac76db32757a0dbb1c59f0,001,2024-06-30_06h16.38.686,empathy_intonation_perc,2024.1.4,Win32,19.96007984,,,,,,,,,,,,,,153,golla,,,,,,397.8875,400.4035,0,1,1.9144,,0,86,86,152,1,pseudoword,0,REAL,FALSA
,,,,,,,,,62ac76db32757a0dbb1c59f0,001,2024-06-30_06h16.38.686,empathy_intonation_perc,2024.1.4,Win32,19.96007984,,,,,,,,,,,,,,112,samón,,,,,,400.4118,402.3184,0,1,1.3098,,0,87,87,111,1,pseudoword,0,REAL,FALSA
,,,,,,,,,62ac76db32757a0dbb1c59f0,001,2024-06-30_06h16.38.686,empathy_intonation_perc,2024.1.4,Win32,19.96007984,,,,,,,,,,,,,,86,cuenco,,,,,,402.3186,404.7451,1,0,1.8341,,0,88,88,85,1,non_cognate,1,REAL,FALSA
,,,,,,,,,62ac76db32757a0dbb1c59f0,001,2024-06-30_06h16.38.686,empathy_intonation_perc,2024.1.4,Win32,19.96007984,,,,,,,,,,,,,,32,animal,,,,,,404.7535,406.7812,1,0,1.4276,,0,89,89,31,1,two_way_cognate,1,REAL,FALSA
,,,,,,,,,62ac76db32757a0dbb1c59f0,001,2024-06-30_06h16.38.686,empathy_intonation_perc,2024.1.4,Win32,19.96007984,,,,,,,,,,,,,,116,grigir,,,,,,406.7814,409.1104,0,1,1.7333,,0,90,90,115,1,pseudoword,0,REAL,FALSA
,,,,,,,,,62ac76db32757a0dbb1c59f0,001,2024-06-30_06h16.38.686,empathy_intonation_perc,2024.1.4,Win32,19.96007984,,,,,,,,,,,,,,36,viable,,,,,,409.1106,412.5254,1,0,2.8107,,0,91,91,35,1,two_way_cognate,1,REAL,FALSA
,,,,,,,,,62ac76db32757a0dbb1c59f0,001,2024-06-30_06h16.38.686,empathy_intonation_perc,2024.1.4,Win32,19.96007984,,,,,,,,,,,,,,73,llevar,,,,,,412.5257,414.9293,1,0,1.8101,,0,92,92,72,1,non_cognate,1,REAL,FALSA
,,,,,,,,,62ac76db32757a0dbb1c59f0,001,2024-06-30_06h16.38.686,empathy_intonation_perc,2024.1.4,Win32,19.96007984,,,,,,,,,,,,,,191,frasis,,,,,,414.9295,418.3275,1,0,2.8149,,0,93,93,190,1,pseudoword,0,REAL,FALSA
,,,,,,,,,62ac76db32757a0dbb1c59f0,001,2024-06-30_06h16.38.686,empathy_intonation_perc,2024.1.4,Win32,19.96007984,,,,,,,,,,,,,,158,babrá,,,,,,418.3356,421.2741,0,1,2.2743,,0,94,94,157,1,pseudoword,0,REAL,FALSA
,,,,,,,,,62ac76db32757a0dbb1c59f0,001,2024-06-30_06h16.38.686,empathy_intonation_perc,2024.1.4,Win32,19.96007984,,,,,,,,,,,,,,74,ala,,,,,,421.2743,423.6196,1,0,1.7462,,0,95,95,73,1,non_cognate,1,REAL,FALSA
,,,,,,,,,62ac76db32757a0dbb1c59f0,001,2024-06-30_06h16.38.686,empathy_intonation_perc,2024.1.4,Win32,19.96007984,,,,,,,,,,,,,,79,suelo,,,,,,423.6198,425.7661,1,0,1.5655,,0,96,96,78,1,non_cognate,1,REAL,FALSA
,,,,,,,,,62ac76db32757a0dbb1c59f0,001,2024-06-30_06h16.38.686,empathy_intonation_perc,2024.1.4,Win32,19.96007984,,,,,,,,,,,,,,163,olzan,,,,,,425.7663,428.0939,0,1,1.7365,,0,97,97,162,1,pseudoword,0,REAL,FALSA
,,,,,,,,,62ac76db32757a0dbb1c59f0,001,2024-06-30_06h16.38.686,empathy_intonation_perc,2024.1.4,Win32,19.96007984,,,,,,,,,,,,,,90,venado,,,,,,428.0942,430.2392,1,0,1.5504,,0,98,98,89,1,non_cognate,1,REAL,FALSA
,,,,,,,,,62ac76db32757a0dbb1c59f0,001,2024-06-30_06h16.38.686,empathy_intonation_perc,2024.1.4,Win32,19.96007984,,,,,,,,,,,,,,111,monue,,,,,,430.2394,432.2013,0,1,1.3689,,0,99,99,110,1,pseudoword,0,REAL,FALSA
,,,,,,,,,62ac76db32757a0dbb1c59f0,001,2024-06-30_06h16.38.686,empathy_intonation_perc,2024.1.4,Win32,19.96007984,,,,,,,,,,,,,,120,mauja,,,,,,432.2015,434.26,0,1,1.3992,,0,100,100,119,1,pseudoword,0,REAL,FALSA
,,,,,,,,,62ac76db32757a0dbb1c59f0,001,2024-06-30_06h16.38.686,empathy_intonation_perc,2024.1.4,Win32,19.96007984,,,,,,,,,,,,,,118,bará,,,,,,434.2602,436.2294,0,1,1.38,,0,101,101,117,1,pseudoword,0,REAL,FALSA
,,,,,,,,,62ac76db32757a0dbb1c59f0,001,2024-06-30_06h16.38.686,empathy_intonation_perc,2024.1.4,Win32,19.96007984,,,,,,,,,,,,,,10,drama,,,,,,436.2298,438.1584,1,0,1.3061,,0,102,102,9,1,three_way_cognate,1,REAL,FALSA
,,,,,,,,,62ac76db32757a0dbb1c59f0,001,2024-06-30_06h16.38.686,empathy_intonation_perc,2024.1.4,Win32,19.96007984,,,,,,,,,,,,,,16,chat,,,,,,438.1586,440.1408,1,0,1.3907,,0,103,103,15,1,three_way_cognate,1,REAL,FALSA
,,,,,,,,,62ac76db32757a0dbb1c59f0,001,2024-06-30_06h16.38.686,empathy_intonation_perc,2024.1.4,Win32,19.96007984,,,,,,,,,,,,,,29,clamor,,,,,,440.141,442.397,0,1,1.6523,0.0001,0,104,104,28,1,two_way_cognate,1,REAL,FALSA
,,,,,,,,,62ac76db32757a0dbb1c59f0,001,2024-06-30_06h16.38.686,empathy_intonation_perc,2024.1.4,Win32,19.96007984,,,,,,,,,,,,,,104,estulo,,,,,,442.3972,444.683,0,1,1.7011,,0,105,105,103,1,pseudoword,0,REAL,FALSA
,,,,,,,,,62ac76db32757a0dbb1c59f0,001,2024-06-30_06h16.38.686,empathy_intonation_perc,2024.1.4,Win32,19.96007984,,,,,,,,,,,,,,51,listo,,,,,,444.6832,446.9135,1,0,1.6474,,0,106,106,50,1,non_cognate,1,REAL,FALSA
,,,,,,,,,62ac76db32757a0dbb1c59f0,001,2024-06-30_06h16.38.686,empathy_intonation_perc,2024.1.4,Win32,19.96007984,,,,,,,,,,,,,,89,muñeca,,,,,,446.9137,449.1554,1,0,1.6232,,0,107,107,88,1,non_cognate,1,REAL,FALSA
,,,,,,,,,62ac76db32757a0dbb1c59f0,001,2024-06-30_06h16.38.686,empathy_intonation_perc,2024.1.4,Win32,19.96007984,,,,,,,,,,,,,,64,rizado,,,,,,449.1556,452.367,1,0,2.6221,,0,108,108,63,1,non_cognate,1,REAL,FALSA
,,,,,,,,,62ac76db32757a0dbb1c59f0,001,2024-06-30_06h16.38.686,empathy_intonation_perc,2024.1.4,Win32,19.96007984,,,,,,,,,,,,,,1,moral,,,,,,452.3753,455.1216,1,0,2.1663,,0,109,109,0,1,three_way_cognate,1,REAL,FALSA
,,,,,,,,,62ac76db32757a0dbb1c59f0,001,2024-06-30_06h16.38.686,empathy_intonation_perc,2024.1.4,Win32,19.96007984,,,,,,,,,,,,,,166,anfia,,,,,,455.1219,459.477,0,1,3.7588,,0,110,110,165,1,pseudoword,0,REAL,FALSA
,,,,,,,,,62ac76db32757a0dbb1c59f0,001,2024-06-30_06h16.38.686,empathy_intonation_perc,2024.1.4,Win32,19.96007984,,,,,,,,,,,,,,189,medium,,,,,,459.4852,463.3647,0,1,3.2216,,0,111,111,188,1,pseudoword,0,REAL,FALSA
,,,,,,,,,62ac76db32757a0dbb1c59f0,001,2024-06-30_06h16.38.686,empathy_intonation_perc,2024.1.4,Win32,19.96007984,,,,,,,,,,,,,,155,kugis,,,,,,463.3731,465.7638,0,1,1.7768,0,0,112,112,154,1,pseudoword,0,REAL,FALSA
,,,,,,,,,62ac76db32757a0dbb1c59f0,001,2024-06-30_06h16.38.686,empathy_intonation_perc,2024.1.4,Win32,19.96007984,,,,,,,,,,,,,,162,cengo,,,,,,465.764,467.8027,0,1,1.4566,,0,113,113,161,1,pseudoword,0,REAL,FALSA
,,,,,,,,,62ac76db32757a0dbb1c59f0,001,2024-06-30_06h16.38.686,empathy_intonation_perc,2024.1.4,Win32,19.96007984,,,,,,,,,,,,,,159,trcia,,,,,,467.8029,469.6779,0,1,1.2933,,0,114,114,158,1,pseudoword,0,REAL,FALSA
,,,,,,,,,62ac76db32757a0dbb1c59f0,001,2024-06-30_06h16.38.686,empathy_intonation_perc,2024.1.4,Win32,19.96007984,,,,,,,,,,,,,,14,aura,,,,,,469.6781,472.0903,0,1,1.8208,,0,115,115,13,1,three_way_cognate,1,REAL,FALSA
,,,,,,,,,62ac76db32757a0dbb1c59f0,001,2024-06-30_06h16.38.686,empathy_intonation_perc,2024.1.4,Win32,19.96007984,,,,,,,,,,,,,,21,hotel,,,,,,472.0905,474.3718,1,0,1.6957,,0,116,116,20,1,three_way_cognate,1,REAL,FALSA
,,,,,,,,,62ac76db32757a0dbb1c59f0,001,2024-06-30_06h16.38.686,empathy_intonation_perc,2024.1.4,Win32,19.96007984,,,,,,,,,,,,,,46,mortal,,,,,,474.372,476.4295,1,0,1.469,,0,117,117,45,1,two_way_cognate,1,REAL,FALSA
,,,,,,,,,62ac76db32757a0dbb1c59f0,001,2024-06-30_06h16.38.686,empathy_intonation_perc,2024.1.4,Win32,19.96007984,,,,,,,,,,,,,,173,mibro,,,,,,476.4297,478.3616,0,1,1.3481,,0,118,118,172,1,pseudoword,0,REAL,FALSA
,,,,,,,,,62ac76db32757a0dbb1c59f0,001,2024-06-30_06h16.38.686,empathy_intonation_perc,2024.1.4,Win32,19.96007984,,,,,,,,,,,,,,71,torta,,,,,,478.3618,481.5863,1,0,2.6171,0,0,119,119,70,1,non_cognate,1,REAL,FALSA
,,,,,,,,,62ac76db32757a0dbb1c59f0,001,2024-06-30_06h16.38.686,empathy_intonation_perc,2024.1.4,Win32,19.96007984,,,,,,,,,,,,,,87,muleta,,,,,,481.5944,483.4727,1,0,1.2873,,0,120,120,86,1,non_cognate,1,REAL,FALSA
,,,,,,,,,62ac76db32757a0dbb1c59f0,001,2024-06-30_06h16.38.686,empathy_intonation_perc,2024.1.4,Win32,19.96007984,,,,,,,,,,,,,,20,trauma,,,,,,483.473,485.2537,0,1,1.2019,,0,121,121,19,1,three_way_cognate,1,REAL,FALSA
,,,,,,,,,62ac76db32757a0dbb1c59f0,001,2024-06-30_06h16.38.686,empathy_intonation_perc,2024.1.4,Win32,19.96007984,,,,,,,,,,,,,,30,fiscal,,,,,,485.254,487.6504,0,1,1.7884,,0,122,122,29,1,two_way_cognate,1,REAL,FALSA
,,,,,,,,,62ac76db32757a0dbb1c59f0,001,2024-06-30_06h16.38.686,empathy_intonation_perc,2024.1.4,Win32,19.96007984,,,,,,,,,,,,,,144,diroco,,,,,,487.6506,489.9655,0,1,1.7296,,0,123,123,143,1,pseudoword,0,REAL,FALSA
,,,,,,,,,62ac76db32757a0dbb1c59f0,001,2024-06-30_06h16.38.686,empathy_intonation_perc,2024.1.4,Win32,19.96007984,,,,,,,,,,,,,,48,pelvis,,,,,,489.9657,491.784,1,0,1.2227,,0,124,124,47,1,two_way_cognate,1,REAL,FALSA
,,,,,,,,,62ac76db32757a0dbb1c59f0,001,2024-06-30_06h16.38.686,empathy_intonation_perc,2024.1.4,Win32,19.96007984,,,,,,,,,,,,,,15,test,,,,,,491.7841,494.4576,1,0,2.0566,,0,125,125,14,1,three_way_cognate,1,REAL,FALSA
,,,,,,,,,62ac76db32757a0dbb1c59f0,001,2024-06-30_06h16.38.686,empathy_intonation_perc,2024.1.4,Win32,19.96007984,,,,,,,,,,,,,,77,suave,,,,,,494.4666,496.5041,1,0,1.377,,0,126,126,76,1,non_cognate,1,REAL,FALSA
,,,,,,,,,62ac76db32757a0dbb1c59f0,001,2024-06-30_06h16.38.686,empathy_intonation_perc,2024.1.4,Win32,19.96007984,,,,,,,,,,,,,,7,albino,,,,,,496.5043,498.9306,0,1,1.837,,0,127,127,6,1,three_way_cognate,1,REAL,FALSA
,,,,,,,,,62ac76db32757a0dbb1c59f0,001,2024-06-30_06h16.38.686,empathy_intonation_perc,2024.1.4,Win32,19.96007984,,,,,,,,,,,,,,157,seled,,,,,,498.9394,500.8556,0,1,1.3062,,0,128,128,156,1,pseudoword,0,REAL,FALSA
,,,,,,,,,62ac76db32757a0dbb1c59f0,001,2024-06-30_06h16.38.686,empathy_intonation_perc,2024.1.4,Win32,19.96007984,,,,,,,,,,,,,,154,harvé,,,,,,500.8558,502.7608,0,1,1.3174,,0,129,129,153,1,pseudoword,0,REAL,FALSA
,,,,,,,,,62ac76db32757a0dbb1c59f0,001,2024-06-30_06h16.38.686,empathy_intonation_perc,2024.1.4,Win32,19.96007984,,,,,,,,,,,,,,124,lobe,,,,,,502.761,504.6395,0,1,1.2826,,0,130,130,123,1,pseudoword,0,REAL,FALSA
,,,,,,,,,62ac76db32757a0dbb1c59f0,001,2024-06-30_06h16.38.686,empathy_intonation_perc,2024.1.4,Win32,19.96007984,,,,,,,,,,,,,,31,civil,,,,,,504.6397,506.3957,0,1,1.1626,,0,131,131,30,1,two_way_cognate,1,REAL,FALSA
,,,,,,,,,62ac76db32757a0dbb1c59f0,001,2024-06-30_06h16.38.686,empathy_intonation_perc,2024.1.4,Win32,19.96007984,,,,,,,,,,,,,,3,disco,,,,,,506.3959,508.7201,1,0,1.7244,,0,132,132,2,1,three_way_cognate,1,REAL,FALSA
,,,,,,,,,62ac76db32757a0dbb1c59f0,001,2024-06-30_06h16.38.686,empathy_intonation_perc,2024.1.4,Win32,19.96007984,,,,,,,,,,,,,,126,tobre,,,,,,508.7203,510.6819,0,1,1.3759,,0,133,133,125,1,pseudoword,0,REAL,FALSA
,,,,,,,,,62ac76db32757a0dbb1c59f0,001,2024-06-30_06h16.38.686,empathy_intonation_perc,2024.1.4,Win32,19.96007984,,,,,,,,,,,,,,174,pabea,,,,,,510.6822,514.3473,0,1,3.0758,,0,134,134,173,1,pseudoword,0,REAL,FALSA
,,,,,,,,,62ac76db32757a0dbb1c59f0,001,2024-06-30_06h16.38.686,empathy_intonation_perc,2024.1.4,Win32,19.96007984,,,,,,,,,,,,,,39,casual,,,,,,514.3553,516.1505,0,1,1.1307,,0,135,135,38,1,two_way_cognate,1,REAL,FALSA
,,,,,,,,,62ac76db32757a0dbb1c59f0,001,2024-06-30_06h16.38.686,empathy_intonation_perc,2024.1.4,Win32,19.96007984,,,,,,,,,,,,,,130,dubo,,,,,,516.1507,518.469,0,1,1.7126,,0,136,136,129,1,pseudoword,0,REAL,FALSA
,,,,,,,,,62ac76db32757a0dbb1c59f0,001,2024-06-30_06h16.38.686,empathy_intonation_perc,2024.1.4,Win32,19.96007984,,,,,,,,,,,,,,128,pelí,,,,,,518.4692,521.6854,0,1,2.627,,0,137,137,127,1,pseudoword,0,REAL,FALSA
,,,,,,,,,62ac76db32757a0dbb1c59f0,001,2024-06-30_06h16.38.686,empathy_intonation_perc,2024.1.4,Win32,19.96007984,,,,,,,,,,,,,,117,morrá,,,,,,521.6857,524.9922,0,1,2.7227,,0,138,138,116,1,pseudoword,0,REAL,FALSA
,,,,,,,,,62ac76db32757a0dbb1c59f0,001,2024-06-30_06h16.38.686,empathy_intonation_perc,2024.1.4,Win32,19.96007984,,,,,,,,,,,,,,11,golf,,,,,,525.0009,526.9623,1,0,1.3672,,0,139,139,10,1,three_way_cognate,1,REAL,FALSA
,,,,,,,,,62ac76db32757a0dbb1c59f0,001,2024-06-30_06h16.38.686,empathy_intonation_perc,2024.1.4,Win32,19.96007984,,,,,,,,,,,,,,78,rendir,,,,,,526.9626,528.8279,0,1,1.2828,,0,140,140,77,1,non_cognate,1,REAL,FALSA
,,,,,,,,,62ac76db32757a0dbb1c59f0,001,2024-06-30_06h16.38.686,empathy_intonation_perc,2024.1.4,Win32,19.96007984,,,,,,,,,,,,,,58,colcha,,,,,,528.8282,531.2434,1,0,1.8271,,0,141,141,57,1,non_cognate,1,REAL,FALSA
,,,,,,,,,62ac76db32757a0dbb1c59f0,001,2024-06-30_06h16.38.686,empathy_intonation_perc,2024.1.4,Win32,19.96007984,,,,,,,,,,,,,,151,prías,,,,,,531.2436,533.2011,0,1,1.2952,,0,142,142,150,1,pseudoword,0,REAL,FALSA
,,,,,,,,,62ac76db32757a0dbb1c59f0,001,2024-06-30_06h16.38.686,empathy_intonation_perc,2024.1.4,Win32,19.96007984,,,,,,,,,,,,,,182,desaro,,,,,,533.2013,535.69,0,1,1.8684,,0,143,143,181,1,pseudoword,0,REAL,FALSA
,,,,,,,,,62ac76db32757a0dbb1c59f0,001,2024-06-30_06h16.38.686,empathy_intonation_perc,2024.1.4,Win32,19.96007984,,,,,,,,,,,,,,152,prave,,,,,,535.6902,537.5698,0,1,1.289,,0,144,144,151,1,pseudoword,0,REAL,FALSA
,,,,,,,,,62ac76db32757a0dbb1c59f0,001,2024-06-30_06h16.38.686,empathy_intonation_perc,2024.1.4,Win32,19.96007984,,,,,,,,,,,,,,37,torso,,,,,,537.57,539.5793,1,0,1.3886,,0,145,145,36,1,two_way_cognate,1,REAL,FALSA
,,,,,,,,,62ac76db32757a0dbb1c59f0,001,2024-06-30_06h16.38.686,empathy_intonation_perc,2024.1.4,Win32,19.96007984,,,,,,,,,,,,,,147,alla,,,,,,539.5796,541.9773,1,0,1.816,,0,146,146,146,1,pseudoword,0,REAL,FALSA
,,,,,,,,,62ac76db32757a0dbb1c59f0,001,2024-06-30_06h16.38.686,empathy_intonation_perc,2024.1.4,Win32,19.96007984,,,,,,,,,,,,,,59,feo,,,,,,541.9775,543.999,1,0,1.4401,,0,147,147,58,1,non_cognate,1,REAL,FALSA
,,,,,,,,,62ac76db32757a0dbb1c59f0,001,2024-06-30_06h16.38.686,empathy_intonation_perc,2024.1.4,Win32,19.96007984,,,,,,,,,,,,,,109,laras,,,,,,543.9992,546.0823,0,1,1.478,,0,148,148,108,1,pseudoword,0,REAL,FALSA
,,,,,,,,,62ac76db32757a0dbb1c59f0,001,2024-06-30_06h16.38.686,empathy_intonation_perc,2024.1.4,Win32,19.96007984,,,,,,,,,,,,,,177,entodo,,,,,,546.0825,548.0996,1,0,1.434,,0,149,149,176,1,pseudoword,0,REAL,FALSA
,,,,,,,,,62ac76db32757a0dbb1c59f0,001,2024-06-30_06h16.38.686,empathy_intonation_perc,2024.1.4,Win32,19.96007984,,,,,,,,,,,,,,110,densó,,,,,,548.0999,550.1709,1,0,1.4674,,0,150,150,109,1,pseudoword,0,REAL,FALSA
,,,,,,,,,62ac76db32757a0dbb1c59f0,001,2024-06-30_06h16.38.686,empathy_intonation_perc,2024.1.4,Win32,19.96007984,,,,,,,,,,,,,,49,teñir,,,,,,550.1712,552.2362,1,0,1.4702,,0,151,151,48,1,non_cognate,1,REAL,FALSA
,,,,,,,,,62ac76db32757a0dbb1c59f0,001,2024-06-30_06h16.38.686,empathy_intonation_perc,2024.1.4,Win32,19.96007984,,,,,,,,,,,,,,132,nocó,,,,,,552.2364,554.1862,0,1,1.362,,0,152,152,131,1,pseudoword,0,REAL,FALSA
,,,,,,,,,62ac76db32757a0dbb1c59f0,001,2024-06-30_06h16.38.686,empathy_intonation_perc,2024.1.4,Win32,19.96007984,,,,,,,,,,,,,,161,civas,,,,,,554.1863,556.2161,0,1,1.4469,,0,153,153,160,1,pseudoword,0,REAL,FALSA
,,,,,,,,,62ac76db32757a0dbb1c59f0,001,2024-06-30_06h16.38.686,empathy_intonation_perc,2024.1.4,Win32,19.96007984,,,,,,,,,,,,,,85,enorme,,,,,,556.2164,558.0874,1,0,1.2864,,0,154,154,84,1,non_cognate,1,REAL,FALSA
,,,,,,,,,62ac76db32757a0dbb1c59f0,001,2024-06-30_06h16.38.686,empathy_intonation_perc,2024.1.4,Win32,19.96007984,,,,,,,,,,,,,,92,flecha,,,,,,558.0876,560.0562,1,0,1.3726,,0,155,155,91,1,non_cognate,1,REAL,FALSA
,,,,,,,,,62ac76db32757a0dbb1c59f0,001,2024-06-30_06h16.38.686,empathy_intonation_perc,2024.1.4,Win32,19.96007984,,,,,,,,,,,,,,134,molor,,,,,,560.0565,562.006,0,1,1.3503,,0,156,156,133,1,pseudoword,0,REAL,FALSA
,,,,,,,,,62ac76db32757a0dbb1c59f0,001,2024-06-30_06h16.38.686,empathy_intonation_perc,2024.1.4,Win32,19.96007984,,,,,,,,,,,,,,122,boñaz,,,,,,562.0062,564.3392,0,1,1.7296,,0,157,157,121,1,pseudoword,0,REAL,FALSA
,,,,,,,,,62ac76db32757a0dbb1c59f0,001,2024-06-30_06h16.38.686,empathy_intonation_perc,2024.1.4,Win32,19.96007984,,,,,,,,,,,,,,180,pupica,,,,,,564.3394,566.7438,0,1,1.812,,0,158,158,179,1,pseudoword,0,REAL,FALSA
,,,,,,,,,62ac76db32757a0dbb1c59f0,001,2024-06-30_06h16.38.686,empathy_intonation_perc,2024.1.4,Win32,19.96007984,,,,,,,,,,,,,,57,regalo,,,,,,566.744,568.3881,1,0,1.0598,,0,159,159,56,1,non_cognate,1,REAL,FALSA
,,,,,,,,,62ac76db32757a0dbb1c59f0,001,2024-06-30_06h16.38.686,empathy_intonation_perc,2024.1.4,Win32,19.96007984,,,,,,,,,,,,,,135,panté,,,,,,568.3884,570.4726,0,1,1.4929,,0,160,160,134,1,pseudoword,0,REAL,FALSA
,,,,,,,,,62ac76db32757a0dbb1c59f0,001,2024-06-30_06h16.38.686,empathy_intonation_perc,2024.1.4,Win32,19.96007984,,,,,,,,,,,,,,22,mango,,,,,,570.4729,572.262,0,1,1.2038,,0,161,161,21,1,three_way_cognate,1,REAL,FALSA
,,,,,,,,,62ac76db32757a0dbb1c59f0,001,2024-06-30_06h16.38.686,empathy_intonation_perc,2024.1.4,Win32,19.96007984,,,,,,,,,,,,,,187,nomata,,,,,,572.2623,574.4033,0,1,1.5484,,0,162,162,186,1,pseudoword,0,REAL,FALSA
,,,,,,,,,62ac76db32757a0dbb1c59f0,001,2024-06-30_06h16.38.686,empathy_intonation_perc,2024.1.4,Win32,19.96007984,,,,,,,,,,,,,,28,ardor,,,,,,574.4036,576.417,0,1,1.4179,,0,163,163,27,1,two_way_cognate,1,REAL,FALSA
,,,,,,,,,62ac76db32757a0dbb1c59f0,001,2024-06-30_06h16.38.686,empathy_intonation_perc,2024.1.4,Win32,19.96007984,,,,,,,,,,,,,,149,emén,,,,,,576.4172,578.3875,0,1,1.3857,,0,164,164,148,1,pseudoword,0,REAL,FALSA
,,,,,,,,,62ac76db32757a0dbb1c59f0,001,2024-06-30_06h16.38.686,empathy_intonation_perc,2024.1.4,Win32,19.96007984,,,,,,,,,,,,,,97,nocita,,,,,,578.3878,580.3613,0,1,1.3802,,0,165,165,96,1,pseudoword,0,REAL,FALSA
,,,,,,,,,62ac76db32757a0dbb1c59f0,001,2024-06-30_06h16.38.686,empathy_intonation_perc,2024.1.4,Win32,19.96007984,,,,,,,,,,,,,,35,aurora,,,,,,580.3615,582.5141,1,0,1.5634,,0,166,166,34,1,two_way_cognate,1,REAL,FALSA
,,,,,,,,,62ac76db32757a0dbb1c59f0,001,2024-06-30_06h16.38.686,empathy_intonation_perc,2024.1.4,Win32,19.96007984,,,,,,,,,,,,,,88,percha,,,,,,582.5142,584.6752,1,0,1.5737,,0,167,167,87,1,non_cognate,1,REAL,FALSA
,,,,,,,,,62ac76db32757a0dbb1c59f0,001,2024-06-30_06h16.38.686,empathy_intonation_perc,2024.1.4,Win32,19.96007984,,,,,,,,,,,,,,186,rizate,,,,,,584.6754,587.3325,0,1,2.0719,,0,168,168,185,1,pseudoword,0,REAL,FALSA
,,,,,,,,,62ac76db32757a0dbb1c59f0,001,2024-06-30_06h16.38.686,empathy_intonation_perc,2024.1.4,Win32,19.96007984,,,,,,,,,,,,,,169,pitis,,,,,,587.3327,589.5849,0,1,1.5888,,0,169,169,168,1,pseudoword,0,REAL,FALSA
,,,,,,,,,62ac76db32757a0dbb1c59f0,001,2024-06-30_06h16.38.686,empathy_intonation_perc,2024.1.4,Win32,19.96007984,,,,,,,,,,,,,,105,leniz,,,,,,589.585,592.0121,0,1,1.8214,,0,170,170,104,1,pseudoword,0,REAL,FALSA
,,,,,,,,,62ac76db32757a0dbb1c59f0,001,2024-06-30_06h16.38.686,empathy_intonation_perc,2024.1.4,Win32,19.96007984,,,,,,,,,,,,,,131,fuar,,,,,,592.0123,594.3093,0,1,1.6592,,0,171,171,130,1,pseudoword,0,REAL,FALSA
,,,,,,,,,62ac76db32757a0dbb1c59f0,001,2024-06-30_06h16.38.686,empathy_intonation_perc,2024.1.4,Win32,19.96007984,,,,,,,,,,,,,,54,tapón,,,,,,594.3095,596.6861,1,0,1.7657,,0,172,172,53,1,non_cognate,1,REAL,FALSA
,,,,,,,,,62ac76db32757a0dbb1c59f0,001,2024-06-30_06h16.38.686,empathy_intonation_perc,2024.1.4,Win32,19.96007984,,,,,,,,,,,,,,164,tecia,,,,,,596.6863,598.741,0,1,1.4325,,0,173,173,163,1,pseudoword,0,REAL,FALSA
,,,,,,,,,62ac76db32757a0dbb1c59f0,001,2024-06-30_06h16.38.686,empathy_intonation_perc,2024.1.4,Win32,19.96007984,,,,,,,,,,,,,,176,gripar,,,,,,598.7412,600.7009,1,0,1.3647,,0,174,174,175,1,pseudoword,0,REAL,FALSA
,,,,,,,,,62ac76db32757a0dbb1c59f0,001,2024-06-30_06h16.38.686,empathy_intonation_perc,2024.1.4,Win32,19.96007984,,,,,,,,,,,,,,76,chocar,,,,,,600.7011,602.7177,1,0,1.4024,,0,175,175,75,1,non_cognate,1,REAL,FALSA
,,,,,,,,,62ac76db32757a0dbb1c59f0,001,2024-06-30_06h16.38.686,empathy_intonation_perc,2024.1.4,Win32,19.96007984,,,,,,,,,,,,,,25,vigor,,,,,,602.7179,604.7127,0,1,1.3338,,0,176,176,24,1,two_way_cognate,1,REAL,FALSA
,,,,,,,,,62ac76db32757a0dbb1c59f0,001,2024-06-30_06h16.38.686,empathy_intonation_perc,2024.1.4,Win32,19.96007984,,,,,,,,,,,,,,66,aleta,,,,,,604.713,606.7911,1,0,1.4333,,0,177,177,65,1,non_cognate,1,REAL,FALSA
,,,,,,,,,62ac76db32757a0dbb1c59f0,001,2024-06-30_06h16.38.686,empathy_intonation_perc,2024.1.4,Win32,19.96007984,,,,,,,,,,,,,,108,jauda,,,,,,606.7914,609.2233,0,1,1.8021,,0,178,178,107,1,pseudoword,0,REAL,FALSA
,,,,,,,,,62ac76db32757a0dbb1c59f0,001,2024-06-30_06h16.38.686,empathy_intonation_perc,2024.1.4,Win32,19.96007984,,,,,,,,,,,,,,44,editor,,,,,,609.2236,611.0549,1,0,1.2218,,0,179,179,43,1,two_way_cognate,1,REAL,FALSA
,,,,,,,,,62ac76db32757a0dbb1c59f0,001,2024-06-30_06h16.38.686,empathy_intonation_perc,2024.1.4,Win32,19.96007984,,,,,,,,,,,,,,40,pelvis,,,,,,611.0551,613.0976,1,0,1.458,,0,180,180,39,1,two_way_cognate,1,REAL,FALSA
,,,,,,,,,62ac76db32757a0dbb1c59f0,001,2024-06-30_06h16.38.686,empathy_intonation_perc,2024.1.4,Win32,19.96007984,,,,,,,,,,,,,,2,tumor,,,,,,613.0978,615.3233,1,0,1.6435,,0,181,181,1,1,three_way_cognate,1,REAL,FALSA
,,,,,,,,,62ac76db32757a0dbb1c59f0,001,2024-06-30_06h16.38.686,empathy_intonation_perc,2024.1.4,Win32,19.96007984,,,,,,,,,,,,,,185,aljizo,,,,,,615.3235,617.2378,0,1,1.3337,,0,182,182,184,1,pseudoword,0,REAL,FALSA
,,,,,,,,,62ac76db32757a0dbb1c59f0,001,2024-06-30_06h16.38.686,empathy_intonation_perc,2024.1.4,Win32,19.96007984,,,,,,,,,,,,,,148,gino,,,,,,617.238,619.3278,0,1,1.4815,,0,183,183,147,1,pseudoword,0,REAL,FALSA
,,,,,,,,,62ac76db32757a0dbb1c59f0,001,2024-06-30_06h16.38.686,empathy_intonation_perc,2024.1.4,Win32,19.96007984,,,,,,,,,,,,,,95,listo,,,,,,619.328,621.3023,1,0,1.3822,,0,184,184,94,1,non_cognate,1,REAL,FALSA
,,,,,,,,,62ac76db32757a0dbb1c59f0,001,2024-06-30_06h16.38.686,empathy_intonation_perc,2024.1.4,Win32,19.96007984,,,,,,,,,,,,,,181,gravés,,,,,,621.3025,623.855,0,1,1.9694,,0,185,185,180,1,pseudoword,0,REAL,FALSA
,,,,,,,,,62ac76db32757a0dbb1c59f0,001,2024-06-30_06h16.38.686,empathy_intonation_perc,2024.1.4,Win32,19.96007984,,,,,,,,,,,,,,9,portal,,,,,,623.8552,625.8884,1,0,1.4512,,0,186,186,8,1,three_way_cognate,1,REAL,FALSA
,,,,,,,,,62ac76db32757a0dbb1c59f0,001,2024-06-30_06h16.38.686,empathy_intonation_perc,2024.1.4,Win32,19.96007984,,,,,,,,,,,,,,106,diebro,,,,,,625.8885,628.0525,0,1,1.58,,0,187,187,105,1,pseudoword,0,REAL,FALSA
,,,,,,,,,62ac76db32757a0dbb1c59f0,001,2024-06-30_06h16.38.686,empathy_intonation_perc,2024.1.4,Win32,19.96007984,,,,,,,,,,,,,,98,martir,,,,,,628.0527,630.1441,0,1,1.5069,,0,188,188,97,1,pseudoword,0,REAL,FALSA
,,,,,,,,,62ac76db32757a0dbb1c59f0,001,2024-06-30_06h16.38.686,empathy_intonation_perc,2024.1.4,Win32,19.96007984,,,,,,,,,,,,,,171,gotro,,,,,,630.1443,632.5154,0,1,1.7564,,0,189,189,170,1,pseudoword,0,REAL,FALSA
,,,,,,,,,62ac76db32757a0dbb1c59f0,001,2024-06-30_06h16.38.686,empathy_intonation_perc,2024.1.4,Win32,19.96007984,,,,,,,,,,,,,,93,tapa,,,,,,632.5156,634.7641,1,0,1.6688,,0,190,190,92,1,non_cognate,1,REAL,FALSA
,,,,,,,,,62ac76db32757a0dbb1c59f0,001,2024-06-30_06h16.38.686,empathy_intonation_perc,2024.1.4,Win32,19.96007984,,,,,,,,,,,,,,94,forro,,,,,,634.7643,636.7512,1,0,1.3961,,0,191,191,93,1,non_cognate,1,REAL,FALSA
