lextale_instructions.started,lextale_instructions.stopped,lextale_instructions_loop.thisRepN,lextale_instructions_loop.thisTrialN,lextale_instructions_loop.thisN,lextale_instructions_loop.thisIndex,lextale_instructions_loop.ran,instructions_text,continue_text,participant,session,date,expName,psychopyVersion,OS,frameRate,lextale_practice.started,lextale_practice.stopped,key_resp_lextale_practice.keys,key_resp_lextale_practice.corr,key_resp_lextale_practice.rt,key_resp_lextale_practice.duration,lextale_practice_feedback.started,lextale_practice_feedback.stopped,lextale_practice_trials.thisRepN,lextale_practice_trials.thisTrialN,lextale_practice_trials.thisN,lextale_practice_trials.thisIndex,lextale_practice_trials.ran,stim,word,correct_response,prac_button_real,prac_button_false,lextale_check.started,lextale_check.stopped,lextale_trial.started,lextale_trial.stopped,key_resp_lextale_trial.keys,key_resp_lextale_trial.corr,key_resp_lextale_trial.rt,key_resp_lextale_trial.duration,lextail_trials.thisRepN,lextail_trials.thisTrialN,lextail_trials.thisN,lextail_trials.thisIndex,lextail_trials.ran,type,correct_reponse,button_real,button_false
0.0022,14.4937,0,0,0,0,1,"Este es un test de vocabulario en español. 
  
  A continuación vas a ver 90 secuencias de letras que parecen 'españolas'.
  
  Solo algunas de ellas son palabras de verdad.",(presiona la barra espaciadora para continuar),62ad17e032a85a4ca119b289,001,2024-06-30_05h12.26.769,empathy_intonation_perc,2024.1.4,Win32,60.24096386,,,,,,,,,,,,,,,,,,,,,,,,,,,,,,,,,,,
14.494,37.2269,0,1,1,1,1,"Por favor, señala las palabras que tú conoces (aquellas que estás convencido que son palabras españolas, incluso aunque no seas capaz de dar el significado preciso).",(presiona la barra espaciadora para continuar),62ad17e032a85a4ca119b289,001,2024-06-30_05h12.26.769,empathy_intonation_perc,2024.1.4,Win32,60.24096386,,,,,,,,,,,,,,,,,,,,,,,,,,,,,,,,,,,
37.2323,66.0102,0,2,2,2,1,Pero cuidado: los errores se penalizan. Por eso no tiene sentido tratar de incrementar tu puntuación marcando como reales palabras que nunca has visto.,(presiona la barra espaciadora para continuar),62ad17e032a85a4ca119b289,001,2024-06-30_05h12.26.769,empathy_intonation_perc,2024.1.4,Win32,60.24096386,,,,,,,,,,,,,,,,,,,,,,,,,,,,,,,,,,,
66.016,84.7602,0,3,3,3,1,"Presiona la tecla 1 si piensas que es una palabra real y la tecla 
  0 si piensas que es una palabra falsa. 
  
  Vamos a practicar un poco...",(presiona la barra espaciadora para continuar),62ad17e032a85a4ca119b289,001,2024-06-30_05h12.26.769,empathy_intonation_perc,2024.1.4,Win32,60.24096386,,,,,,,,,,,,,,,,,,,,,,,,,,,,,,,,,,,
,,,,,,,,,62ad17e032a85a4ca119b289,001,2024-06-30_05h12.26.769,empathy_intonation_perc,2024.1.4,Win32,60.24096386,84.767,90.6603,0,1,5.365099999,,90.6658,91.6601,0,0,0,0,1,0,depiste,0,REAL,FALSA,,,,,,,,,,,,,,,,,
,,,,,,,,,62ad17e032a85a4ca119b289,001,2024-06-30_05h12.26.769,empathy_intonation_perc,2024.1.4,Win32,60.24096386,91.6604,94.7435,1,1,2.5485,,94.7435,95.7434,0,1,1,1,1,0,sí,1,REAL,FALSA,,,,,,,,,,,,,,,,,
,,,,,,,,,62ad17e032a85a4ca119b289,001,2024-06-30_05h12.26.769,empathy_intonation_perc,2024.1.4,Win32,60.24096386,95.7489,100.0434,0,1,3.7734,,100.0434,101.0434,0,2,2,2,1,0,coné,0,REAL,FALSA,,,,,,,,,,,,,,,,,
,,,,,,,,,62ad17e032a85a4ca119b289,001,2024-06-30_05h12.26.769,empathy_intonation_perc,2024.1.4,Win32,60.24096386,101.0488,105.1433,0,1,3.5655,,105.1434,106.1434,0,3,3,3,1,0,calpar,0,REAL,FALSA,,,,,,,,,,,,,,,,,
,,,,,,,,,62ad17e032a85a4ca119b289,001,2024-06-30_05h12.26.769,empathy_intonation_perc,2024.1.4,Win32,60.24096386,106.1488,109.1767,0,1,2.5085,,109.1768,110.1768,0,4,4,4,1,0,joten,0,REAL,FALSA,,,,,,,,,,,,,,,,,
,,,,,,,,,62ad17e032a85a4ca119b289,001,2024-06-30_05h12.26.769,empathy_intonation_perc,2024.1.4,Win32,60.24096386,110.1822,112.6601,1,1,1.9503,,112.6601,113.6601,0,5,5,5,1,0,sacapuntas,1,REAL,FALSA,,,,,,,,,,,,,,,,,
,,,,,,,,,62ad17e032a85a4ca119b289,001,2024-06-30_05h12.26.769,empathy_intonation_perc,2024.1.4,Win32,60.24096386,113.6655,117.5101,0,1,3.315099999,,117.5101,118.5101,0,6,6,6,1,0,priba,0,REAL,FALSA,,,,,,,,,,,,,,,,,
,,,,,,,,,62ad17e032a85a4ca119b289,001,2024-06-30_05h12.26.769,empathy_intonation_perc,2024.1.4,Win32,60.24096386,118.5156,121.7267,0,1,2.686,,121.7267,122.7267,0,7,7,7,1,0,pelasula,0,REAL,FALSA,,,,,,,,,,,,,,,,,
,,,,,,,,,62ad17e032a85a4ca119b289,001,2024-06-30_05h12.26.769,empathy_intonation_perc,2024.1.4,Win32,60.24096386,122.7322,124.6933,1,1,1.4314,,124.6934,125.6934,0,8,8,8,1,0,bien,1,REAL,FALSA,,,,,,,,,,,,,,,,,
,,,,,,,,,62ad17e032a85a4ca119b289,001,2024-06-30_05h12.26.769,empathy_intonation_perc,2024.1.4,Win32,60.24096386,125.6988,127.51,1,1,1.2813,,127.51,128.51,0,9,9,9,1,0,casa,1,REAL,FALSA,,,,,,,,,,,,,,,,,
,,,,,,,,,62ad17e032a85a4ca119b289,001,2024-06-30_05h12.26.769,empathy_intonation_perc,2024.1.4,Win32,60.24096386,128.5102,131.06,1,0,2.015,,131.06,132.06,0,10,10,10,1,0,lejo,0,REAL,FALSA,,,,,,,,,,,,,,,,,
,,,,,,,,,62ad17e032a85a4ca119b289,001,2024-06-30_05h12.26.769,empathy_intonation_perc,2024.1.4,Win32,60.24096386,132.0656,134.7767,0,1,2.1925,,134.7767,135.7767,0,11,11,11,1,0,pretantas,0,REAL,FALSA,,,,,,,,,,,,,,,,,
,,,,,,,,,62ad17e032a85a4ca119b289,001,2024-06-30_05h12.26.769,empathy_intonation_perc,2024.1.4,Win32,60.24096386,,,,,,,,,,,,,,,,,,,135.777,140.5769,,,,,,,,,,,,,,,
,,,,,,,,,62ad17e032a85a4ca119b289,001,2024-06-30_05h12.26.769,empathy_intonation_perc,2024.1.4,Win32,60.24096386,,,,,,,,,,,,,,89,muñeca,,,,,,140.5862,142.9268,1,0,1.8195,,0,0,0,88,1,non_cognate,1,REAL,FALSA
,,,,,,,,,62ad17e032a85a4ca119b289,001,2024-06-30_05h12.26.769,empathy_intonation_perc,2024.1.4,Win32,60.24096386,,,,,,,,,,,,,,71,torta,,,,,,142.9325,145.11,1,0,1.6487,,0,1,1,70,1,non_cognate,1,REAL,FALSA
,,,,,,,,,62ad17e032a85a4ca119b289,001,2024-06-30_05h12.26.769,empathy_intonation_perc,2024.1.4,Win32,60.24096386,,,,,,,,,,,,,,6,horror,,,,,,145.1102,147.51,1,0,1.865,,0,2,2,5,1,three_way_cognate,1,REAL,FALSA
,,,,,,,,,62ad17e032a85a4ca119b289,001,2024-06-30_05h12.26.769,empathy_intonation_perc,2024.1.4,Win32,60.24096386,,,,,,,,,,,,,,3,disco,,,,,,147.5102,154.9599,0,1,6.918,,0,3,3,2,1,three_way_cognate,1,REAL,FALSA
,,,,,,,,,62ad17e032a85a4ca119b289,001,2024-06-30_05h12.26.769,empathy_intonation_perc,2024.1.4,Win32,60.24096386,,,,,,,,,,,,,,177,entodo,,,,,,154.9657,156.9766,0,1,1.4847,,0,4,4,176,1,pseudoword,0,REAL,FALSA
,,,,,,,,,62ad17e032a85a4ca119b289,001,2024-06-30_05h12.26.769,empathy_intonation_perc,2024.1.4,Win32,60.24096386,,,,,,,,,,,,,,124,lobe,,,,,,156.9768,158.6433,0,1,1.1319,,0,5,5,123,1,pseudoword,0,REAL,FALSA
,,,,,,,,,62ad17e032a85a4ca119b289,001,2024-06-30_05h12.26.769,empathy_intonation_perc,2024.1.4,Win32,60.24096386,,,,,,,,,,,,,,41,pasta,,,,,,158.6436,161.2767,1,0,2.1048,,0,6,6,40,1,two_way_cognate,1,REAL,FALSA
,,,,,,,,,62ad17e032a85a4ca119b289,001,2024-06-30_05h12.26.769,empathy_intonation_perc,2024.1.4,Win32,60.24096386,,,,,,,,,,,,,,115,lidena,,,,,,161.2822,163.0933,0,1,1.2816,,0,7,7,114,1,pseudoword,0,REAL,FALSA
,,,,,,,,,62ad17e032a85a4ca119b289,001,2024-06-30_05h12.26.769,empathy_intonation_perc,2024.1.4,Win32,60.24096386,,,,,,,,,,,,,,87,muleta,,,,,,163.0936,164.76,1,0,1.1428,,0,8,8,86,1,non_cognate,1,REAL,FALSA
,,,,,,,,,62ad17e032a85a4ca119b289,001,2024-06-30_05h12.26.769,empathy_intonation_perc,2024.1.4,Win32,60.24096386,,,,,,,,,,,,,,74,ala,,,,,,164.7602,172.3433,0,1,7.0479,,0,9,9,73,1,non_cognate,1,REAL,FALSA
,,,,,,,,,62ad17e032a85a4ca119b289,001,2024-06-30_05h12.26.769,empathy_intonation_perc,2024.1.4,Win32,60.24096386,,,,,,,,,,,,,,100,épinas,,,,,,172.3491,176.5266,1,0,3.652599999,,0,10,10,99,1,pseudoword,0,REAL,FALSA
,,,,,,,,,62ad17e032a85a4ca119b289,001,2024-06-30_05h12.26.769,empathy_intonation_perc,2024.1.4,Win32,60.24096386,,,,,,,,,,,,,,11,golf,,,,,,176.5321,178.86,1,0,1.8055,,0,11,11,10,1,three_way_cognate,1,REAL,FALSA
,,,,,,,,,62ad17e032a85a4ca119b289,001,2024-06-30_05h12.26.769,empathy_intonation_perc,2024.1.4,Win32,60.24096386,,,,,,,,,,,,,,73,llevar,,,,,,178.8602,180.36,1,0,0.976099999,,0,12,12,72,1,non_cognate,1,REAL,FALSA
,,,,,,,,,62ad17e032a85a4ca119b289,001,2024-06-30_05h12.26.769,empathy_intonation_perc,2024.1.4,Win32,60.24096386,,,,,,,,,,,,,,121,barbs,,,,,,180.3602,181.81,0,1,0.9178,,0,13,13,120,1,pseudoword,0,REAL,FALSA
,,,,,,,,,62ad17e032a85a4ca119b289,001,2024-06-30_05h12.26.769,empathy_intonation_perc,2024.1.4,Win32,60.24096386,,,,,,,,,,,,,,13,plan,,,,,,181.8101,183.9433,1,0,1.5984,,0,14,14,12,1,three_way_cognate,1,REAL,FALSA
,,,,,,,,,62ad17e032a85a4ca119b289,001,2024-06-30_05h12.26.769,empathy_intonation_perc,2024.1.4,Win32,60.24096386,,,,,,,,,,,,,,154,harvé,,,,,,183.9436,185.4933,0,1,1.014900001,,0,15,15,153,1,pseudoword,0,REAL,FALSA
,,,,,,,,,62ad17e032a85a4ca119b289,001,2024-06-30_05h12.26.769,empathy_intonation_perc,2024.1.4,Win32,60.24096386,,,,,,,,,,,,,,183,edioso,,,,,,185.4935,187.0768,0,1,1.0488,,0,16,16,182,1,pseudoword,0,REAL,FALSA
,,,,,,,,,62ad17e032a85a4ca119b289,001,2024-06-30_05h12.26.769,empathy_intonation_perc,2024.1.4,Win32,60.24096386,,,,,,,,,,,,,,116,grigir,,,,,,187.0769,189.0767,0,1,1.4652,,0,17,17,115,1,pseudoword,0,REAL,FALSA
,,,,,,,,,62ad17e032a85a4ca119b289,001,2024-06-30_05h12.26.769,empathy_intonation_perc,2024.1.4,Win32,60.24096386,,,,,,,,,,,,,,43,honor,,,,,,189.0769,191.1766,1,0,1.5758,,0,18,18,42,1,two_way_cognate,1,REAL,FALSA
,,,,,,,,,62ad17e032a85a4ca119b289,001,2024-06-30_05h12.26.769,empathy_intonation_perc,2024.1.4,Win32,60.24096386,,,,,,,,,,,,,,75,patada,,,,,,191.1768,192.8932,0,1,1.1874,,0,19,19,74,1,non_cognate,1,REAL,FALSA
,,,,,,,,,62ad17e032a85a4ca119b289,001,2024-06-30_05h12.26.769,empathy_intonation_perc,2024.1.4,Win32,60.24096386,,,,,,,,,,,,,,8,kilo,,,,,,192.8934,195.1433,1,0,1.7153,,0,20,20,7,1,three_way_cognate,1,REAL,FALSA
,,,,,,,,,62ad17e032a85a4ca119b289,001,2024-06-30_05h12.26.769,empathy_intonation_perc,2024.1.4,Win32,60.24096386,,,,,,,,,,,,,,57,regalo,,,,,,195.1436,196.5767,1,0,0.9008,,0,21,21,56,1,non_cognate,1,REAL,FALSA
,,,,,,,,,62ad17e032a85a4ca119b289,001,2024-06-30_05h12.26.769,empathy_intonation_perc,2024.1.4,Win32,60.24096386,,,,,,,,,,,,,,67,llamar,,,,,,196.5769,197.9101,1,0,0.7988,,0,22,22,66,1,non_cognate,1,REAL,FALSA
,,,,,,,,,62ad17e032a85a4ca119b289,001,2024-06-30_05h12.26.769,empathy_intonation_perc,2024.1.4,Win32,60.24096386,,,,,,,,,,,,,,128,pelí,,,,,,197.9102,199.36,0,1,0.9183,,0,23,23,127,1,pseudoword,0,REAL,FALSA
,,,,,,,,,62ad17e032a85a4ca119b289,001,2024-06-30_05h12.26.769,empathy_intonation_perc,2024.1.4,Win32,60.24096386,,,,,,,,,,,,,,7,albino,,,,,,199.3601,201.3934,0,1,1.500599999,,0,24,24,6,1,three_way_cognate,1,REAL,FALSA
,,,,,,,,,62ad17e032a85a4ca119b289,001,2024-06-30_05h12.26.769,empathy_intonation_perc,2024.1.4,Win32,60.24096386,,,,,,,,,,,,,,4,flora,,,,,,201.3936,202.8934,1,0,0.9709,,0,25,25,3,1,three_way_cognate,1,REAL,FALSA
,,,,,,,,,62ad17e032a85a4ca119b289,001,2024-06-30_05h12.26.769,empathy_intonation_perc,2024.1.4,Win32,60.24096386,,,,,,,,,,,,,,166,anfia,,,,,,202.8936,204.56,0,1,1.135099999,,0,26,26,165,1,pseudoword,0,REAL,FALSA
,,,,,,,,,62ad17e032a85a4ca119b289,001,2024-06-30_05h12.26.769,empathy_intonation_perc,2024.1.4,Win32,60.24096386,,,,,,,,,,,,,,106,diebro,,,,,,204.5601,206.1433,0,1,1.0523,,0,27,27,105,1,pseudoword,0,REAL,FALSA
,,,,,,,,,62ad17e032a85a4ca119b289,001,2024-06-30_05h12.26.769,empathy_intonation_perc,2024.1.4,Win32,60.24096386,,,,,,,,,,,,,,68,puñal,,,,,,206.1435,209.5107,1,0,2.831700001,,0,28,28,67,1,non_cognate,1,REAL,FALSA
,,,,,,,,,62ad17e032a85a4ca119b289,001,2024-06-30_05h12.26.769,empathy_intonation_perc,2024.1.4,Win32,60.24096386,,,,,,,,,,,,,,77,suave,,,,,,209.5163,210.8766,1,0,0.838,,0,29,29,76,1,non_cognate,1,REAL,FALSA
,,,,,,,,,62ad17e032a85a4ca119b289,001,2024-06-30_05h12.26.769,empathy_intonation_perc,2024.1.4,Win32,60.24096386,,,,,,,,,,,,,,138,tator,,,,,,210.8768,212.2433,0,1,0.832,,0,30,30,137,1,pseudoword,0,REAL,FALSA
,,,,,,,,,62ad17e032a85a4ca119b289,001,2024-06-30_05h12.26.769,empathy_intonation_perc,2024.1.4,Win32,60.24096386,,,,,,,,,,,,,,36,viable,,,,,,212.2435,216.1266,0,1,3.3531,,0,31,31,35,1,two_way_cognate,1,REAL,FALSA
,,,,,,,,,62ad17e032a85a4ca119b289,001,2024-06-30_05h12.26.769,empathy_intonation_perc,2024.1.4,Win32,60.24096386,,,,,,,,,,,,,,171,gotro,,,,,,216.1322,217.7267,0,1,1.0697,,0,32,32,170,1,pseudoword,0,REAL,FALSA
,,,,,,,,,62ad17e032a85a4ca119b289,001,2024-06-30_05h12.26.769,empathy_intonation_perc,2024.1.4,Win32,60.24096386,,,,,,,,,,,,,,165,chote,,,,,,217.7268,219.1933,0,1,0.941599999,,0,33,33,164,1,pseudoword,0,REAL,FALSA
,,,,,,,,,62ad17e032a85a4ca119b289,001,2024-06-30_05h12.26.769,empathy_intonation_perc,2024.1.4,Win32,60.24096386,,,,,,,,,,,,,,112,samón,,,,,,219.1935,220.86,0,1,1.1388,,0,34,34,111,1,pseudoword,0,REAL,FALSA
,,,,,,,,,62ad17e032a85a4ca119b289,001,2024-06-30_05h12.26.769,empathy_intonation_perc,2024.1.4,Win32,60.24096386,,,,,,,,,,,,,,56,pico,,,,,,220.8602,222.8267,1,0,1.44,,0,35,35,55,1,non_cognate,1,REAL,FALSA
,,,,,,,,,62ad17e032a85a4ca119b289,001,2024-06-30_05h12.26.769,empathy_intonation_perc,2024.1.4,Win32,60.24096386,,,,,,,,,,,,,,187,nomata,,,,,,222.8268,224.4267,0,1,1.0736,,0,36,36,186,1,pseudoword,0,REAL,FALSA
,,,,,,,,,62ad17e032a85a4ca119b289,001,2024-06-30_05h12.26.769,empathy_intonation_perc,2024.1.4,Win32,60.24096386,,,,,,,,,,,,,,180,pupica,,,,,,224.4269,226.4099,0,1,1.4575,,0,37,37,179,1,pseudoword,0,REAL,FALSA
,,,,,,,,,62ad17e032a85a4ca119b289,001,2024-06-30_05h12.26.769,empathy_intonation_perc,2024.1.4,Win32,60.24096386,,,,,,,,,,,,,,151,prías,,,,,,226.4101,228.0767,0,1,1.1383,,0,38,38,150,1,pseudoword,0,REAL,FALSA
,,,,,,,,,62ad17e032a85a4ca119b289,001,2024-06-30_05h12.26.769,empathy_intonation_perc,2024.1.4,Win32,60.24096386,,,,,,,,,,,,,,26,enigma,,,,,,228.0768,230.8433,1,0,2.2398,,0,39,39,25,1,two_way_cognate,1,REAL,FALSA
,,,,,,,,,62ad17e032a85a4ca119b289,001,2024-06-30_05h12.26.769,empathy_intonation_perc,2024.1.4,Win32,60.24096386,,,,,,,,,,,,,,162,cengo,,,,,,230.8487,232.4933,0,1,1.1207,,0,40,40,161,1,pseudoword,0,REAL,FALSA
,,,,,,,,,62ad17e032a85a4ca119b289,001,2024-06-30_05h12.26.769,empathy_intonation_perc,2024.1.4,Win32,60.24096386,,,,,,,,,,,,,,23,plural,,,,,,232.4935,266.9599,1,0,33.9355,,0,41,41,22,1,three_way_cognate,1,REAL,FALSA
,,,,,,,,,62ad17e032a85a4ca119b289,001,2024-06-30_05h12.26.769,empathy_intonation_perc,2024.1.4,Win32,60.24096386,,,,,,,,,,,,,,127,vien,,,,,,266.9667,268.8767,0,1,1.3733,,0,42,42,126,1,pseudoword,0,REAL,FALSA
,,,,,,,,,62ad17e032a85a4ca119b289,001,2024-06-30_05h12.26.769,empathy_intonation_perc,2024.1.4,Win32,60.24096386,,,,,,,,,,,,,,169,pitis,,,,,,268.8768,270.36,0,1,0.9445,,0,43,43,168,1,pseudoword,0,REAL,FALSA
,,,,,,,,,62ad17e032a85a4ca119b289,001,2024-06-30_05h12.26.769,empathy_intonation_perc,2024.1.4,Win32,60.24096386,,,,,,,,,,,,,,14,aura,,,,,,270.3601,273.8767,1,0,2.9673,,0,44,44,13,1,three_way_cognate,1,REAL,FALSA
,,,,,,,,,62ad17e032a85a4ca119b289,001,2024-06-30_05h12.26.769,empathy_intonation_perc,2024.1.4,Win32,60.24096386,,,,,,,,,,,,,,145,rúo,,,,,,273.8823,275.3601,0,1,0.936599999,,0,45,45,144,1,pseudoword,0,REAL,FALSA
,,,,,,,,,62ad17e032a85a4ca119b289,001,2024-06-30_05h12.26.769,empathy_intonation_perc,2024.1.4,Win32,60.24096386,,,,,,,,,,,,,,164,tecia,,,,,,275.3607,277.1435,0,1,1.2455,,0,46,46,163,1,pseudoword,0,REAL,FALSA
,,,,,,,,,62ad17e032a85a4ca119b289,001,2024-06-30_05h12.26.769,empathy_intonation_perc,2024.1.4,Win32,60.24096386,,,,,,,,,,,,,,131,fuar,,,,,,277.144,278.66,0,1,0.9675,,0,47,47,130,1,pseudoword,0,REAL,FALSA
,,,,,,,,,62ad17e032a85a4ca119b289,001,2024-06-30_05h12.26.769,empathy_intonation_perc,2024.1.4,Win32,60.24096386,,,,,,,,,,,,,,122,boñaz,,,,,,278.6601,280.0766,0,1,0.873200001,,0,48,48,121,1,pseudoword,0,REAL,FALSA
,,,,,,,,,62ad17e032a85a4ca119b289,001,2024-06-30_05h12.26.769,empathy_intonation_perc,2024.1.4,Win32,60.24096386,,,,,,,,,,,,,,135,panté,,,,,,280.0768,281.4933,0,1,0.867400001,,0,49,49,134,1,pseudoword,0,REAL,FALSA
,,,,,,,,,62ad17e032a85a4ca119b289,001,2024-06-30_05h12.26.769,empathy_intonation_perc,2024.1.4,Win32,60.24096386,,,,,,,,,,,,,,15,test,,,,,,281.4935,284.1599,0,1,2.1199,,0,50,50,14,1,three_way_cognate,1,REAL,FALSA
,,,,,,,,,62ad17e032a85a4ca119b289,001,2024-06-30_05h12.26.769,empathy_intonation_perc,2024.1.4,Win32,60.24096386,,,,,,,,,,,,,,86,cuenco,,,,,,284.1601,285.9599,0,1,1.2613,,0,51,51,85,1,non_cognate,1,REAL,FALSA
,,,,,,,,,62ad17e032a85a4ca119b289,001,2024-06-30_05h12.26.769,empathy_intonation_perc,2024.1.4,Win32,60.24096386,,,,,,,,,,,,,,136,hueas,,,,,,285.9601,287.2932,0,1,0.7896,,0,52,52,135,1,pseudoword,0,REAL,FALSA
,,,,,,,,,62ad17e032a85a4ca119b289,001,2024-06-30_05h12.26.769,empathy_intonation_perc,2024.1.4,Win32,60.24096386,,,,,,,,,,,,,,163,olzan,,,,,,287.2935,288.6266,0,1,0.7842,,0,53,53,162,1,pseudoword,0,REAL,FALSA
,,,,,,,,,62ad17e032a85a4ca119b289,001,2024-06-30_05h12.26.769,empathy_intonation_perc,2024.1.4,Win32,60.24096386,,,,,,,,,,,,,,159,trcia,,,,,,288.6268,289.9432,0,1,0.778599999,,0,54,54,158,1,pseudoword,0,REAL,FALSA
,,,,,,,,,62ad17e032a85a4ca119b289,001,2024-06-30_05h12.26.769,empathy_intonation_perc,2024.1.4,Win32,60.24096386,,,,,,,,,,,,,,170,diabo,,,,,,289.9435,291.7266,0,1,1.2379,,0,55,55,169,1,pseudoword,0,REAL,FALSA
,,,,,,,,,62ad17e032a85a4ca119b289,001,2024-06-30_05h12.26.769,empathy_intonation_perc,2024.1.4,Win32,60.24096386,,,,,,,,,,,,,,182,desaro,,,,,,291.7268,294.0101,0,1,1.7425,,0,56,56,181,1,pseudoword,0,REAL,FALSA
,,,,,,,,,62ad17e032a85a4ca119b289,001,2024-06-30_05h12.26.769,empathy_intonation_perc,2024.1.4,Win32,60.24096386,,,,,,,,,,,,,,107,plago,,,,,,294.0102,295.4099,0,1,0.8513,,0,57,57,106,1,pseudoword,0,REAL,FALSA
,,,,,,,,,62ad17e032a85a4ca119b289,001,2024-06-30_05h12.26.769,empathy_intonation_perc,2024.1.4,Win32,60.24096386,,,,,,,,,,,,,,31,civil,,,,,,295.4102,298.16,1,0,2.203700001,,0,58,58,30,1,two_way_cognate,1,REAL,FALSA
,,,,,,,,,62ad17e032a85a4ca119b289,001,2024-06-30_05h12.26.769,empathy_intonation_perc,2024.1.4,Win32,60.24096386,,,,,,,,,,,,,,184,huenos,,,,,,298.1602,299.7932,0,1,1.0853,,0,59,59,183,1,pseudoword,0,REAL,FALSA
,,,,,,,,,62ad17e032a85a4ca119b289,001,2024-06-30_05h12.26.769,empathy_intonation_perc,2024.1.4,Win32,60.24096386,,,,,,,,,,,,,,168,cobén,,,,,,299.7935,301.1599,0,1,0.8278,,0,60,60,167,1,pseudoword,0,REAL,FALSA
,,,,,,,,,62ad17e032a85a4ca119b289,001,2024-06-30_05h12.26.769,empathy_intonation_perc,2024.1.4,Win32,60.24096386,,,,,,,,,,,,,,98,martir,,,,,,301.1601,303.5765,0,1,1.8938,,0,61,61,97,1,pseudoword,0,REAL,FALSA
,,,,,,,,,62ad17e032a85a4ca119b289,001,2024-06-30_05h12.26.769,empathy_intonation_perc,2024.1.4,Win32,60.24096386,,,,,,,,,,,,,,123,arane,,,,,,303.5768,304.8933,0,1,0.772599999,,0,62,62,122,1,pseudoword,0,REAL,FALSA
,,,,,,,,,62ad17e032a85a4ca119b289,001,2024-06-30_05h12.26.769,empathy_intonation_perc,2024.1.4,Win32,60.24096386,,,,,,,,,,,,,,99,bugor,,,,,,304.8934,308.01,0,1,2.5759,,0,63,63,98,1,pseudoword,0,REAL,FALSA
,,,,,,,,,62ad17e032a85a4ca119b289,001,2024-06-30_05h12.26.769,empathy_intonation_perc,2024.1.4,Win32,60.24096386,,,,,,,,,,,,,,175,tradía,,,,,,308.0156,310.3267,0,1,1.7676,,0,64,64,174,1,pseudoword,0,REAL,FALSA
,,,,,,,,,62ad17e032a85a4ca119b289,001,2024-06-30_05h12.26.769,empathy_intonation_perc,2024.1.4,Win32,60.24096386,,,,,,,,,,,,,,54,tapón,,,,,,310.3267,311.8599,1,0,0.9841,,0,65,65,53,1,non_cognate,1,REAL,FALSA
,,,,,,,,,62ad17e032a85a4ca119b289,001,2024-06-30_05h12.26.769,empathy_intonation_perc,2024.1.4,Win32,60.24096386,,,,,,,,,,,,,,90,venado,,,,,,311.8601,314.1433,1,0,1.7373,,0,66,66,89,1,non_cognate,1,REAL,FALSA
,,,,,,,,,62ad17e032a85a4ca119b289,001,2024-06-30_05h12.26.769,empathy_intonation_perc,2024.1.4,Win32,60.24096386,,,,,,,,,,,,,,134,molor,,,,,,314.1434,315.91,0,1,1.217200001,,0,67,67,133,1,pseudoword,0,REAL,FALSA
,,,,,,,,,62ad17e032a85a4ca119b289,001,2024-06-30_05h12.26.769,empathy_intonation_perc,2024.1.4,Win32,60.24096386,,,,,,,,,,,,,,80,cuenco,,,,,,315.9103,317.7933,0,1,1.335200001,,0,68,68,79,1,non_cognate,1,REAL,FALSA
,,,,,,,,,62ad17e032a85a4ca119b289,001,2024-06-30_05h12.26.769,empathy_intonation_perc,2024.1.4,Win32,60.24096386,,,,,,,,,,,,,,79,suelo,,,,,,317.7935,319.5099,1,0,1.1674,,0,69,69,78,1,non_cognate,1,REAL,FALSA
,,,,,,,,,62ad17e032a85a4ca119b289,001,2024-06-30_05h12.26.769,empathy_intonation_perc,2024.1.4,Win32,60.24096386,,,,,,,,,,,,,,140,chorde,,,,,,319.5102,320.9433,0,1,0.8876,,0,70,70,139,1,pseudoword,0,REAL,FALSA
,,,,,,,,,62ad17e032a85a4ca119b289,001,2024-06-30_05h12.26.769,empathy_intonation_perc,2024.1.4,Win32,60.24096386,,,,,,,,,,,,,,160,fomeó,,,,,,320.9435,322.5766,0,1,1.086,,0,71,71,159,1,pseudoword,0,REAL,FALSA
,,,,,,,,,62ad17e032a85a4ca119b289,001,2024-06-30_05h12.26.769,empathy_intonation_perc,2024.1.4,Win32,60.24096386,,,,,,,,,,,,,,174,pabea,,,,,,322.5768,324.2266,0,1,1.100799999,,0,72,72,173,1,pseudoword,0,REAL,FALSA
,,,,,,,,,62ad17e032a85a4ca119b289,001,2024-06-30_05h12.26.769,empathy_intonation_perc,2024.1.4,Win32,60.24096386,,,,,,,,,,,,,,161,civas,,,,,,324.2267,325.7766,0,1,1.0027,,0,73,73,160,1,pseudoword,0,REAL,FALSA
,,,,,,,,,62ad17e032a85a4ca119b289,001,2024-06-30_05h12.26.769,empathy_intonation_perc,2024.1.4,Win32,60.24096386,,,,,,,,,,,,,,2,tumor,,,,,,325.7767,327.3433,0,1,1.0204,,0,74,74,1,1,three_way_cognate,1,REAL,FALSA
,,,,,,,,,62ad17e032a85a4ca119b289,001,2024-06-30_05h12.26.769,empathy_intonation_perc,2024.1.4,Win32,60.24096386,,,,,,,,,,,,,,189,medium,,,,,,327.3434,329.0099,0,1,1.117700001,,0,75,75,188,1,pseudoword,0,REAL,FALSA
,,,,,,,,,62ad17e032a85a4ca119b289,001,2024-06-30_05h12.26.769,empathy_intonation_perc,2024.1.4,Win32,60.24096386,,,,,,,,,,,,,,22,mango,,,,,,329.0101,330.4766,1,0,0.9231,,0,76,76,21,1,three_way_cognate,1,REAL,FALSA
,,,,,,,,,62ad17e032a85a4ca119b289,001,2024-06-30_05h12.26.769,empathy_intonation_perc,2024.1.4,Win32,60.24096386,,,,,,,,,,,,,,118,bará,,,,,,330.4768,332.4933,0,1,1.489700001,,0,77,77,117,1,pseudoword,0,REAL,FALSA
,,,,,,,,,62ad17e032a85a4ca119b289,001,2024-06-30_05h12.26.769,empathy_intonation_perc,2024.1.4,Win32,60.24096386,,,,,,,,,,,,,,147,alla,,,,,,332.4935,335.0266,1,0,1.984400001,,0,78,78,146,1,pseudoword,0,REAL,FALSA
,,,,,,,,,62ad17e032a85a4ca119b289,001,2024-06-30_05h12.26.769,empathy_intonation_perc,2024.1.4,Win32,60.24096386,,,,,,,,,,,,,,45,total,,,,,,335.0268,337.6432,1,0,2.074400001,,0,79,79,44,1,two_way_cognate,1,REAL,FALSA
,,,,,,,,,62ad17e032a85a4ca119b289,001,2024-06-30_05h12.26.769,empathy_intonation_perc,2024.1.4,Win32,60.24096386,,,,,,,,,,,,,,12,dogma,,,,,,337.6488,339.5266,0,1,1.3341,,0,80,80,11,1,three_way_cognate,1,REAL,FALSA
,,,,,,,,,62ad17e032a85a4ca119b289,001,2024-06-30_05h12.26.769,empathy_intonation_perc,2024.1.4,Win32,60.24096386,,,,,,,,,,,,,,64,rizado,,,,,,339.5269,341.0266,1,0,0.951,,0,81,81,63,1,non_cognate,1,REAL,FALSA
,,,,,,,,,62ad17e032a85a4ca119b289,001,2024-06-30_05h12.26.769,empathy_intonation_perc,2024.1.4,Win32,60.24096386,,,,,,,,,,,,,,178,inichó,,,,,,341.0269,342.3433,0,1,0.7672,,0,82,82,177,1,pseudoword,0,REAL,FALSA
,,,,,,,,,62ad17e032a85a4ca119b289,001,2024-06-30_05h12.26.769,empathy_intonation_perc,2024.1.4,Win32,60.24096386,,,,,,,,,,,,,,29,clamor,,,,,,342.3435,344.4932,1,0,1.6062,,0,83,83,28,1,two_way_cognate,1,REAL,FALSA
,,,,,,,,,62ad17e032a85a4ca119b289,001,2024-06-30_05h12.26.769,empathy_intonation_perc,2024.1.4,Win32,60.24096386,,,,,,,,,,,,,,150,cricó,,,,,,344.4935,345.8766,0,1,0.834,,0,84,84,149,1,pseudoword,0,REAL,FALSA
,,,,,,,,,62ad17e032a85a4ca119b289,001,2024-06-30_05h12.26.769,empathy_intonation_perc,2024.1.4,Win32,60.24096386,,,,,,,,,,,,,,185,aljizo,,,,,,345.8767,347.7099,0,1,1.288400001,,0,85,85,184,1,pseudoword,0,REAL,FALSA
,,,,,,,,,62ad17e032a85a4ca119b289,001,2024-06-30_05h12.26.769,empathy_intonation_perc,2024.1.4,Win32,60.24096386,,,,,,,,,,,,,,32,animal,,,,,,347.7101,352.2766,1,0,4.0173,,0,86,86,31,1,two_way_cognate,1,REAL,FALSA
,,,,,,,,,62ad17e032a85a4ca119b289,001,2024-06-30_05h12.26.769,empathy_intonation_perc,2024.1.4,Win32,60.24096386,,,,,,,,,,,,,,114,dibrea,,,,,,352.2823,353.6766,0,1,0.8565,,0,87,87,113,1,pseudoword,0,REAL,FALSA
,,,,,,,,,62ad17e032a85a4ca119b289,001,2024-06-30_05h12.26.769,empathy_intonation_perc,2024.1.4,Win32,60.24096386,,,,,,,,,,,,,,95,listo,,,,,,353.6768,355.3266,1,0,1.1051,,0,88,88,94,1,non_cognate,1,REAL,FALSA
,,,,,,,,,62ad17e032a85a4ca119b289,001,2024-06-30_05h12.26.769,empathy_intonation_perc,2024.1.4,Win32,60.24096386,,,,,,,,,,,,,,61,aduana,,,,,,355.3268,357.5433,0,1,1.684,,0,89,89,60,1,non_cognate,1,REAL,FALSA
,,,,,,,,,62ad17e032a85a4ca119b289,001,2024-06-30_05h12.26.769,empathy_intonation_perc,2024.1.4,Win32,60.24096386,,,,,,,,,,,,,,148,gino,,,,,,357.5435,359.1599,0,1,1.078,,0,90,90,147,1,pseudoword,0,REAL,FALSA
,,,,,,,,,62ad17e032a85a4ca119b289,001,2024-06-30_05h12.26.769,empathy_intonation_perc,2024.1.4,Win32,60.24096386,,,,,,,,,,,,,,27,piano,,,,,,359.1601,361.0432,1,0,1.334,,0,91,91,26,1,two_way_cognate,1,REAL,FALSA
,,,,,,,,,62ad17e032a85a4ca119b289,001,2024-06-30_05h12.26.769,empathy_intonation_perc,2024.1.4,Win32,60.24096386,,,,,,,,,,,,,,158,babrá,,,,,,361.0434,362.4766,0,1,0.889900001,,0,92,92,157,1,pseudoword,0,REAL,FALSA
,,,,,,,,,62ad17e032a85a4ca119b289,001,2024-06-30_05h12.26.769,empathy_intonation_perc,2024.1.4,Win32,60.24096386,,,,,,,,,,,,,,144,diroco,,,,,,362.4768,364.2433,0,1,1.2174,,0,93,93,143,1,pseudoword,0,REAL,FALSA
,,,,,,,,,62ad17e032a85a4ca119b289,001,2024-06-30_05h12.26.769,empathy_intonation_perc,2024.1.4,Win32,60.24096386,,,,,,,,,,,,,,46,mortal,,,,,,364.2435,366.0433,0,1,1.2583,,0,94,94,45,1,two_way_cognate,1,REAL,FALSA
,,,,,,,,,62ad17e032a85a4ca119b289,001,2024-06-30_05h12.26.769,empathy_intonation_perc,2024.1.4,Win32,60.24096386,,,,,,,,,,,,,,40,pelvis,,,,,,366.0434,367.6265,0,1,1.0418,,0,95,95,39,1,two_way_cognate,1,REAL,FALSA
,,,,,,,,,62ad17e032a85a4ca119b289,001,2024-06-30_05h12.26.769,empathy_intonation_perc,2024.1.4,Win32,60.24096386,,,,,,,,,,,,,,156,ozoso,,,,,,367.6268,369.1933,0,1,1.0265,,0,96,96,155,1,pseudoword,0,REAL,FALSA
,,,,,,,,,62ad17e032a85a4ca119b289,001,2024-06-30_05h12.26.769,empathy_intonation_perc,2024.1.4,Win32,60.24096386,,,,,,,,,,,,,,126,tobre,,,,,,369.1934,371.2432,0,1,1.507900001,,0,97,97,125,1,pseudoword,0,REAL,FALSA
,,,,,,,,,62ad17e032a85a4ca119b289,001,2024-06-30_05h12.26.769,empathy_intonation_perc,2024.1.4,Win32,60.24096386,,,,,,,,,,,,,,101,losco,,,,,,371.2434,372.5933,0,1,0.802,,0,98,98,100,1,pseudoword,0,REAL,FALSA
,,,,,,,,,62ad17e032a85a4ca119b289,001,2024-06-30_05h12.26.769,empathy_intonation_perc,2024.1.4,Win32,60.24096386,,,,,,,,,,,,,,51,listo,,,,,,372.5934,374.0599,1,0,0.924,,0,99,99,50,1,non_cognate,1,REAL,FALSA
,,,,,,,,,62ad17e032a85a4ca119b289,001,2024-06-30_05h12.26.769,empathy_intonation_perc,2024.1.4,Win32,60.24096386,,,,,,,,,,,,,,88,percha,,,,,,374.0601,376.1265,1,0,1.5215,,0,100,100,87,1,non_cognate,1,REAL,FALSA
,,,,,,,,,62ad17e032a85a4ca119b289,001,2024-06-30_05h12.26.769,empathy_intonation_perc,2024.1.4,Win32,60.24096386,,,,,,,,,,,,,,69,tiza,,,,,,376.1268,377.5432,0,1,0.8785,,0,101,101,68,1,non_cognate,1,REAL,FALSA
,,,,,,,,,62ad17e032a85a4ca119b289,001,2024-06-30_05h12.26.769,empathy_intonation_perc,2024.1.4,Win32,60.24096386,,,,,,,,,,,,,,52,blando,,,,,,377.5434,379.3815,0,1,1.3002,,0,102,102,51,1,non_cognate,1,REAL,FALSA
,,,,,,,,,62ad17e032a85a4ca119b289,001,2024-06-30_05h12.26.769,empathy_intonation_perc,2024.1.4,Win32,60.24096386,,,,,,,,,,,,,,44,editor,,,,,,379.3817,381.0628,0,1,1.1484,,0,103,103,43,1,two_way_cognate,1,REAL,FALSA
,,,,,,,,,62ad17e032a85a4ca119b289,001,2024-06-30_05h12.26.769,empathy_intonation_perc,2024.1.4,Win32,60.24096386,,,,,,,,,,,,,,190,asumie,,,,,,381.0631,382.5599,0,1,0.953200001,,0,104,104,189,1,pseudoword,0,REAL,FALSA
,,,,,,,,,62ad17e032a85a4ca119b289,001,2024-06-30_05h12.26.769,empathy_intonation_perc,2024.1.4,Win32,60.24096386,,,,,,,,,,,,,,102,coyo,,,,,,382.5601,383.9932,0,1,0.8931,,0,105,105,101,1,pseudoword,0,REAL,FALSA
,,,,,,,,,62ad17e032a85a4ca119b289,001,2024-06-30_05h12.26.769,empathy_intonation_perc,2024.1.4,Win32,60.24096386,,,,,,,,,,,,,,49,teñir,,,,,,383.9934,385.7265,0,1,1.187900001,,0,106,106,48,1,non_cognate,1,REAL,FALSA
,,,,,,,,,62ad17e032a85a4ca119b289,001,2024-06-30_05h12.26.769,empathy_intonation_perc,2024.1.4,Win32,60.24096386,,,,,,,,,,,,,,83,hálito,,,,,,385.7268,387.1932,0,1,0.927,,0,107,107,82,1,non_cognate,1,REAL,FALSA
,,,,,,,,,62ad17e032a85a4ca119b289,001,2024-06-30_05h12.26.769,empathy_intonation_perc,2024.1.4,Win32,60.24096386,,,,,,,,,,,,,,92,flecha,,,,,,387.1934,388.7432,0,1,1.0116,,0,108,108,91,1,non_cognate,1,REAL,FALSA
,,,,,,,,,62ad17e032a85a4ca119b289,001,2024-06-30_05h12.26.769,empathy_intonation_perc,2024.1.4,Win32,60.24096386,,,,,,,,,,,,,,21,hotel,,,,,,388.7433,390.8599,1,0,1.573900001,,0,109,109,20,1,three_way_cognate,1,REAL,FALSA
,,,,,,,,,62ad17e032a85a4ca119b289,001,2024-06-30_05h12.26.769,empathy_intonation_perc,2024.1.4,Win32,60.24096386,,,,,,,,,,,,,,137,trugo,,,,,,390.86,392.7765,0,1,1.377,,0,110,110,136,1,pseudoword,0,REAL,FALSA
,,,,,,,,,62ad17e032a85a4ca119b289,001,2024-06-30_05h12.26.769,empathy_intonation_perc,2024.1.4,Win32,60.24096386,,,,,,,,,,,,,,94,forro,,,,,,392.7767,394.9767,0,1,1.6522,,0,111,111,93,1,non_cognate,1,REAL,FALSA
,,,,,,,,,62ad17e032a85a4ca119b289,001,2024-06-30_05h12.26.769,empathy_intonation_perc,2024.1.4,Win32,60.24096386,,,,,,,,,,,,,,55,maldad,,,,,,394.9768,396.6766,1,0,1.150599999,,0,112,112,54,1,non_cognate,1,REAL,FALSA
,,,,,,,,,62ad17e032a85a4ca119b289,001,2024-06-30_05h12.26.769,empathy_intonation_perc,2024.1.4,Win32,60.24096386,,,,,,,,,,,,,,72,rostro,,,,,,396.6768,400.9776,1,0,3.753,,0,113,113,71,1,non_cognate,1,REAL,FALSA
,,,,,,,,,62ad17e032a85a4ca119b289,001,2024-06-30_05h12.26.769,empathy_intonation_perc,2024.1.4,Win32,60.24096386,,,,,,,,,,,,,,191,frasis,,,,,,400.983,402.3765,0,1,0.8605,,0,114,114,190,1,pseudoword,0,REAL,FALSA
,,,,,,,,,62ad17e032a85a4ca119b289,001,2024-06-30_05h12.26.769,empathy_intonation_perc,2024.1.4,Win32,60.24096386,,,,,,,,,,,,,,181,gravés,,,,,,402.3767,404.5599,0,1,1.6367,,0,115,115,180,1,pseudoword,0,REAL,FALSA
,,,,,,,,,62ad17e032a85a4ca119b289,001,2024-06-30_05h12.26.769,empathy_intonation_perc,2024.1.4,Win32,60.24096386,,,,,,,,,,,,,,111,monue,,,,,,404.5601,406.0098,0,1,0.909200001,,0,116,116,110,1,pseudoword,0,REAL,FALSA
,,,,,,,,,62ad17e032a85a4ca119b289,001,2024-06-30_05h12.26.769,empathy_intonation_perc,2024.1.4,Win32,60.24096386,,,,,,,,,,,,,,53,punta,,,,,,406.01,408.1766,1,0,1.6193,,0,117,117,52,1,non_cognate,1,REAL,FALSA
,,,,,,,,,62ad17e032a85a4ca119b289,001,2024-06-30_05h12.26.769,empathy_intonation_perc,2024.1.4,Win32,60.24096386,,,,,,,,,,,,,,119,esís,,,,,,408.1768,409.6148,0,1,0.9001,,0,118,118,118,1,pseudoword,0,REAL,FALSA
,,,,,,,,,62ad17e032a85a4ca119b289,001,2024-06-30_05h12.26.769,empathy_intonation_perc,2024.1.4,Win32,60.24096386,,,,,,,,,,,,,,129,vinzó,,,,,,409.6151,411.3599,0,1,1.2036,,0,119,119,128,1,pseudoword,0,REAL,FALSA
,,,,,,,,,62ad17e032a85a4ca119b289,001,2024-06-30_05h12.26.769,empathy_intonation_perc,2024.1.4,Win32,60.24096386,,,,,,,,,,,,,,5,extra,,,,,,411.3601,413.5599,0,1,1.6609,,0,120,120,4,1,three_way_cognate,1,REAL,FALSA
,,,,,,,,,62ad17e032a85a4ca119b289,001,2024-06-30_05h12.26.769,empathy_intonation_perc,2024.1.4,Win32,60.24096386,,,,,,,,,,,,,,16,chat,,,,,,413.5601,415.0099,0,1,0.9013,,0,121,121,15,1,three_way_cognate,1,REAL,FALSA
,,,,,,,,,62ad17e032a85a4ca119b289,001,2024-06-30_05h12.26.769,empathy_intonation_perc,2024.1.4,Win32,60.24096386,,,,,,,,,,,,,,97,nocita,,,,,,415.01,416.3432,0,1,0.7951,,0,122,122,96,1,pseudoword,0,REAL,FALSA
,,,,,,,,,62ad17e032a85a4ca119b289,001,2024-06-30_05h12.26.769,empathy_intonation_perc,2024.1.4,Win32,60.24096386,,,,,,,,,,,,,,173,mibro,,,,,,416.3434,417.6443,0,1,0.7581,,0,123,123,172,1,pseudoword,0,REAL,FALSA
,,,,,,,,,62ad17e032a85a4ca119b289,001,2024-06-30_05h12.26.769,empathy_intonation_perc,2024.1.4,Win32,60.24096386,,,,,,,,,,,,,,85,enorme,,,,,,417.6453,418.9265,0,1,0.737900001,,0,124,124,84,1,non_cognate,1,REAL,FALSA
,,,,,,,,,62ad17e032a85a4ca119b289,001,2024-06-30_05h12.26.769,empathy_intonation_perc,2024.1.4,Win32,60.24096386,,,,,,,,,,,,,,186,rizate,,,,,,418.9267,420.6639,0,1,1.199299999,,0,125,125,185,1,pseudoword,0,REAL,FALSA
,,,,,,,,,62ad17e032a85a4ca119b289,001,2024-06-30_05h12.26.769,empathy_intonation_perc,2024.1.4,Win32,60.24096386,,,,,,,,,,,,,,153,golla,,,,,,420.664,422.8099,0,1,1.6096,,0,126,126,152,1,pseudoword,0,REAL,FALSA
,,,,,,,,,62ad17e032a85a4ca119b289,001,2024-06-30_05h12.26.769,empathy_intonation_perc,2024.1.4,Win32,60.24096386,,,,,,,,,,,,,,81,sacar,,,,,,422.8101,424.2099,1,0,0.8678,,0,127,127,80,1,non_cognate,1,REAL,FALSA
,,,,,,,,,62ad17e032a85a4ca119b289,001,2024-06-30_05h12.26.769,empathy_intonation_perc,2024.1.4,Win32,60.24096386,,,,,,,,,,,,,,84,aviso,,,,,,424.21,426.3432,1,0,1.595200001,,0,128,128,83,1,non_cognate,1,REAL,FALSA
,,,,,,,,,62ad17e032a85a4ca119b289,001,2024-06-30_05h12.26.769,empathy_intonation_perc,2024.1.4,Win32,60.24096386,,,,,,,,,,,,,,117,morrá,,,,,,426.3436,428.9432,0,1,2.0538,,0,129,129,116,1,pseudoword,0,REAL,FALSA
,,,,,,,,,62ad17e032a85a4ca119b289,001,2024-06-30_05h12.26.769,empathy_intonation_perc,2024.1.4,Win32,60.24096386,,,,,,,,,,,,,,157,seled,,,,,,428.9434,430.7432,0,1,1.2507,,0,130,130,156,1,pseudoword,0,REAL,FALSA
,,,,,,,,,62ad17e032a85a4ca119b289,001,2024-06-30_05h12.26.769,empathy_intonation_perc,2024.1.4,Win32,60.24096386,,,,,,,,,,,,,,63,hilo,,,,,,430.7435,434.0766,1,0,2.7905,,0,131,131,62,1,non_cognate,1,REAL,FALSA
,,,,,,,,,62ad17e032a85a4ca119b289,001,2024-06-30_05h12.26.769,empathy_intonation_perc,2024.1.4,Win32,60.24096386,,,,,,,,,,,,,,149,emén,,,,,,434.082,435.5266,0,1,0.9005,,0,132,132,148,1,pseudoword,0,REAL,FALSA
,,,,,,,,,62ad17e032a85a4ca119b289,001,2024-06-30_05h12.26.769,empathy_intonation_perc,2024.1.4,Win32,60.24096386,,,,,,,,,,,,,,34,actor,,,,,,435.5268,437.3932,1,0,1.318700001,,0,133,133,33,1,two_way_cognate,1,REAL,FALSA
,,,,,,,,,62ad17e032a85a4ca119b289,001,2024-06-30_05h12.26.769,empathy_intonation_perc,2024.1.4,Win32,60.24096386,,,,,,,,,,,,,,65,guerra,,,,,,437.3934,439.0932,1,0,1.1507,,0,134,134,64,1,non_cognate,1,REAL,FALSA
,,,,,,,,,62ad17e032a85a4ca119b289,001,2024-06-30_05h12.26.769,empathy_intonation_perc,2024.1.4,Win32,60.24096386,,,,,,,,,,,,,,146,gió,,,,,,439.0934,440.7932,0,1,1.159900001,,0,135,135,145,1,pseudoword,0,REAL,FALSA
,,,,,,,,,62ad17e032a85a4ca119b289,001,2024-06-30_05h12.26.769,empathy_intonation_perc,2024.1.4,Win32,60.24096386,,,,,,,,,,,,,,58,colcha,,,,,,440.7935,443.1099,1,0,1.7674,,0,136,136,57,1,non_cognate,1,REAL,FALSA
,,,,,,,,,62ad17e032a85a4ca119b289,001,2024-06-30_05h12.26.769,empathy_intonation_perc,2024.1.4,Win32,60.24096386,,,,,,,,,,,,,,76,chocar,,,,,,443.1101,444.6099,1,0,0.9683,,0,137,137,75,1,non_cognate,1,REAL,FALSA
,,,,,,,,,62ad17e032a85a4ca119b289,001,2024-06-30_05h12.26.769,empathy_intonation_perc,2024.1.4,Win32,60.24096386,,,,,,,,,,,,,,48,pelvis,,,,,,444.6101,445.9933,0,1,0.859900001,,0,138,138,47,1,two_way_cognate,1,REAL,FALSA
,,,,,,,,,62ad17e032a85a4ca119b289,001,2024-06-30_05h12.26.769,empathy_intonation_perc,2024.1.4,Win32,60.24096386,,,,,,,,,,,,,,179,suelet,,,,,,445.9935,447.9266,0,1,1.4006,,0,139,139,178,1,pseudoword,0,REAL,FALSA
,,,,,,,,,62ad17e032a85a4ca119b289,001,2024-06-30_05h12.26.769,empathy_intonation_perc,2024.1.4,Win32,60.24096386,,,,,,,,,,,,,,62,pegar,,,,,,447.9268,449.6932,1,0,1.2226,,0,140,140,61,1,non_cognate,1,REAL,FALSA
,,,,,,,,,62ad17e032a85a4ca119b289,001,2024-06-30_05h12.26.769,empathy_intonation_perc,2024.1.4,Win32,60.24096386,,,,,,,,,,,,,,155,kugis,,,,,,449.6935,451.0432,0,1,0.8007,,0,141,141,154,1,pseudoword,0,REAL,FALSA
,,,,,,,,,62ad17e032a85a4ca119b289,001,2024-06-30_05h12.26.769,empathy_intonation_perc,2024.1.4,Win32,60.24096386,,,,,,,,,,,,,,70,ánimo,,,,,,451.0434,453.1265,1,0,1.5338,,0,142,142,69,1,non_cognate,1,REAL,FALSA
,,,,,,,,,62ad17e032a85a4ca119b289,001,2024-06-30_05h12.26.769,empathy_intonation_perc,2024.1.4,Win32,60.24096386,,,,,,,,,,,,,,91,equipo,,,,,,453.1267,454.6599,1,0,0.984,,0,143,143,90,1,non_cognate,1,REAL,FALSA
,,,,,,,,,62ad17e032a85a4ca119b289,001,2024-06-30_05h12.26.769,empathy_intonation_perc,2024.1.4,Win32,60.24096386,,,,,,,,,,,,,,120,mauja,,,,,,454.66,456.3099,0,1,1.1008,,0,144,144,119,1,pseudoword,0,REAL,FALSA
,,,,,,,,,62ad17e032a85a4ca119b289,001,2024-06-30_05h12.26.769,empathy_intonation_perc,2024.1.4,Win32,60.24096386,,,,,,,,,,,,,,18,altar,,,,,,456.3101,459.5433,1,0,2.684,,0,145,145,17,1,three_way_cognate,1,REAL,FALSA
,,,,,,,,,62ad17e032a85a4ca119b289,001,2024-06-30_05h12.26.769,empathy_intonation_perc,2024.1.4,Win32,60.24096386,,,,,,,,,,,,,,39,casual,,,,,,459.5488,462.4795,1,0,2.398099999,,0,146,146,38,1,two_way_cognate,1,REAL,FALSA
,,,,,,,,,62ad17e032a85a4ca119b289,001,2024-06-30_05h12.26.769,empathy_intonation_perc,2024.1.4,Win32,60.24096386,,,,,,,,,,,,,,66,aleta,,,,,,462.4797,463.9931,0,1,0.9766,,0,147,147,65,1,non_cognate,1,REAL,FALSA
,,,,,,,,,62ad17e032a85a4ca119b289,001,2024-06-30_05h12.26.769,empathy_intonation_perc,2024.1.4,Win32,60.24096386,,,,,,,,,,,,,,78,rendir,,,,,,463.9934,470.4098,1,0,5.8764,,0,148,148,77,1,non_cognate,1,REAL,FALSA
,,,,,,,,,62ad17e032a85a4ca119b289,001,2024-06-30_05h12.26.769,empathy_intonation_perc,2024.1.4,Win32,60.24096386,,,,,,,,,,,,,,47,color,,,,,,470.4153,471.9766,1,0,1.0272,,0,149,149,46,1,two_way_cognate,1,REAL,FALSA
,,,,,,,,,62ad17e032a85a4ca119b289,001,2024-06-30_05h12.26.769,empathy_intonation_perc,2024.1.4,Win32,60.24096386,,,,,,,,,,,,,,96,caro,,,,,,471.9767,475.2266,1,0,2.7086,,0,150,150,95,1,non_cognate,1,REAL,FALSA
,,,,,,,,,62ad17e032a85a4ca119b289,001,2024-06-30_05h12.26.769,empathy_intonation_perc,2024.1.4,Win32,60.24096386,,,,,,,,,,,,,,37,torso,,,,,,475.232,478.0099,1,0,2.2426,,0,151,151,36,1,two_way_cognate,1,REAL,FALSA
,,,,,,,,,62ad17e032a85a4ca119b289,001,2024-06-30_05h12.26.769,empathy_intonation_perc,2024.1.4,Win32,60.24096386,,,,,,,,,,,,,,24,retina,,,,,,478.01,482.5099,0,1,3.9556,,0,152,152,23,1,three_way_cognate,1,REAL,FALSA
,,,,,,,,,62ad17e032a85a4ca119b289,001,2024-06-30_05h12.26.769,empathy_intonation_perc,2024.1.4,Win32,60.24096386,,,,,,,,,,,,,,167,dobbo,,,,,,482.5153,484.0599,0,1,1.007200001,,0,153,153,166,1,pseudoword,0,REAL,FALSA
,,,,,,,,,62ad17e032a85a4ca119b289,001,2024-06-30_05h12.26.769,empathy_intonation_perc,2024.1.4,Win32,60.24096386,,,,,,,,,,,,,,109,laras,,,,,,484.06,485.7099,0,1,1.105200001,,0,154,154,108,1,pseudoword,0,REAL,FALSA
,,,,,,,,,62ad17e032a85a4ca119b289,001,2024-06-30_05h12.26.769,empathy_intonation_perc,2024.1.4,Win32,60.24096386,,,,,,,,,,,,,,50,sierra,,,,,,485.7101,490.2776,0,1,4.0175,,0,155,155,49,1,non_cognate,1,REAL,FALSA
,,,,,,,,,62ad17e032a85a4ca119b289,001,2024-06-30_05h12.26.769,empathy_intonation_perc,2024.1.4,Win32,60.24096386,,,,,,,,,,,,,,104,estulo,,,,,,490.2832,492.4932,0,1,1.6726,,0,156,156,103,1,pseudoword,0,REAL,FALSA
,,,,,,,,,62ad17e032a85a4ca119b289,001,2024-06-30_05h12.26.769,empathy_intonation_perc,2024.1.4,Win32,60.24096386,,,,,,,,,,,,,,125,ceme,,,,,,492.4933,494.0146,0,1,1,,0,157,157,124,1,pseudoword,0,REAL,FALSA
,,,,,,,,,62ad17e032a85a4ca119b289,001,2024-06-30_05h12.26.769,empathy_intonation_perc,2024.1.4,Win32,60.24096386,,,,,,,,,,,,,,192,próces,,,,,,494.0148,496.2766,1,0,1.7175,,0,158,158,191,1,pseudoword,0,REAL,FALSA
,,,,,,,,,62ad17e032a85a4ca119b289,001,2024-06-30_05h12.26.769,empathy_intonation_perc,2024.1.4,Win32,60.24096386,,,,,,,,,,,,,,172,dogue,,,,,,496.2767,497.9432,0,1,1.1286,,0,159,159,171,1,pseudoword,0,REAL,FALSA
,,,,,,,,,62ad17e032a85a4ca119b289,001,2024-06-30_05h12.26.769,empathy_intonation_perc,2024.1.4,Win32,60.24096386,,,,,,,,,,,,,,152,prave,,,,,,497.9434,499.5765,0,1,1.093900001,,0,160,160,151,1,pseudoword,0,REAL,FALSA
,,,,,,,,,62ad17e032a85a4ca119b289,001,2024-06-30_05h12.26.769,empathy_intonation_perc,2024.1.4,Win32,60.24096386,,,,,,,,,,,,,,133,conso,,,,,,499.5766,501.1098,0,1,0.984099999,,0,161,161,132,1,pseudoword,0,REAL,FALSA
,,,,,,,,,62ad17e032a85a4ca119b289,001,2024-06-30_05h12.26.769,empathy_intonation_perc,2024.1.4,Win32,60.24096386,,,,,,,,,,,,,,108,jauda,,,,,,501.11,503.3432,0,1,1.6872,,0,162,162,107,1,pseudoword,0,REAL,FALSA
,,,,,,,,,62ad17e032a85a4ca119b289,001,2024-06-30_05h12.26.769,empathy_intonation_perc,2024.1.4,Win32,60.24096386,,,,,,,,,,,,,,139,sasos,,,,,,503.3486,505.8598,0,1,1.9678,,0,163,163,138,1,pseudoword,0,REAL,FALSA
,,,,,,,,,62ad17e032a85a4ca119b289,001,2024-06-30_05h12.26.769,empathy_intonation_perc,2024.1.4,Win32,60.24096386,,,,,,,,,,,,,,143,hurcos,,,,,,505.86,520.8432,0,1,14.4412,,0,164,164,142,1,pseudoword,0,REAL,FALSA
,,,,,,,,,62ad17e032a85a4ca119b289,001,2024-06-30_05h12.26.769,empathy_intonation_perc,2024.1.4,Win32,60.24096386,,,,,,,,,,,,,,141,virios,,,,,,520.8434,522.6599,0,1,1.2673,,0,165,165,140,1,pseudoword,0,REAL,FALSA
,,,,,,,,,62ad17e032a85a4ca119b289,001,2024-06-30_05h12.26.769,empathy_intonation_perc,2024.1.4,Win32,60.24096386,,,,,,,,,,,,,,130,dubo,,,,,,522.66,524.6599,0,1,1.4504,,0,166,166,129,1,pseudoword,0,REAL,FALSA
,,,,,,,,,62ad17e032a85a4ca119b289,001,2024-06-30_05h12.26.769,empathy_intonation_perc,2024.1.4,Win32,60.24096386,,,,,,,,,,,,,,82,brillo,,,,,,524.6601,526.1765,1,0,0.9693,,0,167,167,81,1,non_cognate,1,REAL,FALSA
,,,,,,,,,62ad17e032a85a4ca119b289,001,2024-06-30_05h12.26.769,empathy_intonation_perc,2024.1.4,Win32,60.24096386,,,,,,,,,,,,,,176,gripar,,,,,,526.1766,527.8432,1,0,1.1252,,0,168,168,175,1,pseudoword,0,REAL,FALSA
,,,,,,,,,62ad17e032a85a4ca119b289,001,2024-06-30_05h12.26.769,empathy_intonation_perc,2024.1.4,Win32,60.24096386,,,,,,,,,,,,,,42,rumor,,,,,,527.8433,530.3765,1,0,1.9938,,0,169,169,41,1,two_way_cognate,1,REAL,FALSA
,,,,,,,,,62ad17e032a85a4ca119b289,001,2024-06-30_05h12.26.769,empathy_intonation_perc,2024.1.4,Win32,60.24096386,,,,,,,,,,,,,,35,aurora,,,,,,530.3767,532.2931,1,0,1.3674,,0,170,170,34,1,two_way_cognate,1,REAL,FALSA
,,,,,,,,,62ad17e032a85a4ca119b289,001,2024-06-30_05h12.26.769,empathy_intonation_perc,2024.1.4,Win32,60.24096386,,,,,,,,,,,,,,60,siglo,,,,,,532.2934,534.2599,1,0,1.417200001,,0,171,171,59,1,non_cognate,1,REAL,FALSA
,,,,,,,,,62ad17e032a85a4ca119b289,001,2024-06-30_05h12.26.769,empathy_intonation_perc,2024.1.4,Win32,60.24096386,,,,,,,,,,,,,,33,collar,,,,,,534.2601,535.9772,1,0,1.1772,,0,172,172,32,1,two_way_cognate,1,REAL,FALSA
,,,,,,,,,62ad17e032a85a4ca119b289,001,2024-06-30_05h12.26.769,empathy_intonation_perc,2024.1.4,Win32,60.24096386,,,,,,,,,,,,,,132,nocó,,,,,,535.9781,537.7599,0,1,1.2365,,0,173,173,131,1,pseudoword,0,REAL,FALSA
,,,,,,,,,62ad17e032a85a4ca119b289,001,2024-06-30_05h12.26.769,empathy_intonation_perc,2024.1.4,Win32,60.24096386,,,,,,,,,,,,,,1,moral,,,,,,537.7601,539.4433,1,0,1.1342,,0,174,174,0,1,three_way_cognate,1,REAL,FALSA
,,,,,,,,,62ad17e032a85a4ca119b289,001,2024-06-30_05h12.26.769,empathy_intonation_perc,2024.1.4,Win32,60.24096386,,,,,,,,,,,,,,38,halo,,,,,,539.4435,542.4598,0,1,2.473700001,,0,175,175,37,1,two_way_cognate,1,REAL,FALSA
,,,,,,,,,62ad17e032a85a4ca119b289,001,2024-06-30_05h12.26.769,empathy_intonation_perc,2024.1.4,Win32,60.24096386,,,,,,,,,,,,,,19,mafia,,,,,,542.4654,544.7099,1,0,1.7008,,0,176,176,18,1,three_way_cognate,1,REAL,FALSA
,,,,,,,,,62ad17e032a85a4ca119b289,001,2024-06-30_05h12.26.769,empathy_intonation_perc,2024.1.4,Win32,60.24096386,,,,,,,,,,,,,,142,parre,,,,,,544.71,549.6932,1,0,4.4393,,0,177,177,141,1,pseudoword,0,REAL,FALSA
,,,,,,,,,62ad17e032a85a4ca119b289,001,2024-06-30_05h12.26.769,empathy_intonation_perc,2024.1.4,Win32,60.24096386,,,,,,,,,,,,,,59,feo,,,,,,549.6986,551.3098,1,0,1.071900001,,0,178,178,58,1,non_cognate,1,REAL,FALSA
,,,,,,,,,62ad17e032a85a4ca119b289,001,2024-06-30_05h12.26.769,empathy_intonation_perc,2024.1.4,Win32,60.24096386,,,,,,,,,,,,,,113,nasce,,,,,,551.31,553.7098,0,1,1.8553,,0,179,179,112,1,pseudoword,0,REAL,FALSA
,,,,,,,,,62ad17e032a85a4ca119b289,001,2024-06-30_05h12.26.769,empathy_intonation_perc,2024.1.4,Win32,60.24096386,,,,,,,,,,,,,,10,drama,,,,,,553.7154,555.1765,1,0,0.9273,,0,180,180,9,1,three_way_cognate,1,REAL,FALSA
,,,,,,,,,62ad17e032a85a4ca119b289,001,2024-06-30_05h12.26.769,empathy_intonation_perc,2024.1.4,Win32,60.24096386,,,,,,,,,,,,,,93,tapa,,,,,,555.1766,556.8098,1,0,1.109200001,,0,181,181,92,1,non_cognate,1,REAL,FALSA
,,,,,,,,,62ad17e032a85a4ca119b289,001,2024-06-30_05h12.26.769,empathy_intonation_perc,2024.1.4,Win32,60.24096386,,,,,,,,,,,,,,105,leniz,,,,,,556.8101,558.3275,0,1,0.9675,,0,182,182,104,1,pseudoword,0,REAL,FALSA
,,,,,,,,,62ad17e032a85a4ca119b289,001,2024-06-30_05h12.26.769,empathy_intonation_perc,2024.1.4,Win32,60.24096386,,,,,,,,,,,,,,20,trauma,,,,,,558.3284,560.7265,0,1,1.8508,,0,183,183,19,1,three_way_cognate,1,REAL,FALSA
,,,,,,,,,62ad17e032a85a4ca119b289,001,2024-06-30_05h12.26.769,empathy_intonation_perc,2024.1.4,Win32,60.24096386,,,,,,,,,,,,,,9,portal,,,,,,560.7268,563.4598,0,1,2.1841,,0,184,184,8,1,three_way_cognate,1,REAL,FALSA
,,,,,,,,,62ad17e032a85a4ca119b289,001,2024-06-30_05h12.26.769,empathy_intonation_perc,2024.1.4,Win32,60.24096386,,,,,,,,,,,,,,103,vueras,,,,,,563.46,565.1098,0,1,1.1006,,0,185,185,102,1,pseudoword,0,REAL,FALSA
,,,,,,,,,62ad17e032a85a4ca119b289,001,2024-06-30_05h12.26.769,empathy_intonation_perc,2024.1.4,Win32,60.24096386,,,,,,,,,,,,,,25,vigor,,,,,,565.11,566.6265,0,1,0.9846,,0,186,186,24,1,two_way_cognate,1,REAL,FALSA
,,,,,,,,,62ad17e032a85a4ca119b289,001,2024-06-30_05h12.26.769,empathy_intonation_perc,2024.1.4,Win32,60.24096386,,,,,,,,,,,,,,28,ardor,,,,,,566.6267,568.1099,0,1,0.9386,,0,187,187,27,1,two_way_cognate,1,REAL,FALSA
,,,,,,,,,62ad17e032a85a4ca119b289,001,2024-06-30_05h12.26.769,empathy_intonation_perc,2024.1.4,Win32,60.24096386,,,,,,,,,,,,,,188,amplir,,,,,,568.11,570.2432,1,0,1.6007,,0,188,188,187,1,pseudoword,0,REAL,FALSA
,,,,,,,,,62ad17e032a85a4ca119b289,001,2024-06-30_05h12.26.769,empathy_intonation_perc,2024.1.4,Win32,60.24096386,,,,,,,,,,,,,,17,clan,,,,,,570.2433,571.7266,0,1,0.938,,0,189,189,16,1,three_way_cognate,1,REAL,FALSA
,,,,,,,,,62ad17e032a85a4ca119b289,001,2024-06-30_05h12.26.769,empathy_intonation_perc,2024.1.4,Win32,60.24096386,,,,,,,,,,,,,,30,fiscal,,,,,,571.7267,573.3265,0,1,1.0545,,0,190,190,29,1,two_way_cognate,1,REAL,FALSA
,,,,,,,,,62ad17e032a85a4ca119b289,001,2024-06-30_05h12.26.769,empathy_intonation_perc,2024.1.4,Win32,60.24096386,,,,,,,,,,,,,,110,densó,,,,,,573.3271,575.0932,0,1,1.2174,,0,191,191,109,1,pseudoword,0,REAL,FALSA
