lextale_instructions.started,lextale_instructions.stopped,lextale_instructions_loop.thisRepN,lextale_instructions_loop.thisTrialN,lextale_instructions_loop.thisN,lextale_instructions_loop.thisIndex,lextale_instructions_loop.ran,instructions_text,continue_text,participant,session,date,expName,psychopyVersion,OS,frameRate,lextale_practice.started,lextale_practice.stopped,key_resp_lextale_practice.keys,key_resp_lextale_practice.corr,key_resp_lextale_practice.rt,key_resp_lextale_practice.duration,lextale_practice_feedback.started,lextale_practice_feedback.stopped,lextale_practice_trials.thisRepN,lextale_practice_trials.thisTrialN,lextale_practice_trials.thisN,lextale_practice_trials.thisIndex,lextale_practice_trials.ran,stim,word,correct_response,prac_button_real,prac_button_false,lextale_check.started,lextale_check.stopped,lextale_trial.started,lextale_trial.stopped,key_resp_lextale_trial.keys,key_resp_lextale_trial.corr,key_resp_lextale_trial.rt,key_resp_lextale_trial.duration,lextail_trials.thisRepN,lextail_trials.thisTrialN,lextail_trials.thisN,lextail_trials.thisIndex,lextail_trials.ran,type,correct_reponse,button_real,button_false
0.0037,18.7683,0,0,0,0,1,"Este es un test de vocabulario en español. 
  
  A continuación vas a ver 90 secuencias de letras que parecen 'españolas'.
  
  Solo algunas de ellas son palabras de verdad.",(presiona la barra espaciadora para continuar),63c06106314da889290931cd,001,2024-06-30_06h56.02.108,empathy_intonation_perc,2024.1.4,Win32,59.52380952,,,,,,,,,,,,,,,,,,,,,,,,,,,,,,,,,,,
18.7691,31.15,0,1,1,1,1,"Por favor, señala las palabras que tú conoces (aquellas que estás convencido que son palabras españolas, incluso aunque no seas capaz de dar el significado preciso).",(presiona la barra espaciadora para continuar),63c06106314da889290931cd,001,2024-06-30_06h56.02.108,empathy_intonation_perc,2024.1.4,Win32,59.52380952,,,,,,,,,,,,,,,,,,,,,,,,,,,,,,,,,,,
31.1506,55.265,0,2,2,2,1,Pero cuidado: los errores se penalizan. Por eso no tiene sentido tratar de incrementar tu puntuación marcando como reales palabras que nunca has visto.,(presiona la barra espaciadora para continuar),63c06106314da889290931cd,001,2024-06-30_06h56.02.108,empathy_intonation_perc,2024.1.4,Win32,59.52380952,,,,,,,,,,,,,,,,,,,,,,,,,,,,,,,,,,,
55.2805,78.3972,0,3,3,3,1,"Presiona la tecla 1 si piensas que es una palabra real y la tecla 
  0 si piensas que es una palabra falsa. 
  
  Vamos a practicar un poco...",(presiona la barra espaciadora para continuar),63c06106314da889290931cd,001,2024-06-30_06h56.02.108,empathy_intonation_perc,2024.1.4,Win32,59.52380952,,,,,,,,,,,,,,,,,,,,,,,,,,,,,,,,,,,
,,,,,,,,,63c06106314da889290931cd,001,2024-06-30_06h56.02.108,empathy_intonation_perc,2024.1.4,Win32,59.52380952,78.4166,83.8302,0,1,4.8924,,83.8458,84.8302,0,0,0,0,1,0,depiste,0,REAL,FALSA,,,,,,,,,,,,,,,,,
,,,,,,,,,63c06106314da889290931cd,001,2024-06-30_06h56.02.108,empathy_intonation_perc,2024.1.4,Win32,59.52380952,84.8307,87.4966,1,1,2.1374,,87.4967,88.4963,0,1,1,1,1,0,sí,1,REAL,FALSA,,,,,,,,,,,,,,,,,
,,,,,,,,,63c06106314da889290931cd,001,2024-06-30_06h56.02.108,empathy_intonation_perc,2024.1.4,Win32,59.52380952,88.5119,91.1799,0,1,2.1495,,91.1799,92.1796,0,2,2,2,1,0,coné,0,REAL,FALSA,,,,,,,,,,,,,,,,,
,,,,,,,,,63c06106314da889290931cd,001,2024-06-30_06h56.02.108,empathy_intonation_perc,2024.1.4,Win32,59.52380952,92.1799,95.3126,0,1,2.6059,,95.3126,96.3128,0,3,3,3,1,0,calpar,0,REAL,FALSA,,,,,,,,,,,,,,,,,
,,,,,,,,,63c06106314da889290931cd,001,2024-06-30_06h56.02.108,empathy_intonation_perc,2024.1.4,Win32,59.52380952,96.3283,98.9624,0,1,2.1146,,98.9625,99.9621,0,4,4,4,1,0,joten,0,REAL,FALSA,,,,,,,,,,,,,,,,,
,,,,,,,,,63c06106314da889290931cd,001,2024-06-30_06h56.02.108,empathy_intonation_perc,2024.1.4,Win32,59.52380952,99.9777,104.5621,0,0,4.066,,104.5622,105.5618,0,5,5,5,1,0,sacapuntas,1,REAL,FALSA,,,,,,,,,,,,,,,,,
,,,,,,,,,63c06106314da889290931cd,001,2024-06-30_06h56.02.108,empathy_intonation_perc,2024.1.4,Win32,59.52380952,105.5775,107.912,0,1,1.816,,107.9121,108.9118,0,6,6,6,1,0,priba,0,REAL,FALSA,,,,,,,,,,,,,,,,,
,,,,,,,,,63c06106314da889290931cd,001,2024-06-30_06h56.02.108,empathy_intonation_perc,2024.1.4,Win32,59.52380952,108.9277,111.7617,0,1,2.3166,,111.7618,112.7614,0,7,7,7,1,0,pelasula,0,REAL,FALSA,,,,,,,,,,,,,,,,,
,,,,,,,,,63c06106314da889290931cd,001,2024-06-30_06h56.02.108,empathy_intonation_perc,2024.1.4,Win32,59.52380952,112.7694,114.8615,1,1,1.5636,,114.8615,115.8615,0,8,8,8,1,0,bien,1,REAL,FALSA,,,,,,,,,,,,,,,,,
,,,,,,,,,63c06106314da889290931cd,001,2024-06-30_06h56.02.108,empathy_intonation_perc,2024.1.4,Win32,59.52380952,115.862,117.8112,1,1,1.4157,,117.8112,118.8115,0,9,9,9,1,0,casa,1,REAL,FALSA,,,,,,,,,,,,,,,,,
,,,,,,,,,63c06106314da889290931cd,001,2024-06-30_06h56.02.108,empathy_intonation_perc,2024.1.4,Win32,59.52380952,118.8271,120.6943,1,0,1.3568,,120.6944,121.6943,0,10,10,10,1,0,lejo,0,REAL,FALSA,,,,,,,,,,,,,,,,,
,,,,,,,,,63c06106314da889290931cd,001,2024-06-30_06h56.02.108,empathy_intonation_perc,2024.1.4,Win32,59.52380952,121.6946,123.6609,1,0,1.4331,,123.6609,124.6608,0,11,11,11,1,0,pretantas,0,REAL,FALSA,,,,,,,,,,,,,,,,,
,,,,,,,,,63c06106314da889290931cd,001,2024-06-30_06h56.02.108,empathy_intonation_perc,2024.1.4,Win32,59.52380952,,,,,,,,,,,,,,,,,,,124.6614,128.5948,,,,,,,,,,,,,,,
,,,,,,,,,63c06106314da889290931cd,001,2024-06-30_06h56.02.108,empathy_intonation_perc,2024.1.4,Win32,59.52380952,,,,,,,,,,,,,,164,tecia,,,,,,128.6236,131.1772,0,1,2.0401,,0,0,0,163,1,pseudoword,0,REAL,FALSA
,,,,,,,,,63c06106314da889290931cd,001,2024-06-30_06h56.02.108,empathy_intonation_perc,2024.1.4,Win32,59.52380952,,,,,,,,,,,,,,65,guerra,,,,,,131.1777,132.8269,0,1,1.1181,,0,1,1,64,1,non_cognate,1,REAL,FALSA
,,,,,,,,,63c06106314da889290931cd,001,2024-06-30_06h56.02.108,empathy_intonation_perc,2024.1.4,Win32,59.52380952,,,,,,,,,,,,,,44,editor,,,,,,132.8273,134.6937,1,0,1.3327,,0,2,2,43,1,two_way_cognate,1,REAL,FALSA
,,,,,,,,,63c06106314da889290931cd,001,2024-06-30_06h56.02.108,empathy_intonation_perc,2024.1.4,Win32,59.52380952,,,,,,,,,,,,,,3,disco,,,,,,134.6941,136.2097,0,1,0.9932,,0,3,3,2,1,three_way_cognate,1,REAL,FALSA
,,,,,,,,,63c06106314da889290931cd,001,2024-06-30_06h56.02.108,empathy_intonation_perc,2024.1.4,Win32,59.52380952,,,,,,,,,,,,,,165,chote,,,,,,136.2101,137.8269,0,1,1.0852,,0,4,4,164,1,pseudoword,0,REAL,FALSA
,,,,,,,,,63c06106314da889290931cd,001,2024-06-30_06h56.02.108,empathy_intonation_perc,2024.1.4,Win32,59.52380952,,,,,,,,,,,,,,20,trauma,,,,,,137.8273,139.5098,1,0,1.156,,0,5,5,19,1,three_way_cognate,1,REAL,FALSA
,,,,,,,,,63c06106314da889290931cd,001,2024-06-30_06h56.02.108,empathy_intonation_perc,2024.1.4,Win32,59.52380952,,,,,,,,,,,,,,177,entodo,,,,,,139.5102,141.5935,1,0,1.5607,,0,6,6,176,1,pseudoword,0,REAL,FALSA
,,,,,,,,,63c06106314da889290931cd,001,2024-06-30_06h56.02.108,empathy_intonation_perc,2024.1.4,Win32,59.52380952,,,,,,,,,,,,,,184,huenos,,,,,,141.5939,144.2599,0,1,2.134,,0,7,7,183,1,pseudoword,0,REAL,FALSA
,,,,,,,,,63c06106314da889290931cd,001,2024-06-30_06h56.02.108,empathy_intonation_perc,2024.1.4,Win32,59.52380952,,,,,,,,,,,,,,101,losco,,,,,,144.2603,145.8425,0,1,1.0594,,0,8,8,100,1,pseudoword,0,REAL,FALSA
,,,,,,,,,63c06106314da889290931cd,001,2024-06-30_06h56.02.108,empathy_intonation_perc,2024.1.4,Win32,59.52380952,,,,,,,,,,,,,,78,rendir,,,,,,145.8429,148.2094,1,0,1.8401,,0,9,9,77,1,non_cognate,1,REAL,FALSA
,,,,,,,,,63c06106314da889290931cd,001,2024-06-30_06h56.02.108,empathy_intonation_perc,2024.1.4,Win32,59.52380952,,,,,,,,,,,,,,31,civil,,,,,,148.2098,150.0259,1,0,1.2835,,0,10,10,30,1,two_way_cognate,1,REAL,FALSA
,,,,,,,,,63c06106314da889290931cd,001,2024-06-30_06h56.02.108,empathy_intonation_perc,2024.1.4,Win32,59.52380952,,,,,,,,,,,,,,159,trcia,,,,,,150.0263,151.4924,0,1,0.9332,,0,11,11,158,1,pseudoword,0,REAL,FALSA
,,,,,,,,,63c06106314da889290931cd,001,2024-06-30_06h56.02.108,empathy_intonation_perc,2024.1.4,Win32,59.52380952,,,,,,,,,,,,,,134,molor,,,,,,151.4927,153.5424,1,0,1.5253,,0,12,12,133,1,pseudoword,0,REAL,FALSA
,,,,,,,,,63c06106314da889290931cd,001,2024-06-30_06h56.02.108,empathy_intonation_perc,2024.1.4,Win32,59.52380952,,,,,,,,,,,,,,163,olzan,,,,,,153.5427,155.1593,0,1,1.0811,,0,13,13,162,1,pseudoword,0,REAL,FALSA
,,,,,,,,,63c06106314da889290931cd,001,2024-06-30_06h56.02.108,empathy_intonation_perc,2024.1.4,Win32,59.52380952,,,,,,,,,,,,,,73,llevar,,,,,,155.1596,156.7754,1,0,1.0893,,0,14,14,72,1,non_cognate,1,REAL,FALSA
,,,,,,,,,63c06106314da889290931cd,001,2024-06-30_06h56.02.108,empathy_intonation_perc,2024.1.4,Win32,59.52380952,,,,,,,,,,,,,,55,maldad,,,,,,156.7758,158.3754,1,0,1.0717,,0,15,15,54,1,non_cognate,1,REAL,FALSA
,,,,,,,,,63c06106314da889290931cd,001,2024-06-30_06h56.02.108,empathy_intonation_perc,2024.1.4,Win32,59.52380952,,,,,,,,,,,,,,96,caro,,,,,,158.3758,159.9587,1,0,1.057,,0,16,16,95,1,non_cognate,1,REAL,FALSA
,,,,,,,,,63c06106314da889290931cd,001,2024-06-30_06h56.02.108,empathy_intonation_perc,2024.1.4,Win32,59.52380952,,,,,,,,,,,,,,91,equipo,,,,,,159.9591,161.4085,1,0,0.9178,,0,17,17,90,1,non_cognate,1,REAL,FALSA
,,,,,,,,,63c06106314da889290931cd,001,2024-06-30_06h56.02.108,empathy_intonation_perc,2024.1.4,Win32,59.52380952,,,,,,,,,,,,,,18,altar,,,,,,161.4088,163.0918,1,0,1.1499,,0,18,18,17,1,three_way_cognate,1,REAL,FALSA
,,,,,,,,,63c06106314da889290931cd,001,2024-06-30_06h56.02.108,empathy_intonation_perc,2024.1.4,Win32,59.52380952,,,,,,,,,,,,,,25,vigor,,,,,,163.0922,165.3253,1,0,1.697,,0,19,19,24,1,two_way_cognate,1,REAL,FALSA
,,,,,,,,,63c06106314da889290931cd,001,2024-06-30_06h56.02.108,empathy_intonation_perc,2024.1.4,Win32,59.52380952,,,,,,,,,,,,,,90,venado,,,,,,165.3256,166.9754,1,0,1.1228,,0,20,20,89,1,non_cognate,1,REAL,FALSA
,,,,,,,,,63c06106314da889290931cd,001,2024-06-30_06h56.02.108,empathy_intonation_perc,2024.1.4,Win32,59.52380952,,,,,,,,,,,,,,130,dubo,,,,,,166.9757,168.7917,0,1,1.2891,,0,21,21,129,1,pseudoword,0,REAL,FALSA
,,,,,,,,,63c06106314da889290931cd,001,2024-06-30_06h56.02.108,empathy_intonation_perc,2024.1.4,Win32,59.52380952,,,,,,,,,,,,,,38,halo,,,,,,168.7921,170.9578,1,0,1.6314,,0,22,22,37,1,two_way_cognate,1,REAL,FALSA
,,,,,,,,,63c06106314da889290931cd,001,2024-06-30_06h56.02.108,empathy_intonation_perc,2024.1.4,Win32,59.52380952,,,,,,,,,,,,,,61,aduana,,,,,,170.9582,172.5581,0,1,1.0636,,0,23,23,60,1,non_cognate,1,REAL,FALSA
,,,,,,,,,63c06106314da889290931cd,001,2024-06-30_06h56.02.108,empathy_intonation_perc,2024.1.4,Win32,59.52380952,,,,,,,,,,,,,,5,extra,,,,,,172.5584,174.1077,1,0,1.0176,,0,24,24,4,1,three_way_cognate,1,REAL,FALSA
,,,,,,,,,63c06106314da889290931cd,001,2024-06-30_06h56.02.108,empathy_intonation_perc,2024.1.4,Win32,59.52380952,,,,,,,,,,,,,,32,animal,,,,,,174.1081,175.6743,1,0,1.039,,0,25,25,31,1,two_way_cognate,1,REAL,FALSA
,,,,,,,,,63c06106314da889290931cd,001,2024-06-30_06h56.02.108,empathy_intonation_perc,2024.1.4,Win32,59.52380952,,,,,,,,,,,,,,74,ala,,,,,,175.6747,177.1077,1,0,0.9034,,0,26,26,73,1,non_cognate,1,REAL,FALSA
,,,,,,,,,63c06106314da889290931cd,001,2024-06-30_06h56.02.108,empathy_intonation_perc,2024.1.4,Win32,59.52380952,,,,,,,,,,,,,,113,nasce,,,,,,177.1081,178.4578,0,1,0.8146,,0,27,27,112,1,pseudoword,0,REAL,FALSA
,,,,,,,,,63c06106314da889290931cd,001,2024-06-30_06h56.02.108,empathy_intonation_perc,2024.1.4,Win32,59.52380952,,,,,,,,,,,,,,35,aurora,,,,,,178.4582,180.474,0,1,1.4888,,0,28,28,34,1,two_way_cognate,1,REAL,FALSA
,,,,,,,,,63c06106314da889290931cd,001,2024-06-30_06h56.02.108,empathy_intonation_perc,2024.1.4,Win32,59.52380952,,,,,,,,,,,,,,154,harvé,,,,,,180.4744,182.7573,0,1,1.7503,,0,29,29,153,1,pseudoword,0,REAL,FALSA
,,,,,,,,,63c06106314da889290931cd,001,2024-06-30_06h56.02.108,empathy_intonation_perc,2024.1.4,Win32,59.52380952,,,,,,,,,,,,,,30,fiscal,,,,,,182.7577,184.5239,1,0,1.2434,,0,30,30,29,1,two_way_cognate,1,REAL,FALSA
,,,,,,,,,63c06106314da889290931cd,001,2024-06-30_06h56.02.108,empathy_intonation_perc,2024.1.4,Win32,59.52380952,,,,,,,,,,,,,,95,listo,,,,,,184.5242,186.0738,1,0,1.0192,,0,31,31,94,1,non_cognate,1,REAL,FALSA
,,,,,,,,,63c06106314da889290931cd,001,2024-06-30_06h56.02.108,empathy_intonation_perc,2024.1.4,Win32,59.52380952,,,,,,,,,,,,,,76,chocar,,,,,,186.0742,187.8067,1,0,1.1986,,0,32,32,75,1,non_cognate,1,REAL,FALSA
,,,,,,,,,63c06106314da889290931cd,001,2024-06-30_06h56.02.108,empathy_intonation_perc,2024.1.4,Win32,59.52380952,,,,,,,,,,,,,,147,alla,,,,,,187.8071,189.1071,1,0,0.7709,,0,33,33,146,1,pseudoword,0,REAL,FALSA
,,,,,,,,,63c06106314da889290931cd,001,2024-06-30_06h56.02.108,empathy_intonation_perc,2024.1.4,Win32,59.52380952,,,,,,,,,,,,,,181,gravés,,,,,,189.1076,190.707,1,0,1.0721,,0,34,34,180,1,pseudoword,0,REAL,FALSA
,,,,,,,,,63c06106314da889290931cd,001,2024-06-30_06h56.02.108,empathy_intonation_perc,2024.1.4,Win32,59.52380952,,,,,,,,,,,,,,64,rizado,,,,,,190.7074,192.0566,0,1,0.8261,,0,35,35,63,1,non_cognate,1,REAL,FALSA
,,,,,,,,,63c06106314da889290931cd,001,2024-06-30_06h56.02.108,empathy_intonation_perc,2024.1.4,Win32,59.52380952,,,,,,,,,,,,,,172,dogue,,,,,,192.057,193.6398,0,1,1.0564,,0,36,36,171,1,pseudoword,0,REAL,FALSA
,,,,,,,,,63c06106314da889290931cd,001,2024-06-30_06h56.02.108,empathy_intonation_perc,2024.1.4,Win32,59.52380952,,,,,,,,,,,,,,107,plago,,,,,,193.6402,195.0235,0,1,0.8597,,0,37,37,106,1,pseudoword,0,REAL,FALSA
,,,,,,,,,63c06106314da889290931cd,001,2024-06-30_06h56.02.108,empathy_intonation_perc,2024.1.4,Win32,59.52380952,,,,,,,,,,,,,,41,pasta,,,,,,195.0239,196.8728,1,0,1.3144,,0,38,38,40,1,two_way_cognate,1,REAL,FALSA
,,,,,,,,,63c06106314da889290931cd,001,2024-06-30_06h56.02.108,empathy_intonation_perc,2024.1.4,Win32,59.52380952,,,,,,,,,,,,,,142,parre,,,,,,196.8731,198.8731,1,0,1.471,,0,39,39,141,1,pseudoword,0,REAL,FALSA
,,,,,,,,,63c06106314da889290931cd,001,2024-06-30_06h56.02.108,empathy_intonation_perc,2024.1.4,Win32,59.52380952,,,,,,,,,,,,,,22,mango,,,,,,198.8735,200.2895,1,0,0.884,,0,40,40,21,1,three_way_cognate,1,REAL,FALSA
,,,,,,,,,63c06106314da889290931cd,001,2024-06-30_06h56.02.108,empathy_intonation_perc,2024.1.4,Win32,59.52380952,,,,,,,,,,,,,,124,lobe,,,,,,200.2899,202.6397,0,1,1.8157,,0,41,41,123,1,pseudoword,0,REAL,FALSA
,,,,,,,,,63c06106314da889290931cd,001,2024-06-30_06h56.02.108,empathy_intonation_perc,2024.1.4,Win32,59.52380952,,,,,,,,,,,,,,112,samón,,,,,,202.6551,204.6226,0,1,1.4523,,0,42,42,111,1,pseudoword,0,REAL,FALSA
,,,,,,,,,63c06106314da889290931cd,001,2024-06-30_06h56.02.108,empathy_intonation_perc,2024.1.4,Win32,59.52380952,,,,,,,,,,,,,,104,estulo,,,,,,204.6232,206.3065,1,0,1.161,,0,43,43,103,1,pseudoword,0,REAL,FALSA
,,,,,,,,,63c06106314da889290931cd,001,2024-06-30_06h56.02.108,empathy_intonation_perc,2024.1.4,Win32,59.52380952,,,,,,,,,,,,,,179,suelet,,,,,,206.3068,207.4054,0,1,0.5664,0.0094,0,44,44,178,1,pseudoword,0,REAL,FALSA
,,,,,,,,,63c06106314da889290931cd,001,2024-06-30_06h56.02.108,empathy_intonation_perc,2024.1.4,Win32,59.52380952,,,,,,,,,,,,,,39,casual,,,,,,207.4058,208.8392,1,0,0.8983,,0,45,45,38,1,two_way_cognate,1,REAL,FALSA
,,,,,,,,,63c06106314da889290931cd,001,2024-06-30_06h56.02.108,empathy_intonation_perc,2024.1.4,Win32,59.52380952,,,,,,,,,,,,,,138,tator,,,,,,208.8398,211.0388,0,1,1.6728,,0,46,46,137,1,pseudoword,0,REAL,FALSA
,,,,,,,,,63c06106314da889290931cd,001,2024-06-30_06h56.02.108,empathy_intonation_perc,2024.1.4,Win32,59.52380952,,,,,,,,,,,,,,10,drama,,,,,,211.0391,212.4888,1,0,0.9315,,0,47,47,9,1,three_way_cognate,1,REAL,FALSA
,,,,,,,,,63c06106314da889290931cd,001,2024-06-30_06h56.02.108,empathy_intonation_perc,2024.1.4,Win32,59.52380952,,,,,,,,,,,,,,12,dogma,,,,,,212.4892,214.4553,0,1,1.4309,,0,48,48,11,1,three_way_cognate,1,REAL,FALSA
,,,,,,,,,63c06106314da889290931cd,001,2024-06-30_06h56.02.108,empathy_intonation_perc,2024.1.4,Win32,59.52380952,,,,,,,,,,,,,,77,suave,,,,,,214.4557,216.0551,1,0,1.0686,,0,49,49,76,1,non_cognate,1,REAL,FALSA
,,,,,,,,,63c06106314da889290931cd,001,2024-06-30_06h56.02.108,empathy_intonation_perc,2024.1.4,Win32,59.52380952,,,,,,,,,,,,,,137,trugo,,,,,,216.0554,217.8716,0,1,1.281,,0,50,50,136,1,pseudoword,0,REAL,FALSA
,,,,,,,,,63c06106314da889290931cd,001,2024-06-30_06h56.02.108,empathy_intonation_perc,2024.1.4,Win32,59.52380952,,,,,,,,,,,,,,127,vien,,,,,,217.872,219.7554,0,1,1.3477,,0,51,51,126,1,pseudoword,0,REAL,FALSA
,,,,,,,,,63c06106314da889290931cd,001,2024-06-30_06h56.02.108,empathy_intonation_perc,2024.1.4,Win32,59.52380952,,,,,,,,,,,,,,16,chat,,,,,,219.7556,221.5553,0,1,1.2696,,0,52,52,15,1,three_way_cognate,1,REAL,FALSA
,,,,,,,,,63c06106314da889290931cd,001,2024-06-30_06h56.02.108,empathy_intonation_perc,2024.1.4,Win32,59.52380952,,,,,,,,,,,,,,125,ceme,,,,,,221.5556,223.3877,1,0,1.3006,,0,53,53,124,1,pseudoword,0,REAL,FALSA
,,,,,,,,,63c06106314da889290931cd,001,2024-06-30_06h56.02.108,empathy_intonation_perc,2024.1.4,Win32,59.52380952,,,,,,,,,,,,,,42,rumor,,,,,,223.3879,225.1214,1,0,1.2161,,0,54,54,41,1,two_way_cognate,1,REAL,FALSA
,,,,,,,,,63c06106314da889290931cd,001,2024-06-30_06h56.02.108,empathy_intonation_perc,2024.1.4,Win32,59.52380952,,,,,,,,,,,,,,174,pabea,,,,,,225.1219,226.9546,0,1,1.3014,,0,55,55,173,1,pseudoword,0,REAL,FALSA
,,,,,,,,,63c06106314da889290931cd,001,2024-06-30_06h56.02.108,empathy_intonation_perc,2024.1.4,Win32,59.52380952,,,,,,,,,,,,,,83,hálito,,,,,,226.955,229.1047,0,1,1.6154,,0,56,56,82,1,non_cognate,1,REAL,FALSA
,,,,,,,,,63c06106314da889290931cd,001,2024-06-30_06h56.02.108,empathy_intonation_perc,2024.1.4,Win32,59.52380952,,,,,,,,,,,,,,169,pitis,,,,,,229.1051,231.1377,0,1,1.5075,,0,57,57,168,1,pseudoword,0,REAL,FALSA
,,,,,,,,,63c06106314da889290931cd,001,2024-06-30_06h56.02.108,empathy_intonation_perc,2024.1.4,Win32,59.52380952,,,,,,,,,,,,,,57,regalo,,,,,,231.1381,232.5208,1,0,0.8576,,0,58,58,56,1,non_cognate,1,REAL,FALSA
,,,,,,,,,63c06106314da889290931cd,001,2024-06-30_06h56.02.108,empathy_intonation_perc,2024.1.4,Win32,59.52380952,,,,,,,,,,,,,,71,torta,,,,,,232.5213,233.9876,1,0,0.9411,,0,59,59,70,1,non_cognate,1,REAL,FALSA
,,,,,,,,,63c06106314da889290931cd,001,2024-06-30_06h56.02.108,empathy_intonation_perc,2024.1.4,Win32,59.52380952,,,,,,,,,,,,,,190,asumie,,,,,,233.988,236.5873,0,1,2.0668,,0,60,60,189,1,pseudoword,0,REAL,FALSA
,,,,,,,,,63c06106314da889290931cd,001,2024-06-30_06h56.02.108,empathy_intonation_perc,2024.1.4,Win32,59.52380952,,,,,,,,,,,,,,26,enigma,,,,,,236.6033,239.6542,1,0,2.5333,,0,61,61,25,1,two_way_cognate,1,REAL,FALSA
,,,,,,,,,63c06106314da889290931cd,001,2024-06-30_06h56.02.108,empathy_intonation_perc,2024.1.4,Win32,59.52380952,,,,,,,,,,,,,,15,test,,,,,,239.6546,241.1037,1,0,0.9268,,0,62,62,14,1,three_way_cognate,1,REAL,FALSA
,,,,,,,,,63c06106314da889290931cd,001,2024-06-30_06h56.02.108,empathy_intonation_perc,2024.1.4,Win32,59.52380952,,,,,,,,,,,,,,155,kugis,,,,,,241.1041,242.837,0,1,1.2051,,0,63,63,154,1,pseudoword,0,REAL,FALSA
,,,,,,,,,63c06106314da889290931cd,001,2024-06-30_06h56.02.108,empathy_intonation_perc,2024.1.4,Win32,59.52380952,,,,,,,,,,,,,,129,vinzó,,,,,,242.8375,244.9368,1,0,1.5642,,0,64,64,128,1,pseudoword,0,REAL,FALSA
,,,,,,,,,63c06106314da889290931cd,001,2024-06-30_06h56.02.108,empathy_intonation_perc,2024.1.4,Win32,59.52380952,,,,,,,,,,,,,,187,nomata,,,,,,244.9371,246.7032,0,1,1.2315,,0,65,65,186,1,pseudoword,0,REAL,FALSA
,,,,,,,,,63c06106314da889290931cd,001,2024-06-30_06h56.02.108,empathy_intonation_perc,2024.1.4,Win32,59.52380952,,,,,,,,,,,,,,9,portal,,,,,,246.7035,248.3365,1,0,1.1248,,0,66,66,8,1,three_way_cognate,1,REAL,FALSA
,,,,,,,,,63c06106314da889290931cd,001,2024-06-30_06h56.02.108,empathy_intonation_perc,2024.1.4,Win32,59.52380952,,,,,,,,,,,,,,144,diroco,,,,,,248.3368,249.8034,0,1,0.9369,,0,67,67,143,1,pseudoword,0,REAL,FALSA
,,,,,,,,,63c06106314da889290931cd,001,2024-06-30_06h56.02.108,empathy_intonation_perc,2024.1.4,Win32,59.52380952,,,,,,,,,,,,,,186,rizate,,,,,,249.8039,251.2529,0,1,0.9277,,0,68,68,185,1,pseudoword,0,REAL,FALSA
,,,,,,,,,63c06106314da889290931cd,001,2024-06-30_06h56.02.108,empathy_intonation_perc,2024.1.4,Win32,59.52380952,,,,,,,,,,,,,,49,teñir,,,,,,251.2532,253.136,1,0,1.3598,,0,69,69,48,1,non_cognate,1,REAL,FALSA
,,,,,,,,,63c06106314da889290931cd,001,2024-06-30_06h56.02.108,empathy_intonation_perc,2024.1.4,Win32,59.52380952,,,,,,,,,,,,,,6,horror,,,,,,253.1364,255.02,1,0,1.3521,,0,70,70,5,1,three_way_cognate,1,REAL,FALSA
,,,,,,,,,63c06106314da889290931cd,001,2024-06-30_06h56.02.108,empathy_intonation_perc,2024.1.4,Win32,59.52380952,,,,,,,,,,,,,,28,ardor,,,,,,255.0204,257.0696,1,0,1.5214,,0,71,71,27,1,two_way_cognate,1,REAL,FALSA
,,,,,,,,,63c06106314da889290931cd,001,2024-06-30_06h56.02.108,empathy_intonation_perc,2024.1.4,Win32,59.52380952,,,,,,,,,,,,,,105,leniz,,,,,,257.07,258.5027,0,1,0.9043,,0,72,72,104,1,pseudoword,0,REAL,FALSA
,,,,,,,,,63c06106314da889290931cd,001,2024-06-30_06h56.02.108,empathy_intonation_perc,2024.1.4,Win32,59.52380952,,,,,,,,,,,,,,139,sasos,,,,,,258.5031,261.6191,0,1,2.5845,,0,73,73,138,1,pseudoword,0,REAL,FALSA
,,,,,,,,,63c06106314da889290931cd,001,2024-06-30_06h56.02.108,empathy_intonation_perc,2024.1.4,Win32,59.52380952,,,,,,,,,,,,,,99,bugor,,,,,,261.6195,263.6855,0,1,1.5386,,0,74,74,98,1,pseudoword,0,REAL,FALSA
,,,,,,,,,63c06106314da889290931cd,001,2024-06-30_06h56.02.108,empathy_intonation_perc,2024.1.4,Win32,59.52380952,,,,,,,,,,,,,,106,diebro,,,,,,263.6859,265.7688,0,1,1.5485,,0,75,75,105,1,pseudoword,0,REAL,FALSA
,,,,,,,,,63c06106314da889290931cd,001,2024-06-30_06h56.02.108,empathy_intonation_perc,2024.1.4,Win32,59.52380952,,,,,,,,,,,,,,36,viable,,,,,,265.7692,267.6854,0,1,1.3889,,0,76,76,35,1,two_way_cognate,1,REAL,FALSA
,,,,,,,,,63c06106314da889290931cd,001,2024-06-30_06h56.02.108,empathy_intonation_perc,2024.1.4,Win32,59.52380952,,,,,,,,,,,,,,37,torso,,,,,,267.6858,269.1354,0,1,0.9237,,0,77,77,36,1,two_way_cognate,1,REAL,FALSA
,,,,,,,,,63c06106314da889290931cd,001,2024-06-30_06h56.02.108,empathy_intonation_perc,2024.1.4,Win32,59.52380952,,,,,,,,,,,,,,43,honor,,,,,,269.1356,271.4519,1,0,1.7838,,0,78,78,42,1,two_way_cognate,1,REAL,FALSA
,,,,,,,,,63c06106314da889290931cd,001,2024-06-30_06h56.02.108,empathy_intonation_perc,2024.1.4,Win32,59.52380952,,,,,,,,,,,,,,88,percha,,,,,,271.4522,273.3184,0,1,1.3327,,0,79,79,87,1,non_cognate,1,REAL,FALSA
,,,,,,,,,63c06106314da889290931cd,001,2024-06-30_06h56.02.108,empathy_intonation_perc,2024.1.4,Win32,59.52380952,,,,,,,,,,,,,,131,fuar,,,,,,273.3189,275.0851,1,0,1.2377,,0,80,80,130,1,pseudoword,0,REAL,FALSA
,,,,,,,,,63c06106314da889290931cd,001,2024-06-30_06h56.02.108,empathy_intonation_perc,2024.1.4,Win32,59.52380952,,,,,,,,,,,,,,45,total,,,,,,275.0855,276.6017,1,0,0.99,,0,81,81,44,1,two_way_cognate,1,REAL,FALSA
,,,,,,,,,63c06106314da889290931cd,001,2024-06-30_06h56.02.108,empathy_intonation_perc,2024.1.4,Win32,59.52380952,,,,,,,,,,,,,,132,nocó,,,,,,276.602,278.3184,1,0,1.1806,,0,82,82,131,1,pseudoword,0,REAL,FALSA
,,,,,,,,,63c06106314da889290931cd,001,2024-06-30_06h56.02.108,empathy_intonation_perc,2024.1.4,Win32,59.52380952,,,,,,,,,,,,,,40,pelvis,,,,,,278.3188,280.268,1,0,1.4186,,0,83,83,39,1,two_way_cognate,1,REAL,FALSA
,,,,,,,,,63c06106314da889290931cd,001,2024-06-30_06h56.02.108,empathy_intonation_perc,2024.1.4,Win32,59.52380952,,,,,,,,,,,,,,188,amplir,,,,,,280.2683,282.5677,1,0,1.7731,,0,84,84,187,1,pseudoword,0,REAL,FALSA
,,,,,,,,,63c06106314da889290931cd,001,2024-06-30_06h56.02.108,empathy_intonation_perc,2024.1.4,Win32,59.52380952,,,,,,,,,,,,,,56,pico,,,,,,282.5833,284.1343,1,0,1.0397,,0,85,85,55,1,non_cognate,1,REAL,FALSA
,,,,,,,,,63c06106314da889290931cd,001,2024-06-30_06h56.02.108,empathy_intonation_perc,2024.1.4,Win32,59.52380952,,,,,,,,,,,,,,156,ozoso,,,,,,284.1347,285.8009,0,1,1.1333,,0,86,86,155,1,pseudoword,0,REAL,FALSA
,,,,,,,,,63c06106314da889290931cd,001,2024-06-30_06h56.02.108,empathy_intonation_perc,2024.1.4,Win32,59.52380952,,,,,,,,,,,,,,176,gripar,,,,,,285.8013,287.5342,0,1,1.1977,,0,87,87,175,1,pseudoword,0,REAL,FALSA
,,,,,,,,,63c06106314da889290931cd,001,2024-06-30_06h56.02.108,empathy_intonation_perc,2024.1.4,Win32,59.52380952,,,,,,,,,,,,,,116,grigir,,,,,,287.5346,289.5176,0,1,1.4506,,0,88,88,115,1,pseudoword,0,REAL,FALSA
,,,,,,,,,63c06106314da889290931cd,001,2024-06-30_06h56.02.108,empathy_intonation_perc,2024.1.4,Win32,59.52380952,,,,,,,,,,,,,,66,aleta,,,,,,289.5179,291.084,1,0,1.0359,,0,89,89,65,1,non_cognate,1,REAL,FALSA
,,,,,,,,,63c06106314da889290931cd,001,2024-06-30_06h56.02.108,empathy_intonation_perc,2024.1.4,Win32,59.52380952,,,,,,,,,,,,,,33,collar,,,,,,291.0843,292.8838,1,0,1.2666,,0,90,90,32,1,two_way_cognate,1,REAL,FALSA
,,,,,,,,,63c06106314da889290931cd,001,2024-06-30_06h56.02.108,empathy_intonation_perc,2024.1.4,Win32,59.52380952,,,,,,,,,,,,,,72,rostro,,,,,,292.8842,294.567,0,1,1.1522,,0,91,91,71,1,non_cognate,1,REAL,FALSA
,,,,,,,,,63c06106314da889290931cd,001,2024-06-30_06h56.02.108,empathy_intonation_perc,2024.1.4,Win32,59.52380952,,,,,,,,,,,,,,145,rúo,,,,,,294.5673,296.517,1,0,1.4314,,0,92,92,144,1,pseudoword,0,REAL,FALSA
,,,,,,,,,63c06106314da889290931cd,001,2024-06-30_06h56.02.108,empathy_intonation_perc,2024.1.4,Win32,59.52380952,,,,,,,,,,,,,,180,pupica,,,,,,296.5174,297.9833,0,1,0.9408,,0,93,93,179,1,pseudoword,0,REAL,FALSA
,,,,,,,,,63c06106314da889290931cd,001,2024-06-30_06h56.02.108,empathy_intonation_perc,2024.1.4,Win32,59.52380952,,,,,,,,,,,,,,85,enorme,,,,,,297.9837,299.6003,1,0,1.0822,,0,94,94,84,1,non_cognate,1,REAL,FALSA
,,,,,,,,,63c06106314da889290931cd,001,2024-06-30_06h56.02.108,empathy_intonation_perc,2024.1.4,Win32,59.52380952,,,,,,,,,,,,,,97,nocita,,,,,,299.6008,301.2998,0,1,1.1743,,0,95,95,96,1,pseudoword,0,REAL,FALSA
,,,,,,,,,63c06106314da889290931cd,001,2024-06-30_06h56.02.108,empathy_intonation_perc,2024.1.4,Win32,59.52380952,,,,,,,,,,,,,,23,plural,,,,,,301.3002,302.7671,1,0,0.9366,,0,96,96,22,1,three_way_cognate,1,REAL,FALSA
,,,,,,,,,63c06106314da889290931cd,001,2024-06-30_06h56.02.108,empathy_intonation_perc,2024.1.4,Win32,59.52380952,,,,,,,,,,,,,,121,barbs,,,,,,302.7674,304.7999,0,1,1.5011,,0,97,97,120,1,pseudoword,0,REAL,FALSA
,,,,,,,,,63c06106314da889290931cd,001,2024-06-30_06h56.02.108,empathy_intonation_perc,2024.1.4,Win32,59.52380952,,,,,,,,,,,,,,50,sierra,,,,,,304.8002,306.0499,1,0,0.7144,,0,98,98,49,1,non_cognate,1,REAL,FALSA
,,,,,,,,,63c06106314da889290931cd,001,2024-06-30_06h56.02.108,empathy_intonation_perc,2024.1.4,Win32,59.52380952,,,,,,,,,,,,,,166,anfia,,,,,,306.0502,308.3995,0,1,1.8168,,0,99,99,165,1,pseudoword,0,REAL,FALSA
,,,,,,,,,63c06106314da889290931cd,001,2024-06-30_06h56.02.108,empathy_intonation_perc,2024.1.4,Win32,59.52380952,,,,,,,,,,,,,,89,muñeca,,,,,,308.3999,310.3331,1,0,1.3965,,0,100,100,88,1,non_cognate,1,REAL,FALSA
,,,,,,,,,63c06106314da889290931cd,001,2024-06-30_06h56.02.108,empathy_intonation_perc,2024.1.4,Win32,59.52380952,,,,,,,,,,,,,,70,ánimo,,,,,,310.3333,312.2329,1,0,1.3793,,0,101,101,69,1,non_cognate,1,REAL,FALSA
,,,,,,,,,63c06106314da889290931cd,001,2024-06-30_06h56.02.108,empathy_intonation_perc,2024.1.4,Win32,59.52380952,,,,,,,,,,,,,,87,muleta,,,,,,312.2332,313.8159,1,0,1.0489,,0,102,102,86,1,non_cognate,1,REAL,FALSA
,,,,,,,,,63c06106314da889290931cd,001,2024-06-30_06h56.02.108,empathy_intonation_perc,2024.1.4,Win32,59.52380952,,,,,,,,,,,,,,135,panté,,,,,,313.8163,315.7488,1,0,1.4096,,0,103,103,134,1,pseudoword,0,REAL,FALSA
,,,,,,,,,63c06106314da889290931cd,001,2024-06-30_06h56.02.108,empathy_intonation_perc,2024.1.4,Win32,59.52380952,,,,,,,,,,,,,,1,moral,,,,,,315.7492,317.3323,1,0,1.0742,,0,104,104,0,1,three_way_cognate,1,REAL,FALSA
,,,,,,,,,63c06106314da889290931cd,001,2024-06-30_06h56.02.108,empathy_intonation_perc,2024.1.4,Win32,59.52380952,,,,,,,,,,,,,,19,mafia,,,,,,317.3326,319.3493,1,0,1.4932,,0,105,105,18,1,three_way_cognate,1,REAL,FALSA
,,,,,,,,,63c06106314da889290931cd,001,2024-06-30_06h56.02.108,empathy_intonation_perc,2024.1.4,Win32,59.52380952,,,,,,,,,,,,,,59,feo,,,,,,319.3497,321.1154,0,1,1.2312,,0,106,106,58,1,non_cognate,1,REAL,FALSA
,,,,,,,,,63c06106314da889290931cd,001,2024-06-30_06h56.02.108,empathy_intonation_perc,2024.1.4,Win32,59.52380952,,,,,,,,,,,,,,53,punta,,,,,,321.1158,322.932,1,0,1.2806,,0,107,107,52,1,non_cognate,1,REAL,FALSA
,,,,,,,,,63c06106314da889290931cd,001,2024-06-30_06h56.02.108,empathy_intonation_perc,2024.1.4,Win32,59.52380952,,,,,,,,,,,,,,110,densó,,,,,,322.9325,324.8152,0,1,1.3604,,0,108,108,109,1,pseudoword,0,REAL,FALSA
,,,,,,,,,63c06106314da889290931cd,001,2024-06-30_06h56.02.108,empathy_intonation_perc,2024.1.4,Win32,59.52380952,,,,,,,,,,,,,,118,bará,,,,,,324.8156,326.6654,0,1,1.3225,,0,109,109,117,1,pseudoword,0,REAL,FALSA
,,,,,,,,,63c06106314da889290931cd,001,2024-06-30_06h56.02.108,empathy_intonation_perc,2024.1.4,Win32,59.52380952,,,,,,,,,,,,,,160,fomeó,,,,,,326.6658,330.1149,0,1,2.9156,,0,110,110,159,1,pseudoword,0,REAL,FALSA
,,,,,,,,,63c06106314da889290931cd,001,2024-06-30_06h56.02.108,empathy_intonation_perc,2024.1.4,Win32,59.52380952,,,,,,,,,,,,,,47,color,,,,,,330.1154,331.5488,1,0,0.9048,,0,111,111,46,1,two_way_cognate,1,REAL,FALSA
,,,,,,,,,63c06106314da889290931cd,001,2024-06-30_06h56.02.108,empathy_intonation_perc,2024.1.4,Win32,59.52380952,,,,,,,,,,,,,,68,puñal,,,,,,331.5492,333.2983,1,0,1.2271,,0,112,112,67,1,non_cognate,1,REAL,FALSA
,,,,,,,,,63c06106314da889290931cd,001,2024-06-30_06h56.02.108,empathy_intonation_perc,2024.1.4,Win32,59.52380952,,,,,,,,,,,,,,21,hotel,,,,,,333.2986,334.8316,1,0,1.0086,,0,113,113,20,1,three_way_cognate,1,REAL,FALSA
,,,,,,,,,63c06106314da889290931cd,001,2024-06-30_06h56.02.108,empathy_intonation_perc,2024.1.4,Win32,59.52380952,,,,,,,,,,,,,,140,chorde,,,,,,334.8319,336.9813,0,1,1.6246,,0,114,114,139,1,pseudoword,0,REAL,FALSA
,,,,,,,,,63c06106314da889290931cd,001,2024-06-30_06h56.02.108,empathy_intonation_perc,2024.1.4,Win32,59.52380952,,,,,,,,,,,,,,152,prave,,,,,,336.9818,338.3645,0,1,0.8481,,0,115,115,151,1,pseudoword,0,REAL,FALSA
,,,,,,,,,63c06106314da889290931cd,001,2024-06-30_06h56.02.108,empathy_intonation_perc,2024.1.4,Win32,59.52380952,,,,,,,,,,,,,,192,próces,,,,,,338.365,340.331,1,0,1.4445,,0,116,116,191,1,pseudoword,0,REAL,FALSA
,,,,,,,,,63c06106314da889290931cd,001,2024-06-30_06h56.02.108,empathy_intonation_perc,2024.1.4,Win32,59.52380952,,,,,,,,,,,,,,185,aljizo,,,,,,340.3314,341.6972,0,1,0.8427,,0,117,117,184,1,pseudoword,0,REAL,FALSA
,,,,,,,,,63c06106314da889290931cd,001,2024-06-30_06h56.02.108,empathy_intonation_perc,2024.1.4,Win32,59.52380952,,,,,,,,,,,,,,178,inichó,,,,,,341.6976,343.7142,1,0,1.4945,,0,118,118,177,1,pseudoword,0,REAL,FALSA
,,,,,,,,,63c06106314da889290931cd,001,2024-06-30_06h56.02.108,empathy_intonation_perc,2024.1.4,Win32,59.52380952,,,,,,,,,,,,,,109,laras,,,,,,343.7146,345.7472,1,0,1.5001,,0,119,119,108,1,pseudoword,0,REAL,FALSA
,,,,,,,,,63c06106314da889290931cd,001,2024-06-30_06h56.02.108,empathy_intonation_perc,2024.1.4,Win32,59.52380952,,,,,,,,,,,,,,51,listo,,,,,,345.7476,347.0975,1,0,0.8138,,0,120,120,50,1,non_cognate,1,REAL,FALSA
,,,,,,,,,63c06106314da889290931cd,001,2024-06-30_06h56.02.108,empathy_intonation_perc,2024.1.4,Win32,59.52380952,,,,,,,,,,,,,,111,monue,,,,,,347.0979,348.9137,0,1,1.2938,,0,121,121,110,1,pseudoword,0,REAL,FALSA
,,,,,,,,,63c06106314da889290931cd,001,2024-06-30_06h56.02.108,empathy_intonation_perc,2024.1.4,Win32,59.52380952,,,,,,,,,,,,,,157,seled,,,,,,348.914,350.9971,0,1,1.5487,,0,122,122,156,1,pseudoword,0,REAL,FALSA
,,,,,,,,,63c06106314da889290931cd,001,2024-06-30_06h56.02.108,empathy_intonation_perc,2024.1.4,Win32,59.52380952,,,,,,,,,,,,,,98,martir,,,,,,350.9974,352.7134,1,0,1.1916,,0,123,123,97,1,pseudoword,0,REAL,FALSA
,,,,,,,,,63c06106314da889290931cd,001,2024-06-30_06h56.02.108,empathy_intonation_perc,2024.1.4,Win32,59.52380952,,,,,,,,,,,,,,62,pegar,,,,,,352.7138,354.5471,1,0,1.2979,,0,124,124,61,1,non_cognate,1,REAL,FALSA
,,,,,,,,,63c06106314da889290931cd,001,2024-06-30_06h56.02.108,empathy_intonation_perc,2024.1.4,Win32,59.52380952,,,,,,,,,,,,,,94,forro,,,,,,354.5475,357.1469,0,1,2.0639,,0,125,125,93,1,non_cognate,1,REAL,FALSA
,,,,,,,,,63c06106314da889290931cd,001,2024-06-30_06h56.02.108,empathy_intonation_perc,2024.1.4,Win32,59.52380952,,,,,,,,,,,,,,189,medium,,,,,,357.1473,358.8633,1,0,1.1903,,0,126,126,188,1,pseudoword,0,REAL,FALSA
,,,,,,,,,63c06106314da889290931cd,001,2024-06-30_06h56.02.108,empathy_intonation_perc,2024.1.4,Win32,59.52380952,,,,,,,,,,,,,,173,mibro,,,,,,358.8636,360.2634,0,1,0.8758,,0,127,127,172,1,pseudoword,0,REAL,FALSA
,,,,,,,,,63c06106314da889290931cd,001,2024-06-30_06h56.02.108,empathy_intonation_perc,2024.1.4,Win32,59.52380952,,,,,,,,,,,,,,128,pelí,,,,,,360.2637,362.0462,0,1,1.252,,0,128,128,127,1,pseudoword,0,REAL,FALSA
,,,,,,,,,63c06106314da889290931cd,001,2024-06-30_06h56.02.108,empathy_intonation_perc,2024.1.4,Win32,59.52380952,,,,,,,,,,,,,,24,retina,,,,,,362.0466,364.1794,1,0,1.6039,,0,129,129,23,1,three_way_cognate,1,REAL,FALSA
,,,,,,,,,63c06106314da889290931cd,001,2024-06-30_06h56.02.108,empathy_intonation_perc,2024.1.4,Win32,59.52380952,,,,,,,,,,,,,,46,mortal,,,,,,364.1797,366.0295,1,0,1.3226,,0,130,130,45,1,two_way_cognate,1,REAL,FALSA
,,,,,,,,,63c06106314da889290931cd,001,2024-06-30_06h56.02.108,empathy_intonation_perc,2024.1.4,Win32,59.52380952,,,,,,,,,,,,,,183,edioso,,,,,,366.0299,367.8626,0,1,1.3084,,0,131,131,182,1,pseudoword,0,REAL,FALSA
,,,,,,,,,63c06106314da889290931cd,001,2024-06-30_06h56.02.108,empathy_intonation_perc,2024.1.4,Win32,59.52380952,,,,,,,,,,,,,,48,pelvis,,,,,,367.863,369.463,1,0,1.064,,0,132,132,47,1,two_way_cognate,1,REAL,FALSA
,,,,,,,,,63c06106314da889290931cd,001,2024-06-30_06h56.02.108,empathy_intonation_perc,2024.1.4,Win32,59.52380952,,,,,,,,,,,,,,63,hilo,,,,,,369.4634,371.9458,1,0,1.9542,,0,133,133,62,1,non_cognate,1,REAL,FALSA
,,,,,,,,,63c06106314da889290931cd,001,2024-06-30_06h56.02.108,empathy_intonation_perc,2024.1.4,Win32,59.52380952,,,,,,,,,,,,,,149,emén,,,,,,371.9463,374.0123,1,0,1.5383,,0,134,134,148,1,pseudoword,0,REAL,FALSA
,,,,,,,,,63c06106314da889290931cd,001,2024-06-30_06h56.02.108,empathy_intonation_perc,2024.1.4,Win32,59.52380952,,,,,,,,,,,,,,86,cuenco,,,,,,374.0127,375.6956,0,1,1.1602,,0,135,135,85,1,non_cognate,1,REAL,FALSA
,,,,,,,,,63c06106314da889290931cd,001,2024-06-30_06h56.02.108,empathy_intonation_perc,2024.1.4,Win32,59.52380952,,,,,,,,,,,,,,182,desaro,,,,,,375.696,378.0625,1,0,1.8337,,0,136,136,181,1,pseudoword,0,REAL,FALSA
,,,,,,,,,63c06106314da889290931cd,001,2024-06-30_06h56.02.108,empathy_intonation_perc,2024.1.4,Win32,59.52380952,,,,,,,,,,,,,,29,clamor,,,,,,378.0629,379.6954,1,0,1.0988,,0,137,137,28,1,two_way_cognate,1,REAL,FALSA
,,,,,,,,,63c06106314da889290931cd,001,2024-06-30_06h56.02.108,empathy_intonation_perc,2024.1.4,Win32,59.52380952,,,,,,,,,,,,,,67,llamar,,,,,,379.6958,381.329,1,0,1.1103,,0,138,138,66,1,non_cognate,1,REAL,FALSA
,,,,,,,,,63c06106314da889290931cd,001,2024-06-30_06h56.02.108,empathy_intonation_perc,2024.1.4,Win32,59.52380952,,,,,,,,,,,,,,58,colcha,,,,,,381.3293,384.6619,1,0,2.8035,,0,139,139,57,1,non_cognate,1,REAL,FALSA
,,,,,,,,,63c06106314da889290931cd,001,2024-06-30_06h56.02.108,empathy_intonation_perc,2024.1.4,Win32,59.52380952,,,,,,,,,,,,,,133,conso,,,,,,384.6774,385.4283,0,1,0.2421,,0,140,140,132,1,pseudoword,0,REAL,FALSA
,,,,,,,,,63c06106314da889290931cd,001,2024-06-30_06h56.02.108,empathy_intonation_perc,2024.1.4,Win32,59.52380952,,,,,,,,,,,,,,170,diabo,,,,,,385.4289,386.9283,1,0,0.9659,,0,141,141,169,1,pseudoword,0,REAL,FALSA
,,,,,,,,,63c06106314da889290931cd,001,2024-06-30_06h56.02.108,empathy_intonation_perc,2024.1.4,Win32,59.52380952,,,,,,,,,,,,,,27,piano,,,,,,386.9287,389.8947,1,0,2.4524,,0,142,142,26,1,two_way_cognate,1,REAL,FALSA
,,,,,,,,,63c06106314da889290931cd,001,2024-06-30_06h56.02.108,empathy_intonation_perc,2024.1.4,Win32,59.52380952,,,,,,,,,,,,,,123,arane,,,,,,389.895,391.778,0,1,1.3518,,0,143,143,122,1,pseudoword,0,REAL,FALSA
,,,,,,,,,63c06106314da889290931cd,001,2024-06-30_06h56.02.108,empathy_intonation_perc,2024.1.4,Win32,59.52380952,,,,,,,,,,,,,,168,cobén,,,,,,391.7784,393.4113,1,0,1.1028,,0,144,144,167,1,pseudoword,0,REAL,FALSA
,,,,,,,,,63c06106314da889290931cd,001,2024-06-30_06h56.02.108,empathy_intonation_perc,2024.1.4,Win32,59.52380952,,,,,,,,,,,,,,191,frasis,,,,,,393.4117,395.0798,0,1,1.1219,,0,145,145,190,1,pseudoword,0,REAL,FALSA
,,,,,,,,,63c06106314da889290931cd,001,2024-06-30_06h56.02.108,empathy_intonation_perc,2024.1.4,Win32,59.52380952,,,,,,,,,,,,,,143,hurcos,,,,,,395.0804,398.3108,0,1,2.6995,,0,146,146,142,1,pseudoword,0,REAL,FALSA
,,,,,,,,,63c06106314da889290931cd,001,2024-06-30_06h56.02.108,empathy_intonation_perc,2024.1.4,Win32,59.52380952,,,,,,,,,,,,,,102,coyo,,,,,,398.3111,399.9939,1,0,1.1504,,0,147,147,101,1,pseudoword,0,REAL,FALSA
,,,,,,,,,63c06106314da889290931cd,001,2024-06-30_06h56.02.108,empathy_intonation_perc,2024.1.4,Win32,59.52380952,,,,,,,,,,,,,,7,albino,,,,,,399.9942,401.8278,1,0,1.3157,,0,148,148,6,1,three_way_cognate,1,REAL,FALSA
,,,,,,,,,63c06106314da889290931cd,001,2024-06-30_06h56.02.108,empathy_intonation_perc,2024.1.4,Win32,59.52380952,,,,,,,,,,,,,,79,suelo,,,,,,401.8281,403.2442,1,0,0.8887,,0,149,149,78,1,non_cognate,1,REAL,FALSA
,,,,,,,,,63c06106314da889290931cd,001,2024-06-30_06h56.02.108,empathy_intonation_perc,2024.1.4,Win32,59.52380952,,,,,,,,,,,,,,120,mauja,,,,,,403.2445,405.0271,1,0,1.2574,,0,150,150,119,1,pseudoword,0,REAL,FALSA
,,,,,,,,,63c06106314da889290931cd,001,2024-06-30_06h56.02.108,empathy_intonation_perc,2024.1.4,Win32,59.52380952,,,,,,,,,,,,,,171,gotro,,,,,,405.0275,406.8101,0,1,1.2493,,0,151,151,170,1,pseudoword,0,REAL,FALSA
,,,,,,,,,63c06106314da889290931cd,001,2024-06-30_06h56.02.108,empathy_intonation_perc,2024.1.4,Win32,59.52380952,,,,,,,,,,,,,,52,blando,,,,,,406.8104,409.6266,1,0,2.2936,,0,152,152,51,1,non_cognate,1,REAL,FALSA
,,,,,,,,,63c06106314da889290931cd,001,2024-06-30_06h56.02.108,empathy_intonation_perc,2024.1.4,Win32,59.52380952,,,,,,,,,,,,,,126,tobre,,,,,,409.6269,411.0768,1,0,0.9193,,0,153,153,125,1,pseudoword,0,REAL,FALSA
,,,,,,,,,63c06106314da889290931cd,001,2024-06-30_06h56.02.108,empathy_intonation_perc,2024.1.4,Win32,59.52380952,,,,,,,,,,,,,,84,aviso,,,,,,411.0772,416.5763,0,1,4.9644,,0,154,154,83,1,non_cognate,1,REAL,FALSA
,,,,,,,,,63c06106314da889290931cd,001,2024-06-30_06h56.02.108,empathy_intonation_perc,2024.1.4,Win32,59.52380952,,,,,,,,,,,,,,100,épinas,,,,,,416.5922,419.5432,1,0,2.4424,,0,155,155,99,1,pseudoword,0,REAL,FALSA
,,,,,,,,,63c06106314da889290931cd,001,2024-06-30_06h56.02.108,empathy_intonation_perc,2024.1.4,Win32,59.52380952,,,,,,,,,,,,,,14,aura,,,,,,419.5435,421.1761,1,0,1.1027,,0,156,156,13,1,three_way_cognate,1,REAL,FALSA
,,,,,,,,,63c06106314da889290931cd,001,2024-06-30_06h56.02.108,empathy_intonation_perc,2024.1.4,Win32,59.52380952,,,,,,,,,,,,,,2,tumor,,,,,,421.1764,422.5096,1,0,0.7971,,0,157,157,1,1,three_way_cognate,1,REAL,FALSA
,,,,,,,,,63c06106314da889290931cd,001,2024-06-30_06h56.02.108,empathy_intonation_perc,2024.1.4,Win32,59.52380952,,,,,,,,,,,,,,122,boñaz,,,,,,422.51,424.3592,1,0,1.319,,0,158,158,121,1,pseudoword,0,REAL,FALSA
,,,,,,,,,63c06106314da889290931cd,001,2024-06-30_06h56.02.108,empathy_intonation_perc,2024.1.4,Win32,59.52380952,,,,,,,,,,,,,,108,jauda,,,,,,424.3596,426.4428,0,1,1.5571,,0,159,159,107,1,pseudoword,0,REAL,FALSA
,,,,,,,,,63c06106314da889290931cd,001,2024-06-30_06h56.02.108,empathy_intonation_perc,2024.1.4,Win32,59.52380952,,,,,,,,,,,,,,75,patada,,,,,,426.4431,427.8426,0,1,0.8749,,0,160,160,74,1,non_cognate,1,REAL,FALSA
,,,,,,,,,63c06106314da889290931cd,001,2024-06-30_06h56.02.108,empathy_intonation_perc,2024.1.4,Win32,59.52380952,,,,,,,,,,,,,,136,hueas,,,,,,427.843,429.2923,0,1,0.9232,,0,161,161,135,1,pseudoword,0,REAL,FALSA
,,,,,,,,,63c06106314da889290931cd,001,2024-06-30_06h56.02.108,empathy_intonation_perc,2024.1.4,Win32,59.52380952,,,,,,,,,,,,,,146,gió,,,,,,429.2927,431.0592,0,1,1.2396,,0,162,162,145,1,pseudoword,0,REAL,FALSA
,,,,,,,,,63c06106314da889290931cd,001,2024-06-30_06h56.02.108,empathy_intonation_perc,2024.1.4,Win32,59.52380952,,,,,,,,,,,,,,103,vueras,,,,,,431.0595,432.4924,0,1,0.8992,,0,163,163,102,1,pseudoword,0,REAL,FALSA
,,,,,,,,,63c06106314da889290931cd,001,2024-06-30_06h56.02.108,empathy_intonation_perc,2024.1.4,Win32,59.52380952,,,,,,,,,,,,,,141,virios,,,,,,432.4928,435.0086,1,0,1.9836,,0,164,164,140,1,pseudoword,0,REAL,FALSA
,,,,,,,,,63c06106314da889290931cd,001,2024-06-30_06h56.02.108,empathy_intonation_perc,2024.1.4,Win32,59.52380952,,,,,,,,,,,,,,161,civas,,,,,,435.0242,436.8256,1,0,1.2803,,0,165,165,160,1,pseudoword,0,REAL,FALSA
,,,,,,,,,63c06106314da889290931cd,001,2024-06-30_06h56.02.108,empathy_intonation_perc,2024.1.4,Win32,59.52380952,,,,,,,,,,,,,,167,dobbo,,,,,,436.826,438.3584,0,1,1.001,,0,166,166,166,1,pseudoword,0,REAL,FALSA
,,,,,,,,,63c06106314da889290931cd,001,2024-06-30_06h56.02.108,empathy_intonation_perc,2024.1.4,Win32,59.52380952,,,,,,,,,,,,,,119,esís,,,,,,438.3588,440.1083,1,0,1.2194,,0,167,167,118,1,pseudoword,0,REAL,FALSA
,,,,,,,,,63c06106314da889290931cd,001,2024-06-30_06h56.02.108,empathy_intonation_perc,2024.1.4,Win32,59.52380952,,,,,,,,,,,,,,34,actor,,,,,,440.1086,441.8748,1,0,1.2345,,0,168,168,33,1,two_way_cognate,1,REAL,FALSA
,,,,,,,,,63c06106314da889290931cd,001,2024-06-30_06h56.02.108,empathy_intonation_perc,2024.1.4,Win32,59.52380952,,,,,,,,,,,,,,151,prías,,,,,,441.8752,443.3752,1,0,0.9708,,0,169,169,150,1,pseudoword,0,REAL,FALSA
,,,,,,,,,63c06106314da889290931cd,001,2024-06-30_06h56.02.108,empathy_intonation_perc,2024.1.4,Win32,59.52380952,,,,,,,,,,,,,,115,lidena,,,,,,443.3755,445.7747,0,1,1.8669,,0,170,170,114,1,pseudoword,0,REAL,FALSA
,,,,,,,,,63c06106314da889290931cd,001,2024-06-30_06h56.02.108,empathy_intonation_perc,2024.1.4,Win32,59.52380952,,,,,,,,,,,,,,54,tapón,,,,,,445.775,447.9415,1,0,1.6368,,0,171,171,53,1,non_cognate,1,REAL,FALSA
,,,,,,,,,63c06106314da889290931cd,001,2024-06-30_06h56.02.108,empathy_intonation_perc,2024.1.4,Win32,59.52380952,,,,,,,,,,,,,,11,golf,,,,,,447.942,449.5743,1,0,1.1029,,0,172,172,10,1,three_way_cognate,1,REAL,FALSA
,,,,,,,,,63c06106314da889290931cd,001,2024-06-30_06h56.02.108,empathy_intonation_perc,2024.1.4,Win32,59.52380952,,,,,,,,,,,,,,153,golla,,,,,,449.5747,451.4579,1,0,1.3498,,0,173,173,152,1,pseudoword,0,REAL,FALSA
,,,,,,,,,63c06106314da889290931cd,001,2024-06-30_06h56.02.108,empathy_intonation_perc,2024.1.4,Win32,59.52380952,,,,,,,,,,,,,,69,tiza,,,,,,451.4583,453.0075,0,1,1.0225,,0,174,174,68,1,non_cognate,1,REAL,FALSA
,,,,,,,,,63c06106314da889290931cd,001,2024-06-30_06h56.02.108,empathy_intonation_perc,2024.1.4,Win32,59.52380952,,,,,,,,,,,,,,80,cuenco,,,,,,453.0079,455.0075,0,1,1.4634,,0,175,175,79,1,non_cognate,1,REAL,FALSA
,,,,,,,,,63c06106314da889290931cd,001,2024-06-30_06h56.02.108,empathy_intonation_perc,2024.1.4,Win32,59.52380952,,,,,,,,,,,,,,117,morrá,,,,,,455.0078,458.5242,0,1,2.9931,,0,176,176,116,1,pseudoword,0,REAL,FALSA
,,,,,,,,,63c06106314da889290931cd,001,2024-06-30_06h56.02.108,empathy_intonation_perc,2024.1.4,Win32,59.52380952,,,,,,,,,,,,,,150,cricó,,,,,,458.5246,460.3072,0,1,1.2519,,0,177,177,149,1,pseudoword,0,REAL,FALSA
,,,,,,,,,63c06106314da889290931cd,001,2024-06-30_06h56.02.108,empathy_intonation_perc,2024.1.4,Win32,59.52380952,,,,,,,,,,,,,,175,tradía,,,,,,460.3075,461.8902,1,0,1.048,,0,178,178,174,1,pseudoword,0,REAL,FALSA
,,,,,,,,,63c06106314da889290931cd,001,2024-06-30_06h56.02.108,empathy_intonation_perc,2024.1.4,Win32,59.52380952,,,,,,,,,,,,,,13,plan,,,,,,461.8907,463.3238,1,0,0.9103,,0,179,179,12,1,three_way_cognate,1,REAL,FALSA
,,,,,,,,,63c06106314da889290931cd,001,2024-06-30_06h56.02.108,empathy_intonation_perc,2024.1.4,Win32,59.52380952,,,,,,,,,,,,,,81,sacar,,,,,,463.3242,465.3068,0,1,1.4559,,0,180,180,80,1,non_cognate,1,REAL,FALSA
,,,,,,,,,63c06106314da889290931cd,001,2024-06-30_06h56.02.108,empathy_intonation_perc,2024.1.4,Win32,59.52380952,,,,,,,,,,,,,,92,flecha,,,,,,465.3072,466.9402,0,1,1.108,,0,181,181,91,1,non_cognate,1,REAL,FALSA
,,,,,,,,,63c06106314da889290931cd,001,2024-06-30_06h56.02.108,empathy_intonation_perc,2024.1.4,Win32,59.52380952,,,,,,,,,,,,,,114,dibrea,,,,,,466.9405,469.3065,0,1,1.8419,,0,182,182,113,1,pseudoword,0,REAL,FALSA
,,,,,,,,,63c06106314da889290931cd,001,2024-06-30_06h56.02.108,empathy_intonation_perc,2024.1.4,Win32,59.52380952,,,,,,,,,,,,,,162,cengo,,,,,,469.3069,473.6728,0,1,3.842,,0,183,183,161,1,pseudoword,0,REAL,FALSA
,,,,,,,,,63c06106314da889290931cd,001,2024-06-30_06h56.02.108,empathy_intonation_perc,2024.1.4,Win32,59.52380952,,,,,,,,,,,,,,93,tapa,,,,,,473.6886,474.9899,0,1,0.7918,,0,184,184,92,1,non_cognate,1,REAL,FALSA
,,,,,,,,,63c06106314da889290931cd,001,2024-06-30_06h56.02.108,empathy_intonation_perc,2024.1.4,Win32,59.52380952,,,,,,,,,,,,,,158,babrá,,,,,,474.9903,477.3732,0,1,1.8515,,0,185,185,157,1,pseudoword,0,REAL,FALSA
,,,,,,,,,63c06106314da889290931cd,001,2024-06-30_06h56.02.108,empathy_intonation_perc,2024.1.4,Win32,59.52380952,,,,,,,,,,,,,,17,clan,,,,,,477.3735,478.8892,1,0,0.9916,,0,186,186,16,1,three_way_cognate,1,REAL,FALSA
,,,,,,,,,63c06106314da889290931cd,001,2024-06-30_06h56.02.108,empathy_intonation_perc,2024.1.4,Win32,59.52380952,,,,,,,,,,,,,,60,siglo,,,,,,478.8896,480.1063,1,0,0.686,,0,187,187,59,1,non_cognate,1,REAL,FALSA
,,,,,,,,,63c06106314da889290931cd,001,2024-06-30_06h56.02.108,empathy_intonation_perc,2024.1.4,Win32,59.52380952,,,,,,,,,,,,,,8,kilo,,,,,,480.1067,481.7058,1,0,1.0649,,0,188,188,7,1,three_way_cognate,1,REAL,FALSA
,,,,,,,,,63c06106314da889290931cd,001,2024-06-30_06h56.02.108,empathy_intonation_perc,2024.1.4,Win32,59.52380952,,,,,,,,,,,,,,148,gino,,,,,,481.7063,483.5892,0,1,1.3484,,0,189,189,147,1,pseudoword,0,REAL,FALSA
,,,,,,,,,63c06106314da889290931cd,001,2024-06-30_06h56.02.108,empathy_intonation_perc,2024.1.4,Win32,59.52380952,,,,,,,,,,,,,,4,flora,,,,,,483.5894,486.8225,1,0,2.6987,,0,190,190,3,1,three_way_cognate,1,REAL,FALSA
,,,,,,,,,63c06106314da889290931cd,001,2024-06-30_06h56.02.108,empathy_intonation_perc,2024.1.4,Win32,59.52380952,,,,,,,,,,,,,,82,brillo,,,,,,486.8378,488.9886,1,0,1.6362,,0,191,191,81,1,non_cognate,1,REAL,FALSA
