lextale_instructions.started,lextale_instructions.stopped,lextale_instructions_loop.thisRepN,lextale_instructions_loop.thisTrialN,lextale_instructions_loop.thisN,lextale_instructions_loop.thisIndex,lextale_instructions_loop.ran,instructions_text,continue_text,participant,session,date,expName,psychopyVersion,OS,frameRate,lextale_practice.started,lextale_practice.stopped,key_resp_lextale_practice.keys,key_resp_lextale_practice.corr,key_resp_lextale_practice.rt,key_resp_lextale_practice.duration,lextale_practice_feedback.started,lextale_practice_feedback.stopped,lextale_practice_trials.thisRepN,lextale_practice_trials.thisTrialN,lextale_practice_trials.thisN,lextale_practice_trials.thisIndex,lextale_practice_trials.ran,stim,word,correct_response,prac_button_real,prac_button_false,lextale_check.started,lextale_check.stopped,lextale_trial.started,lextale_trial.stopped,key_resp_lextale_trial.keys,key_resp_lextale_trial.corr,key_resp_lextale_trial.rt,key_resp_lextale_trial.duration,lextail_trials.thisRepN,lextail_trials.thisTrialN,lextail_trials.thisN,lextail_trials.thisIndex,lextail_trials.ran,type,correct_reponse,button_real,button_false
0.0031,2.3108,0,0,0,0,1,"Este es un test de vocabulario en español. 
  
  A continuación vas a ver 90 secuencias de letras que parecen 'españolas'.
  
  Solo algunas de ellas son palabras de verdad.",(presiona la barra espaciadora para continuar),63d13e9a41e1c279a151bd4b,001,2024-06-30_07h43.26.387,empathy_intonation_perc,2024.1.4,Win32,60.24096386,,,,,,,,,,,,,,,,,,,,,,,,,,,,,,,,,,,
2.3116,3.8941,0,1,1,1,1,"Por favor, señala las palabras que tú conoces (aquellas que estás convencido que son palabras españolas, incluso aunque no seas capaz de dar el significado preciso).",(presiona la barra espaciadora para continuar),63d13e9a41e1c279a151bd4b,001,2024-06-30_07h43.26.387,empathy_intonation_perc,2024.1.4,Win32,60.24096386,,,,,,,,,,,,,,,,,,,,,,,,,,,,,,,,,,,
3.8944,5.5941,0,2,2,2,1,Pero cuidado: los errores se penalizan. Por eso no tiene sentido tratar de incrementar tu puntuación marcando como reales palabras que nunca has visto.,(presiona la barra espaciadora para continuar),63d13e9a41e1c279a151bd4b,001,2024-06-30_07h43.26.387,empathy_intonation_perc,2024.1.4,Win32,60.24096386,,,,,,,,,,,,,,,,,,,,,,,,,,,,,,,,,,,
5.5945,7.4272,0,3,3,3,1,"Presiona la tecla 1 si piensas que es una palabra real y la tecla 
  0 si piensas que es una palabra falsa. 
  
  Vamos a practicar un poco...",(presiona la barra espaciadora para continuar),63d13e9a41e1c279a151bd4b,001,2024-06-30_07h43.26.387,empathy_intonation_perc,2024.1.4,Win32,60.24096386,,,,,,,,,,,,,,,,,,,,,,,,,,,,,,,,,,,
,,,,,,,,,63d13e9a41e1c279a151bd4b,001,2024-06-30_07h43.26.387,empathy_intonation_perc,2024.1.4,Win32,60.24096386,7.4301,21.8439,1,0,13.883,,21.844,22.8437,0,0,0,0,1,0,depiste,0,REAL,FALSA,,,,,,,,,,,,,,,,,
,,,,,,,,,63d13e9a41e1c279a151bd4b,001,2024-06-30_07h43.26.387,empathy_intonation_perc,2024.1.4,Win32,60.24096386,22.844,24.81,1,1,1.4353,,24.8101,25.8099,0,1,1,1,1,0,sí,1,REAL,FALSA,,,,,,,,,,,,,,,,,
,,,,,,,,,63d13e9a41e1c279a151bd4b,001,2024-06-30_07h43.26.387,empathy_intonation_perc,2024.1.4,Win32,60.24096386,25.8101,27.4767,0,1,1.1398,,27.4768,28.4767,0,2,2,2,1,0,coné,0,REAL,FALSA,,,,,,,,,,,,,,,,,
,,,,,,,,,63d13e9a41e1c279a151bd4b,001,2024-06-30_07h43.26.387,empathy_intonation_perc,2024.1.4,Win32,60.24096386,28.4771,29.2932,1,0,0.2814,,29.2933,30.2934,0,3,3,3,1,0,calpar,0,REAL,FALSA,,,,,,,,,,,,,,,,,
,,,,,,,,,63d13e9a41e1c279a151bd4b,001,2024-06-30_07h43.26.387,empathy_intonation_perc,2024.1.4,Win32,60.24096386,30.2936,30.96,0,1,0.1308,,30.9601,31.96,0,4,4,4,1,0,joten,0,REAL,FALSA,,,,,,,,,,,,,,,,,
,,,,,,,,,63d13e9a41e1c279a151bd4b,001,2024-06-30_07h43.26.387,empathy_intonation_perc,2024.1.4,Win32,60.24096386,31.9606,32.5269,0,0,0.0369,,32.5269,33.5267,0,5,5,5,1,0,sacapuntas,1,REAL,FALSA,,,,,,,,,,,,,,,,,
,,,,,,,,,63d13e9a41e1c279a151bd4b,001,2024-06-30_07h43.26.387,empathy_intonation_perc,2024.1.4,Win32,60.24096386,33.527,34.8432,0,1,0.7883,,34.8433,35.8431,0,6,6,6,1,0,priba,0,REAL,FALSA,,,,,,,,,,,,,,,,,
,,,,,,,,,63d13e9a41e1c279a151bd4b,001,2024-06-30_07h43.26.387,empathy_intonation_perc,2024.1.4,Win32,60.24096386,35.8433,37.1265,0,1,0.7504,,37.1266,38.1265,0,7,7,7,1,0,pelasula,0,REAL,FALSA,,,,,,,,,,,,,,,,,
,,,,,,,,,63d13e9a41e1c279a151bd4b,001,2024-06-30_07h43.26.387,empathy_intonation_perc,2024.1.4,Win32,60.24096386,38.1267,40.0932,1,1,1.4386,,40.0932,41.093,0,8,8,8,1,0,bien,1,REAL,FALSA,,,,,,,,,,,,,,,,,
,,,,,,,,,63d13e9a41e1c279a151bd4b,001,2024-06-30_07h43.26.387,empathy_intonation_perc,2024.1.4,Win32,60.24096386,41.0932,42.7598,1,1,1.1389,,42.7598,43.7596,0,9,9,9,1,0,casa,1,REAL,FALSA,,,,,,,,,,,,,,,,,
,,,,,,,,,63d13e9a41e1c279a151bd4b,001,2024-06-30_07h43.26.387,empathy_intonation_perc,2024.1.4,Win32,60.24096386,43.76,45.043,0,1,0.7475,,45.043,46.0429,0,10,10,10,1,0,lejo,0,REAL,FALSA,,,,,,,,,,,,,,,,,
,,,,,,,,,63d13e9a41e1c279a151bd4b,001,2024-06-30_07h43.26.387,empathy_intonation_perc,2024.1.4,Win32,60.24096386,46.0431,47.3428,0,1,0.7745,,47.3428,48.3429,0,11,11,11,1,0,pretantas,0,REAL,FALSA,,,,,,,,,,,,,,,,,
,,,,,,,,,63d13e9a41e1c279a151bd4b,001,2024-06-30_07h43.26.387,empathy_intonation_perc,2024.1.4,Win32,60.24096386,,,,,,,,,,,,,,,,,,,48.3433,51.1097,,,,,,,,,,,,,,,
,,,,,,,,,63d13e9a41e1c279a151bd4b,001,2024-06-30_07h43.26.387,empathy_intonation_perc,2024.1.4,Win32,60.24096386,,,,,,,,,,,,,,30,fiscal,,,,,,51.1177,52.6096,0,1,0.9641,,0,0,0,29,1,two_way_cognate,1,REAL,FALSA
,,,,,,,,,63d13e9a41e1c279a151bd4b,001,2024-06-30_07h43.26.387,empathy_intonation_perc,2024.1.4,Win32,60.24096386,,,,,,,,,,,,,,52,blando,,,,,,52.6099,53.626,0,1,0.4918,,0,1,1,51,1,non_cognate,1,REAL,FALSA
,,,,,,,,,63d13e9a41e1c279a151bd4b,001,2024-06-30_07h43.26.387,empathy_intonation_perc,2024.1.4,Win32,60.24096386,,,,,,,,,,,,,,16,chat,,,,,,53.6263,55.2759,1,0,1.1246,,0,2,2,15,1,three_way_cognate,1,REAL,FALSA
,,,,,,,,,63d13e9a41e1c279a151bd4b,001,2024-06-30_07h43.26.387,empathy_intonation_perc,2024.1.4,Win32,60.24096386,,,,,,,,,,,,,,5,extra,,,,,,55.2761,56.6594,0,1,0.8481,,0,3,3,4,1,three_way_cognate,1,REAL,FALSA
,,,,,,,,,63d13e9a41e1c279a151bd4b,001,2024-06-30_07h43.26.387,empathy_intonation_perc,2024.1.4,Win32,60.24096386,,,,,,,,,,,,,,126,tobre,,,,,,56.6597,58.0759,1,0,0.8836,,0,4,4,125,1,pseudoword,0,REAL,FALSA
,,,,,,,,,63d13e9a41e1c279a151bd4b,001,2024-06-30_07h43.26.387,empathy_intonation_perc,2024.1.4,Win32,60.24096386,,,,,,,,,,,,,,129,vinzó,,,,,,58.0761,58.9759,0,1,0.3566,,0,5,5,128,1,pseudoword,0,REAL,FALSA
,,,,,,,,,63d13e9a41e1c279a151bd4b,001,2024-06-30_07h43.26.387,empathy_intonation_perc,2024.1.4,Win32,60.24096386,,,,,,,,,,,,,,13,plan,,,,,,58.9763,71.4595,0,1,11.9584,,0,6,6,12,1,three_way_cognate,1,REAL,FALSA
,,,,,,,,,63d13e9a41e1c279a151bd4b,001,2024-06-30_07h43.26.387,empathy_intonation_perc,2024.1.4,Win32,60.24096386,,,,,,,,,,,,,,69,tiza,,,,,,71.4672,72.8253,1,0,0.8267,,0,7,7,68,1,non_cognate,1,REAL,FALSA
,,,,,,,,,63d13e9a41e1c279a151bd4b,001,2024-06-30_07h43.26.387,empathy_intonation_perc,2024.1.4,Win32,60.24096386,,,,,,,,,,,,,,190,asumie,,,,,,72.8265,73.9258,0,1,0.5517,,0,8,8,189,1,pseudoword,0,REAL,FALSA
,,,,,,,,,63d13e9a41e1c279a151bd4b,001,2024-06-30_07h43.26.387,empathy_intonation_perc,2024.1.4,Win32,60.24096386,,,,,,,,,,,,,,67,llamar,,,,,,73.9267,74.8422,0,1,0.3775,,0,9,9,66,1,non_cognate,1,REAL,FALSA
,,,,,,,,,63d13e9a41e1c279a151bd4b,001,2024-06-30_07h43.26.387,empathy_intonation_perc,2024.1.4,Win32,60.24096386,,,,,,,,,,,,,,41,pasta,,,,,,74.8434,76.9763,0,1,1.5844,,0,10,10,40,1,two_way_cognate,1,REAL,FALSA
,,,,,,,,,63d13e9a41e1c279a151bd4b,001,2024-06-30_07h43.26.387,empathy_intonation_perc,2024.1.4,Win32,60.24096386,,,,,,,,,,,,,,33,collar,,,,,,76.9768,79.076,1,0,1.56,,0,11,11,32,1,two_way_cognate,1,REAL,FALSA
,,,,,,,,,63d13e9a41e1c279a151bd4b,001,2024-06-30_07h43.26.387,empathy_intonation_perc,2024.1.4,Win32,60.24096386,,,,,,,,,,,,,,138,tator,,,,,,79.0768,80.543,0,1,0.917,,0,12,12,137,1,pseudoword,0,REAL,FALSA
,,,,,,,,,63d13e9a41e1c279a151bd4b,001,2024-06-30_07h43.26.387,empathy_intonation_perc,2024.1.4,Win32,60.24096386,,,,,,,,,,,,,,104,estulo,,,,,,80.5436,82.1595,0,1,1.0681,,0,13,13,103,1,pseudoword,0,REAL,FALSA
,,,,,,,,,63d13e9a41e1c279a151bd4b,001,2024-06-30_07h43.26.387,empathy_intonation_perc,2024.1.4,Win32,60.24096386,,,,,,,,,,,,,,11,golf,,,,,,82.1601,83.4428,1,0,0.7419,,0,14,14,10,1,three_way_cognate,1,REAL,FALSA
,,,,,,,,,63d13e9a41e1c279a151bd4b,001,2024-06-30_07h43.26.387,empathy_intonation_perc,2024.1.4,Win32,60.24096386,,,,,,,,,,,,,,62,pegar,,,,,,83.4434,84.9087,0,1,0.9176,,0,15,15,61,1,non_cognate,1,REAL,FALSA
,,,,,,,,,63d13e9a41e1c279a151bd4b,001,2024-06-30_07h43.26.387,empathy_intonation_perc,2024.1.4,Win32,60.24096386,,,,,,,,,,,,,,54,tapón,,,,,,84.9097,85.9275,1,0,0.4804,,0,16,16,53,1,non_cognate,1,REAL,FALSA
,,,,,,,,,63d13e9a41e1c279a151bd4b,001,2024-06-30_07h43.26.387,empathy_intonation_perc,2024.1.4,Win32,60.24096386,,,,,,,,,,,,,,89,muñeca,,,,,,85.9278,86.7928,1,0,0.3211,,0,17,17,88,1,non_cognate,1,REAL,FALSA
,,,,,,,,,63d13e9a41e1c279a151bd4b,001,2024-06-30_07h43.26.387,empathy_intonation_perc,2024.1.4,Win32,60.24096386,,,,,,,,,,,,,,71,torta,,,,,,86.7933,88.1259,1,0,0.7856,,0,18,18,70,1,non_cognate,1,REAL,FALSA
,,,,,,,,,63d13e9a41e1c279a151bd4b,001,2024-06-30_07h43.26.387,empathy_intonation_perc,2024.1.4,Win32,60.24096386,,,,,,,,,,,,,,98,martir,,,,,,88.1266,89.6594,1,0,0.9932,,0,19,19,97,1,pseudoword,0,REAL,FALSA
,,,,,,,,,63d13e9a41e1c279a151bd4b,001,2024-06-30_07h43.26.387,empathy_intonation_perc,2024.1.4,Win32,60.24096386,,,,,,,,,,,,,,111,monue,,,,,,89.6599,91.1427,0,1,0.9434,,0,20,20,110,1,pseudoword,0,REAL,FALSA
,,,,,,,,,63d13e9a41e1c279a151bd4b,001,2024-06-30_07h43.26.387,empathy_intonation_perc,2024.1.4,Win32,60.24096386,,,,,,,,,,,,,,169,pitis,,,,,,91.1433,92.2131,0,1,0.533,,0,21,21,168,1,pseudoword,0,REAL,FALSA
,,,,,,,,,63d13e9a41e1c279a151bd4b,001,2024-06-30_07h43.26.387,empathy_intonation_perc,2024.1.4,Win32,60.24096386,,,,,,,,,,,,,,142,parre,,,,,,92.2135,93.2927,0,1,0.5346,,0,22,22,141,1,pseudoword,0,REAL,FALSA
,,,,,,,,,63d13e9a41e1c279a151bd4b,001,2024-06-30_07h43.26.387,empathy_intonation_perc,2024.1.4,Win32,60.24096386,,,,,,,,,,,,,,152,prave,,,,,,93.2932,94.8426,0,1,1.0086,,0,23,23,151,1,pseudoword,0,REAL,FALSA
,,,,,,,,,63d13e9a41e1c279a151bd4b,001,2024-06-30_07h43.26.387,empathy_intonation_perc,2024.1.4,Win32,60.24096386,,,,,,,,,,,,,,139,sasos,,,,,,94.8431,96.2924,0,1,0.9046,,0,24,24,138,1,pseudoword,0,REAL,FALSA
,,,,,,,,,63d13e9a41e1c279a151bd4b,001,2024-06-30_07h43.26.387,empathy_intonation_perc,2024.1.4,Win32,60.24096386,,,,,,,,,,,,,,182,desaro,,,,,,96.2929,97.4921,0,1,0.6569,,0,25,25,181,1,pseudoword,0,REAL,FALSA
,,,,,,,,,63d13e9a41e1c279a151bd4b,001,2024-06-30_07h43.26.387,empathy_intonation_perc,2024.1.4,Win32,60.24096386,,,,,,,,,,,,,,117,morrá,,,,,,97.493,98.8594,0,1,0.8355,,0,26,26,116,1,pseudoword,0,REAL,FALSA
,,,,,,,,,63d13e9a41e1c279a151bd4b,001,2024-06-30_07h43.26.387,empathy_intonation_perc,2024.1.4,Win32,60.24096386,,,,,,,,,,,,,,124,lobe,,,,,,98.8598,100.3426,1,0,0.9415,,0,27,27,123,1,pseudoword,0,REAL,FALSA
,,,,,,,,,63d13e9a41e1c279a151bd4b,001,2024-06-30_07h43.26.387,empathy_intonation_perc,2024.1.4,Win32,60.24096386,,,,,,,,,,,,,,81,sacar,,,,,,100.3431,101.4589,0,1,0.5713,,0,28,28,80,1,non_cognate,1,REAL,FALSA
,,,,,,,,,63d13e9a41e1c279a151bd4b,001,2024-06-30_07h43.26.387,empathy_intonation_perc,2024.1.4,Win32,60.24096386,,,,,,,,,,,,,,118,bará,,,,,,101.4596,102.4138,0,1,0.4163,,0,29,29,117,1,pseudoword,0,REAL,FALSA
,,,,,,,,,63d13e9a41e1c279a151bd4b,001,2024-06-30_07h43.26.387,empathy_intonation_perc,2024.1.4,Win32,60.24096386,,,,,,,,,,,,,,141,virios,,,,,,102.4141,103.8087,0,1,0.8516,,0,30,30,140,1,pseudoword,0,REAL,FALSA
,,,,,,,,,63d13e9a41e1c279a151bd4b,001,2024-06-30_07h43.26.387,empathy_intonation_perc,2024.1.4,Win32,60.24096386,,,,,,,,,,,,,,48,pelvis,,,,,,103.8096,105.2591,1,0,0.9073,,0,31,31,47,1,two_way_cognate,1,REAL,FALSA
,,,,,,,,,63d13e9a41e1c279a151bd4b,001,2024-06-30_07h43.26.387,empathy_intonation_perc,2024.1.4,Win32,60.24096386,,,,,,,,,,,,,,178,inichó,,,,,,105.2597,107.026,1,0,1.2242,,0,32,32,177,1,pseudoword,0,REAL,FALSA
,,,,,,,,,63d13e9a41e1c279a151bd4b,001,2024-06-30_07h43.26.387,empathy_intonation_perc,2024.1.4,Win32,60.24096386,,,,,,,,,,,,,,37,torso,,,,,,107.0266,108.1584,1,0,0.595,,0,33,33,36,1,two_way_cognate,1,REAL,FALSA
,,,,,,,,,63d13e9a41e1c279a151bd4b,001,2024-06-30_07h43.26.387,empathy_intonation_perc,2024.1.4,Win32,60.24096386,,,,,,,,,,,,,,109,laras,,,,,,108.1592,109.2919,1,0,0.5863,,0,34,34,108,1,pseudoword,0,REAL,FALSA
,,,,,,,,,63d13e9a41e1c279a151bd4b,001,2024-06-30_07h43.26.387,empathy_intonation_perc,2024.1.4,Win32,60.24096386,,,,,,,,,,,,,,88,percha,,,,,,109.2927,110.458,0,1,0.627,,0,35,35,87,1,non_cognate,1,REAL,FALSA
,,,,,,,,,63d13e9a41e1c279a151bd4b,001,2024-06-30_07h43.26.387,empathy_intonation_perc,2024.1.4,Win32,60.24096386,,,,,,,,,,,,,,147,alla,,,,,,110.459,111.8472,1,0,0.8503,,0,36,36,146,1,pseudoword,0,REAL,FALSA
,,,,,,,,,63d13e9a41e1c279a151bd4b,001,2024-06-30_07h43.26.387,empathy_intonation_perc,2024.1.4,Win32,60.24096386,,,,,,,,,,,,,,114,dibrea,,,,,,111.8476,113.0586,1,0,0.6724,,0,37,37,113,1,pseudoword,0,REAL,FALSA
,,,,,,,,,63d13e9a41e1c279a151bd4b,001,2024-06-30_07h43.26.387,empathy_intonation_perc,2024.1.4,Win32,60.24096386,,,,,,,,,,,,,,59,feo,,,,,,113.0597,114.1633,0,1,0.5668,,0,38,38,58,1,non_cognate,1,REAL,FALSA
,,,,,,,,,63d13e9a41e1c279a151bd4b,001,2024-06-30_07h43.26.387,empathy_intonation_perc,2024.1.4,Win32,60.24096386,,,,,,,,,,,,,,31,civil,,,,,,114.1636,115.6588,1,0,0.9541,,0,39,39,30,1,two_way_cognate,1,REAL,FALSA
,,,,,,,,,63d13e9a41e1c279a151bd4b,001,2024-06-30_07h43.26.387,empathy_intonation_perc,2024.1.4,Win32,60.24096386,,,,,,,,,,,,,,44,editor,,,,,,115.6594,116.542,0,1,0.3349,,0,40,40,43,1,two_way_cognate,1,REAL,FALSA
,,,,,,,,,63d13e9a41e1c279a151bd4b,001,2024-06-30_07h43.26.387,empathy_intonation_perc,2024.1.4,Win32,60.24096386,,,,,,,,,,,,,,93,tapa,,,,,,116.5426,117.1919,1,0,0.1013,,0,41,41,92,1,non_cognate,1,REAL,FALSA
,,,,,,,,,63d13e9a41e1c279a151bd4b,001,2024-06-30_07h43.26.387,empathy_intonation_perc,2024.1.4,Win32,60.24096386,,,,,,,,,,,,,,82,brillo,,,,,,117.1925,117.959,1,0,0.2271,,0,42,42,81,1,non_cognate,1,REAL,FALSA
,,,,,,,,,63d13e9a41e1c279a151bd4b,001,2024-06-30_07h43.26.387,empathy_intonation_perc,2024.1.4,Win32,60.24096386,,,,,,,,,,,,,,56,pico,,,,,,117.9593,118.792,1,0,0.2885,,0,43,43,55,1,non_cognate,1,REAL,FALSA
,,,,,,,,,63d13e9a41e1c279a151bd4b,001,2024-06-30_07h43.26.387,empathy_intonation_perc,2024.1.4,Win32,60.24096386,,,,,,,,,,,,,,151,prías,,,,,,118.7925,119.8254,1,0,0.4933,,0,44,44,150,1,pseudoword,0,REAL,FALSA
,,,,,,,,,63d13e9a41e1c279a151bd4b,001,2024-06-30_07h43.26.387,empathy_intonation_perc,2024.1.4,Win32,60.24096386,,,,,,,,,,,,,,156,ozoso,,,,,,119.8259,121.2251,1,0,0.8511,,0,45,45,155,1,pseudoword,0,REAL,FALSA
,,,,,,,,,63d13e9a41e1c279a151bd4b,001,2024-06-30_07h43.26.387,empathy_intonation_perc,2024.1.4,Win32,60.24096386,,,,,,,,,,,,,,68,puñal,,,,,,121.2258,122.5917,0,1,0.8352,,0,46,46,67,1,non_cognate,1,REAL,FALSA
,,,,,,,,,63d13e9a41e1c279a151bd4b,001,2024-06-30_07h43.26.387,empathy_intonation_perc,2024.1.4,Win32,60.24096386,,,,,,,,,,,,,,91,equipo,,,,,,122.5923,123.5753,1,0,0.4383,,0,47,47,90,1,non_cognate,1,REAL,FALSA
,,,,,,,,,63d13e9a41e1c279a151bd4b,001,2024-06-30_07h43.26.387,empathy_intonation_perc,2024.1.4,Win32,60.24096386,,,,,,,,,,,,,,64,rizado,,,,,,123.5757,124.1587,1,0,0.0425,,0,48,48,63,1,non_cognate,1,REAL,FALSA
,,,,,,,,,63d13e9a41e1c279a151bd4b,001,2024-06-30_07h43.26.387,empathy_intonation_perc,2024.1.4,Win32,60.24096386,,,,,,,,,,,,,,97,nocita,,,,,,124.1591,125.0416,1,0,0.3571,,0,49,49,96,1,pseudoword,0,REAL,FALSA
,,,,,,,,,63d13e9a41e1c279a151bd4b,001,2024-06-30_07h43.26.387,empathy_intonation_perc,2024.1.4,Win32,60.24096386,,,,,,,,,,,,,,21,hotel,,,,,,125.0422,126.2082,1,0,0.6415,,0,50,50,20,1,three_way_cognate,1,REAL,FALSA
,,,,,,,,,63d13e9a41e1c279a151bd4b,001,2024-06-30_07h43.26.387,empathy_intonation_perc,2024.1.4,Win32,60.24096386,,,,,,,,,,,,,,23,plural,,,,,,126.209,127.4918,1,0,0.7391,,0,51,51,22,1,three_way_cognate,1,REAL,FALSA
,,,,,,,,,63d13e9a41e1c279a151bd4b,001,2024-06-30_07h43.26.387,empathy_intonation_perc,2024.1.4,Win32,60.24096386,,,,,,,,,,,,,,186,rizate,,,,,,127.4925,128.4635,0,1,0.4334,,0,52,52,185,1,pseudoword,0,REAL,FALSA
,,,,,,,,,63d13e9a41e1c279a151bd4b,001,2024-06-30_07h43.26.387,empathy_intonation_perc,2024.1.4,Win32,60.24096386,,,,,,,,,,,,,,162,cengo,,,,,,128.4637,129.6413,1,0,0.6596,,0,53,53,161,1,pseudoword,0,REAL,FALSA
,,,,,,,,,63d13e9a41e1c279a151bd4b,001,2024-06-30_07h43.26.387,empathy_intonation_perc,2024.1.4,Win32,60.24096386,,,,,,,,,,,,,,76,chocar,,,,,,129.6424,130.8746,1,0,0.6844,,0,54,54,75,1,non_cognate,1,REAL,FALSA
,,,,,,,,,63d13e9a41e1c279a151bd4b,001,2024-06-30_07h43.26.387,empathy_intonation_perc,2024.1.4,Win32,60.24096386,,,,,,,,,,,,,,66,aleta,,,,,,130.8753,139.9081,0,1,8.4916,,0,55,55,65,1,non_cognate,1,REAL,FALSA
,,,,,,,,,63d13e9a41e1c279a151bd4b,001,2024-06-30_07h43.26.387,empathy_intonation_perc,2024.1.4,Win32,60.24096386,,,,,,,,,,,,,,43,honor,,,,,,139.9139,141.658,1,0,1.2088,,0,56,56,42,1,two_way_cognate,1,REAL,FALSA
,,,,,,,,,63d13e9a41e1c279a151bd4b,001,2024-06-30_07h43.26.387,empathy_intonation_perc,2024.1.4,Win32,60.24096386,,,,,,,,,,,,,,172,dogue,,,,,,141.6585,142.7246,0,1,0.5347,,0,57,57,171,1,pseudoword,0,REAL,FALSA
,,,,,,,,,63d13e9a41e1c279a151bd4b,001,2024-06-30_07h43.26.387,empathy_intonation_perc,2024.1.4,Win32,60.24096386,,,,,,,,,,,,,,78,rendir,,,,,,142.7252,143.763,1,0,0.5007,,0,58,58,77,1,non_cognate,1,REAL,FALSA
,,,,,,,,,63d13e9a41e1c279a151bd4b,001,2024-06-30_07h43.26.387,empathy_intonation_perc,2024.1.4,Win32,60.24096386,,,,,,,,,,,,,,39,casual,,,,,,143.7631,144.974,1,0,0.6744,,0,59,59,38,1,two_way_cognate,1,REAL,FALSA
,,,,,,,,,63d13e9a41e1c279a151bd4b,001,2024-06-30_07h43.26.387,empathy_intonation_perc,2024.1.4,Win32,60.24096386,,,,,,,,,,,,,,84,aviso,,,,,,144.975,146.8412,0,1,1.3241,,0,60,60,83,1,non_cognate,1,REAL,FALSA
,,,,,,,,,63d13e9a41e1c279a151bd4b,001,2024-06-30_07h43.26.387,empathy_intonation_perc,2024.1.4,Win32,60.24096386,,,,,,,,,,,,,,184,huenos,,,,,,146.8418,147.9737,1,0,0.5841,,0,61,61,183,1,pseudoword,0,REAL,FALSA
,,,,,,,,,63d13e9a41e1c279a151bd4b,001,2024-06-30_07h43.26.387,empathy_intonation_perc,2024.1.4,Win32,60.24096386,,,,,,,,,,,,,,116,grigir,,,,,,147.9747,149.7911,0,1,1.2683,,0,62,62,115,1,pseudoword,0,REAL,FALSA
,,,,,,,,,63d13e9a41e1c279a151bd4b,001,2024-06-30_07h43.26.387,empathy_intonation_perc,2024.1.4,Win32,60.24096386,,,,,,,,,,,,,,32,animal,,,,,,149.7917,155.3245,1,0,4.9937,,0,63,63,31,1,two_way_cognate,1,REAL,FALSA
,,,,,,,,,63d13e9a41e1c279a151bd4b,001,2024-06-30_07h43.26.387,empathy_intonation_perc,2024.1.4,Win32,60.24096386,,,,,,,,,,,,,,103,vueras,,,,,,155.3336,156.658,0,1,0.7844,,0,64,64,102,1,pseudoword,0,REAL,FALSA
,,,,,,,,,63d13e9a41e1c279a151bd4b,001,2024-06-30_07h43.26.387,empathy_intonation_perc,2024.1.4,Win32,60.24096386,,,,,,,,,,,,,,83,hálito,,,,,,156.6583,157.9951,1,0,0.8163,,0,65,65,82,1,non_cognate,1,REAL,FALSA
,,,,,,,,,63d13e9a41e1c279a151bd4b,001,2024-06-30_07h43.26.387,empathy_intonation_perc,2024.1.4,Win32,60.24096386,,,,,,,,,,,,,,107,plago,,,,,,157.9953,158.8242,1,0,0.2837,,0,66,66,106,1,pseudoword,0,REAL,FALSA
,,,,,,,,,63d13e9a41e1c279a151bd4b,001,2024-06-30_07h43.26.387,empathy_intonation_perc,2024.1.4,Win32,60.24096386,,,,,,,,,,,,,,79,suelo,,,,,,158.825,160.2077,0,1,0.8366,,0,67,67,78,1,non_cognate,1,REAL,FALSA
,,,,,,,,,63d13e9a41e1c279a151bd4b,001,2024-06-30_07h43.26.387,empathy_intonation_perc,2024.1.4,Win32,60.24096386,,,,,,,,,,,,,,146,gió,,,,,,160.2084,160.9072,1,0,0.1548,,0,68,68,145,1,pseudoword,0,REAL,FALSA
,,,,,,,,,63d13e9a41e1c279a151bd4b,001,2024-06-30_07h43.26.387,empathy_intonation_perc,2024.1.4,Win32,60.24096386,,,,,,,,,,,,,,121,barbs,,,,,,160.9081,329.7038,0,1,168.2546,,0,69,69,120,1,pseudoword,0,REAL,FALSA
,,,,,,,,,63d13e9a41e1c279a151bd4b,001,2024-06-30_07h43.26.387,empathy_intonation_perc,2024.1.4,Win32,60.24096386,,,,,,,,,,,,,,6,horror,,,,,,329.7108,330.8241,1,0,0.5821,,0,70,70,5,1,three_way_cognate,1,REAL,FALSA
,,,,,,,,,63d13e9a41e1c279a151bd4b,001,2024-06-30_07h43.26.387,empathy_intonation_perc,2024.1.4,Win32,60.24096386,,,,,,,,,,,,,,36,viable,,,,,,330.8243,331.8751,0,1,0.5169,,0,71,71,35,1,two_way_cognate,1,REAL,FALSA
,,,,,,,,,63d13e9a41e1c279a151bd4b,001,2024-06-30_07h43.26.387,empathy_intonation_perc,2024.1.4,Win32,60.24096386,,,,,,,,,,,,,,136,hueas,,,,,,331.8754,332.7918,1,0,0.3835,,0,72,72,135,1,pseudoword,0,REAL,FALSA
,,,,,,,,,63d13e9a41e1c279a151bd4b,001,2024-06-30_07h43.26.387,empathy_intonation_perc,2024.1.4,Win32,60.24096386,,,,,,,,,,,,,,74,ala,,,,,,332.792,333.3538,1,0,0.0175,,0,73,73,73,1,non_cognate,1,REAL,FALSA
,,,,,,,,,63d13e9a41e1c279a151bd4b,001,2024-06-30_07h43.26.387,empathy_intonation_perc,2024.1.4,Win32,60.24096386,,,,,,,,,,,,,,173,mibro,,,,,,333.3541,334.1538,1,0,0.255,,0,74,74,172,1,pseudoword,0,REAL,FALSA
,,,,,,,,,63d13e9a41e1c279a151bd4b,001,2024-06-30_07h43.26.387,empathy_intonation_perc,2024.1.4,Win32,60.24096386,,,,,,,,,,,,,,171,gotro,,,,,,334.1544,334.9197,1,0,0.2348,,0,75,75,170,1,pseudoword,0,REAL,FALSA
,,,,,,,,,63d13e9a41e1c279a151bd4b,001,2024-06-30_07h43.26.387,empathy_intonation_perc,2024.1.4,Win32,60.24096386,,,,,,,,,,,,,,46,mortal,,,,,,334.9205,335.5532,0,1,0.0844,,0,76,76,45,1,two_way_cognate,1,REAL,FALSA
,,,,,,,,,63d13e9a41e1c279a151bd4b,001,2024-06-30_07h43.26.387,empathy_intonation_perc,2024.1.4,Win32,60.24096386,,,,,,,,,,,,,,15,test,,,,,,335.5541,336.1028,1,0,0.0058,,0,77,77,14,1,three_way_cognate,1,REAL,FALSA
,,,,,,,,,63d13e9a41e1c279a151bd4b,001,2024-06-30_07h43.26.387,empathy_intonation_perc,2024.1.4,Win32,60.24096386,,,,,,,,,,,,,,17,clan,,,,,,336.1039,336.9033,1,0,0.2591,,0,78,78,16,1,three_way_cognate,1,REAL,FALSA
,,,,,,,,,63d13e9a41e1c279a151bd4b,001,2024-06-30_07h43.26.387,empathy_intonation_perc,2024.1.4,Win32,60.24096386,,,,,,,,,,,,,,24,retina,,,,,,336.9038,337.4693,1,0,0.0267,,0,79,79,23,1,three_way_cognate,1,REAL,FALSA
,,,,,,,,,63d13e9a41e1c279a151bd4b,001,2024-06-30_07h43.26.387,empathy_intonation_perc,2024.1.4,Win32,60.24096386,,,,,,,,,,,,,,57,regalo,,,,,,337.4703,338.52,1,0,0.5011,,0,80,80,56,1,non_cognate,1,REAL,FALSA
,,,,,,,,,63d13e9a41e1c279a151bd4b,001,2024-06-30_07h43.26.387,empathy_intonation_perc,2024.1.4,Win32,60.24096386,,,,,,,,,,,,,,51,listo,,,,,,338.5206,339.059,1,0,0.0007,,0,81,81,50,1,non_cognate,1,REAL,FALSA
,,,,,,,,,63d13e9a41e1c279a151bd4b,001,2024-06-30_07h43.26.387,empathy_intonation_perc,2024.1.4,Win32,60.24096386,,,,,,,,,,,,,,188,amplir,,,,,,339.0592,339.7533,1,0,0.1559,,0,82,82,187,1,pseudoword,0,REAL,FALSA
,,,,,,,,,63d13e9a41e1c279a151bd4b,001,2024-06-30_07h43.26.387,empathy_intonation_perc,2024.1.4,Win32,60.24096386,,,,,,,,,,,,,,155,kugis,,,,,,339.7541,340.3697,1,0,0.0751,,0,83,83,154,1,pseudoword,0,REAL,FALSA
,,,,,,,,,63d13e9a41e1c279a151bd4b,001,2024-06-30_07h43.26.387,empathy_intonation_perc,2024.1.4,Win32,60.24096386,,,,,,,,,,,,,,35,aurora,,,,,,340.3703,343.8747,1,0,2.967,,0,84,84,34,1,two_way_cognate,1,REAL,FALSA
,,,,,,,,,63d13e9a41e1c279a151bd4b,001,2024-06-30_07h43.26.387,empathy_intonation_perc,2024.1.4,Win32,60.24096386,,,,,,,,,,,,,,191,frasis,,,,,,343.8848,434.5836,1,0,90.1658,,0,85,85,190,1,pseudoword,0,REAL,FALSA
,,,,,,,,,63d13e9a41e1c279a151bd4b,001,2024-06-30_07h43.26.387,empathy_intonation_perc,2024.1.4,Win32,60.24096386,,,,,,,,,,,,,,108,jauda,,,,,,434.59,435.1502,0,1,0.0349,,0,86,86,107,1,pseudoword,0,REAL,FALSA
,,,,,,,,,63d13e9a41e1c279a151bd4b,001,2024-06-30_07h43.26.387,empathy_intonation_perc,2024.1.4,Win32,60.24096386,,,,,,,,,,,,,,192,próces,,,,,,435.1504,435.7336,0,1,0.0513,,0,87,87,191,1,pseudoword,0,REAL,FALSA
,,,,,,,,,63d13e9a41e1c279a151bd4b,001,2024-06-30_07h43.26.387,empathy_intonation_perc,2024.1.4,Win32,60.24096386,,,,,,,,,,,,,,34,actor,,,,,,435.7337,436.4171,0,1,0.1488,,0,88,88,33,1,two_way_cognate,1,REAL,FALSA
,,,,,,,,,63d13e9a41e1c279a151bd4b,001,2024-06-30_07h43.26.387,empathy_intonation_perc,2024.1.4,Win32,60.24096386,,,,,,,,,,,,,,123,arane,,,,,,436.4172,437.4172,1,0,0.4695,,0,89,89,122,1,pseudoword,0,REAL,FALSA
,,,,,,,,,63d13e9a41e1c279a151bd4b,001,2024-06-30_07h43.26.387,empathy_intonation_perc,2024.1.4,Win32,60.24096386,,,,,,,,,,,,,,160,fomeó,,,,,,437.4173,438.2169,0,1,0.2699,,0,90,90,159,1,pseudoword,0,REAL,FALSA
,,,,,,,,,63d13e9a41e1c279a151bd4b,001,2024-06-30_07h43.26.387,empathy_intonation_perc,2024.1.4,Win32,60.24096386,,,,,,,,,,,,,,119,esís,,,,,,438.2171,439.2004,1,0,0.4494,,0,91,91,118,1,pseudoword,0,REAL,FALSA
,,,,,,,,,63d13e9a41e1c279a151bd4b,001,2024-06-30_07h43.26.387,empathy_intonation_perc,2024.1.4,Win32,60.24096386,,,,,,,,,,,,,,157,seled,,,,,,439.2006,439.8003,1,0,0.0745,,0,92,92,156,1,pseudoword,0,REAL,FALSA
,,,,,,,,,63d13e9a41e1c279a151bd4b,001,2024-06-30_07h43.26.387,empathy_intonation_perc,2024.1.4,Win32,60.24096386,,,,,,,,,,,,,,154,harvé,,,,,,439.8006,440.5669,1,0,0.2403,,0,93,93,153,1,pseudoword,0,REAL,FALSA
,,,,,,,,,63d13e9a41e1c279a151bd4b,001,2024-06-30_07h43.26.387,empathy_intonation_perc,2024.1.4,Win32,60.24096386,,,,,,,,,,,,,,143,hurcos,,,,,,440.5671,441.4335,0,1,0.3346,,0,94,94,142,1,pseudoword,0,REAL,FALSA
,,,,,,,,,63d13e9a41e1c279a151bd4b,001,2024-06-30_07h43.26.387,empathy_intonation_perc,2024.1.4,Win32,60.24096386,,,,,,,,,,,,,,132,nocó,,,,,,441.4337,442.0335,1,0,0.0684,,0,95,95,131,1,pseudoword,0,REAL,FALSA
,,,,,,,,,63d13e9a41e1c279a151bd4b,001,2024-06-30_07h43.26.387,empathy_intonation_perc,2024.1.4,Win32,60.24096386,,,,,,,,,,,,,,49,teñir,,,,,,442.0338,442.6001,0,1,0.0325,,0,96,96,48,1,non_cognate,1,REAL,FALSA
,,,,,,,,,63d13e9a41e1c279a151bd4b,001,2024-06-30_07h43.26.387,empathy_intonation_perc,2024.1.4,Win32,60.24096386,,,,,,,,,,,,,,122,boñaz,,,,,,442.6004,443.1668,1,0,0.0387,,0,97,97,121,1,pseudoword,0,REAL,FALSA
,,,,,,,,,63d13e9a41e1c279a151bd4b,001,2024-06-30_07h43.26.387,empathy_intonation_perc,2024.1.4,Win32,60.24096386,,,,,,,,,,,,,,163,olzan,,,,,,443.167,443.7835,1,0,0.1025,,0,98,98,162,1,pseudoword,0,REAL,FALSA
,,,,,,,,,63d13e9a41e1c279a151bd4b,001,2024-06-30_07h43.26.387,empathy_intonation_perc,2024.1.4,Win32,60.24096386,,,,,,,,,,,,,,149,emén,,,,,,443.7837,444.4668,1,0,0.1568,,0,99,99,148,1,pseudoword,0,REAL,FALSA
,,,,,,,,,63d13e9a41e1c279a151bd4b,001,2024-06-30_07h43.26.387,empathy_intonation_perc,2024.1.4,Win32,60.24096386,,,,,,,,,,,,,,99,bugor,,,,,,444.4669,445.5168,1,0,0.5223,,0,100,100,98,1,pseudoword,0,REAL,FALSA
,,,,,,,,,63d13e9a41e1c279a151bd4b,001,2024-06-30_07h43.26.387,empathy_intonation_perc,2024.1.4,Win32,60.24096386,,,,,,,,,,,,,,87,muleta,,,,,,445.5169,446.3001,0,1,0.2616,,0,101,101,86,1,non_cognate,1,REAL,FALSA
,,,,,,,,,63d13e9a41e1c279a151bd4b,001,2024-06-30_07h43.26.387,empathy_intonation_perc,2024.1.4,Win32,60.24096386,,,,,,,,,,,,,,92,flecha,,,,,,446.3004,446.8666,1,0,0.0323,,0,102,102,91,1,non_cognate,1,REAL,FALSA
,,,,,,,,,63d13e9a41e1c279a151bd4b,001,2024-06-30_07h43.26.387,empathy_intonation_perc,2024.1.4,Win32,60.24096386,,,,,,,,,,,,,,166,anfia,,,,,,446.867,447.4501,1,0,0.0494,,0,103,103,165,1,pseudoword,0,REAL,FALSA
,,,,,,,,,63d13e9a41e1c279a151bd4b,001,2024-06-30_07h43.26.387,empathy_intonation_perc,2024.1.4,Win32,60.24096386,,,,,,,,,,,,,,125,ceme,,,,,,447.4502,448.0999,1,0,0.1254,,0,104,104,124,1,pseudoword,0,REAL,FALSA
,,,,,,,,,63d13e9a41e1c279a151bd4b,001,2024-06-30_07h43.26.387,empathy_intonation_perc,2024.1.4,Win32,60.24096386,,,,,,,,,,,,,,130,dubo,,,,,,448.1001,461.4432,1,0,12.8188,,0,105,105,129,1,pseudoword,0,REAL,FALSA
,,,,,,,,,63d13e9a41e1c279a151bd4b,001,2024-06-30_07h43.26.387,empathy_intonation_perc,2024.1.4,Win32,60.24096386,,,,,,,,,,,,,,105,leniz,,,,,,461.4437,462.2664,0,1,0.295,,0,106,106,104,1,pseudoword,0,REAL,FALSA
,,,,,,,,,63d13e9a41e1c279a151bd4b,001,2024-06-30_07h43.26.387,empathy_intonation_perc,2024.1.4,Win32,60.24096386,,,,,,,,,,,,,,10,drama,,,,,,462.2671,462.8049,0,1,0.0004,,0,107,107,9,1,three_way_cognate,1,REAL,FALSA
,,,,,,,,,63d13e9a41e1c279a151bd4b,001,2024-06-30_07h43.26.387,empathy_intonation_perc,2024.1.4,Win32,60.24096386,,,,,,,,,,,,,,120,mauja,,,,,,462.805,463.7335,1,0,0.3846,,0,108,108,119,1,pseudoword,0,REAL,FALSA
,,,,,,,,,63d13e9a41e1c279a151bd4b,001,2024-06-30_07h43.26.387,empathy_intonation_perc,2024.1.4,Win32,60.24096386,,,,,,,,,,,,,,113,nasce,,,,,,463.734,464.3167,1,0,0.0349,,0,109,109,112,1,pseudoword,0,REAL,FALSA
,,,,,,,,,63d13e9a41e1c279a151bd4b,001,2024-06-30_07h43.26.387,empathy_intonation_perc,2024.1.4,Win32,60.24096386,,,,,,,,,,,,,,80,cuenco,,,,,,464.3174,464.8669,1,0,0.0052,,0,110,110,79,1,non_cognate,1,REAL,FALSA
,,,,,,,,,63d13e9a41e1c279a151bd4b,001,2024-06-30_07h43.26.387,empathy_intonation_perc,2024.1.4,Win32,60.24096386,,,,,,,,,,,,,,42,rumor,,,,,,464.8674,465.5001,1,0,0.0846,,0,111,111,41,1,two_way_cognate,1,REAL,FALSA
,,,,,,,,,63d13e9a41e1c279a151bd4b,001,2024-06-30_07h43.26.387,empathy_intonation_perc,2024.1.4,Win32,60.24096386,,,,,,,,,,,,,,159,trcia,,,,,,465.5007,466.2172,1,0,0.1771,,0,112,112,158,1,pseudoword,0,REAL,FALSA
,,,,,,,,,63d13e9a41e1c279a151bd4b,001,2024-06-30_07h43.26.387,empathy_intonation_perc,2024.1.4,Win32,60.24096386,,,,,,,,,,,,,,168,cobén,,,,,,466.2183,467.7669,0,1,1.0011,,0,113,113,167,1,pseudoword,0,REAL,FALSA
,,,,,,,,,63d13e9a41e1c279a151bd4b,001,2024-06-30_07h43.26.387,empathy_intonation_perc,2024.1.4,Win32,60.24096386,,,,,,,,,,,,,,29,clamor,,,,,,467.7675,469.0382,0,1,0.7335,,0,114,114,28,1,two_way_cognate,1,REAL,FALSA
,,,,,,,,,63d13e9a41e1c279a151bd4b,001,2024-06-30_07h43.26.387,empathy_intonation_perc,2024.1.4,Win32,60.24096386,,,,,,,,,,,,,,170,diabo,,,,,,469.0384,470.1335,1,0,0.557,,0,115,115,169,1,pseudoword,0,REAL,FALSA
,,,,,,,,,63d13e9a41e1c279a151bd4b,001,2024-06-30_07h43.26.387,empathy_intonation_perc,2024.1.4,Win32,60.24096386,,,,,,,,,,,,,,26,enigma,,,,,,470.134,470.8554,1,0,0.1842,,0,116,116,25,1,two_way_cognate,1,REAL,FALSA
,,,,,,,,,63d13e9a41e1c279a151bd4b,001,2024-06-30_07h43.26.387,empathy_intonation_perc,2024.1.4,Win32,60.24096386,,,,,,,,,,,,,,137,trugo,,,,,,470.8557,471.4852,1,0,0.0936,,0,117,117,136,1,pseudoword,0,REAL,FALSA
,,,,,,,,,63d13e9a41e1c279a151bd4b,001,2024-06-30_07h43.26.387,empathy_intonation_perc,2024.1.4,Win32,60.24096386,,,,,,,,,,,,,,50,sierra,,,,,,471.4858,472.1208,1,0,0.0994,,0,118,118,49,1,non_cognate,1,REAL,FALSA
,,,,,,,,,63d13e9a41e1c279a151bd4b,001,2024-06-30_07h43.26.387,empathy_intonation_perc,2024.1.4,Win32,60.24096386,,,,,,,,,,,,,,127,vien,,,,,,472.1213,472.7176,1,0,0.0567,,0,119,119,126,1,pseudoword,0,REAL,FALSA
,,,,,,,,,63d13e9a41e1c279a151bd4b,001,2024-06-30_07h43.26.387,empathy_intonation_perc,2024.1.4,Win32,60.24096386,,,,,,,,,,,,,,85,enorme,,,,,,472.7184,473.2553,0,1,0.0005,,0,120,120,84,1,non_cognate,1,REAL,FALSA
,,,,,,,,,63d13e9a41e1c279a151bd4b,001,2024-06-30_07h43.26.387,empathy_intonation_perc,2024.1.4,Win32,60.24096386,,,,,,,,,,,,,,65,guerra,,,,,,473.2557,473.834,1,0,0.0348,,0,121,121,64,1,non_cognate,1,REAL,FALSA
,,,,,,,,,63d13e9a41e1c279a151bd4b,001,2024-06-30_07h43.26.387,empathy_intonation_perc,2024.1.4,Win32,60.24096386,,,,,,,,,,,,,,90,venado,,,,,,473.8344,474.4002,1,0,0.0211,,0,122,122,89,1,non_cognate,1,REAL,FALSA
,,,,,,,,,63d13e9a41e1c279a151bd4b,001,2024-06-30_07h43.26.387,empathy_intonation_perc,2024.1.4,Win32,60.24096386,,,,,,,,,,,,,,183,edioso,,,,,,474.4007,475.0005,1,0,0.0734,,0,123,123,182,1,pseudoword,0,REAL,FALSA
,,,,,,,,,63d13e9a41e1c279a151bd4b,001,2024-06-30_07h43.26.387,empathy_intonation_perc,2024.1.4,Win32,60.24096386,,,,,,,,,,,,,,150,cricó,,,,,,475.0008,475.6171,0,1,0.069,,0,124,124,149,1,pseudoword,0,REAL,FALSA
,,,,,,,,,63d13e9a41e1c279a151bd4b,001,2024-06-30_07h43.26.387,empathy_intonation_perc,2024.1.4,Win32,60.24096386,,,,,,,,,,,,,,95,listo,,,,,,475.6174,483.8162,1,0,7.6576,,0,125,125,94,1,non_cognate,1,REAL,FALSA
,,,,,,,,,63d13e9a41e1c279a151bd4b,001,2024-06-30_07h43.26.387,empathy_intonation_perc,2024.1.4,Win32,60.24096386,,,,,,,,,,,,,,75,patada,,,,,,483.8271,492.5327,1,0,8.1851,,0,126,126,74,1,non_cognate,1,REAL,FALSA
,,,,,,,,,63d13e9a41e1c279a151bd4b,001,2024-06-30_07h43.26.387,empathy_intonation_perc,2024.1.4,Win32,60.24096386,,,,,,,,,,,,,,70,ánimo,,,,,,492.5445,493.0655,0,1,0.0064,,0,127,127,69,1,non_cognate,1,REAL,FALSA
,,,,,,,,,63d13e9a41e1c279a151bd4b,001,2024-06-30_07h43.26.387,empathy_intonation_perc,2024.1.4,Win32,60.24096386,,,,,,,,,,,,,,165,chote,,,,,,493.066,493.7659,1,0,0.1679,,0,128,128,164,1,pseudoword,0,REAL,FALSA
,,,,,,,,,63d13e9a41e1c279a151bd4b,001,2024-06-30_07h43.26.387,empathy_intonation_perc,2024.1.4,Win32,60.24096386,,,,,,,,,,,,,,38,halo,,,,,,493.7662,494.5327,1,0,0.2386,,0,129,129,37,1,two_way_cognate,1,REAL,FALSA
,,,,,,,,,63d13e9a41e1c279a151bd4b,001,2024-06-30_07h43.26.387,empathy_intonation_perc,2024.1.4,Win32,60.24096386,,,,,,,,,,,,,,7,albino,,,,,,494.5331,495.1491,0,1,0.0906,,0,130,130,6,1,three_way_cognate,1,REAL,FALSA
,,,,,,,,,63d13e9a41e1c279a151bd4b,001,2024-06-30_07h43.26.387,empathy_intonation_perc,2024.1.4,Win32,60.24096386,,,,,,,,,,,,,,100,épinas,,,,,,495.1494,495.6823,1,0,0.0002,,0,131,131,99,1,pseudoword,0,REAL,FALSA
,,,,,,,,,63d13e9a41e1c279a151bd4b,001,2024-06-30_07h43.26.387,empathy_intonation_perc,2024.1.4,Win32,60.24096386,,,,,,,,,,,,,,181,gravés,,,,,,495.6828,496.2157,1,0,0.0022,,0,132,132,180,1,pseudoword,0,REAL,FALSA
,,,,,,,,,63d13e9a41e1c279a151bd4b,001,2024-06-30_07h43.26.387,empathy_intonation_perc,2024.1.4,Win32,60.24096386,,,,,,,,,,,,,,153,golla,,,,,,496.216,496.7658,1,0,0.0229,,0,133,133,152,1,pseudoword,0,REAL,FALSA
,,,,,,,,,63d13e9a41e1c279a151bd4b,001,2024-06-30_07h43.26.387,empathy_intonation_perc,2024.1.4,Win32,60.24096386,,,,,,,,,,,,,,47,color,,,,,,496.7663,497.8992,1,0,0.5986,,0,134,134,46,1,two_way_cognate,1,REAL,FALSA
,,,,,,,,,63d13e9a41e1c279a151bd4b,001,2024-06-30_07h43.26.387,empathy_intonation_perc,2024.1.4,Win32,60.24096386,,,,,,,,,,,,,,164,tecia,,,,,,497.8997,499.0991,0,1,0.6702,,0,135,135,163,1,pseudoword,0,REAL,FALSA
,,,,,,,,,63d13e9a41e1c279a151bd4b,001,2024-06-30_07h43.26.387,empathy_intonation_perc,2024.1.4,Win32,60.24096386,,,,,,,,,,,,,,86,cuenco,,,,,,499.0996,500.2158,0,1,0.5896,,0,136,136,85,1,non_cognate,1,REAL,FALSA
,,,,,,,,,63d13e9a41e1c279a151bd4b,001,2024-06-30_07h43.26.387,empathy_intonation_perc,2024.1.4,Win32,60.24096386,,,,,,,,,,,,,,115,lidena,,,,,,500.2162,501.2165,0,1,0.4759,,0,137,137,114,1,pseudoword,0,REAL,FALSA
,,,,,,,,,63d13e9a41e1c279a151bd4b,001,2024-06-30_07h43.26.387,empathy_intonation_perc,2024.1.4,Win32,60.24096386,,,,,,,,,,,,,,28,ardor,,,,,,501.2174,502.2657,0,1,0.5174,,0,138,138,27,1,two_way_cognate,1,REAL,FALSA
,,,,,,,,,63d13e9a41e1c279a151bd4b,001,2024-06-30_07h43.26.387,empathy_intonation_perc,2024.1.4,Win32,60.24096386,,,,,,,,,,,,,,140,chorde,,,,,,502.2661,503.4822,1,0,0.6822,,0,139,139,139,1,pseudoword,0,REAL,FALSA
,,,,,,,,,63d13e9a41e1c279a151bd4b,001,2024-06-30_07h43.26.387,empathy_intonation_perc,2024.1.4,Win32,60.24096386,,,,,,,,,,,,,,2,tumor,,,,,,503.4825,504.5657,1,0,0.5487,,0,140,140,1,1,three_way_cognate,1,REAL,FALSA
,,,,,,,,,63d13e9a41e1c279a151bd4b,001,2024-06-30_07h43.26.387,empathy_intonation_perc,2024.1.4,Win32,60.24096386,,,,,,,,,,,,,,177,entodo,,,,,,504.5662,505.7988,0,1,0.6983,,0,141,141,176,1,pseudoword,0,REAL,FALSA
,,,,,,,,,63d13e9a41e1c279a151bd4b,001,2024-06-30_07h43.26.387,empathy_intonation_perc,2024.1.4,Win32,60.24096386,,,,,,,,,,,,,,180,pupica,,,,,,505.7991,506.7819,1,0,0.4552,,0,142,142,179,1,pseudoword,0,REAL,FALSA
,,,,,,,,,63d13e9a41e1c279a151bd4b,001,2024-06-30_07h43.26.387,empathy_intonation_perc,2024.1.4,Win32,60.24096386,,,,,,,,,,,,,,174,pabea,,,,,,506.7821,507.4986,1,0,0.1858,,0,143,143,173,1,pseudoword,0,REAL,FALSA
,,,,,,,,,63d13e9a41e1c279a151bd4b,001,2024-06-30_07h43.26.387,empathy_intonation_perc,2024.1.4,Win32,60.24096386,,,,,,,,,,,,,,77,suave,,,,,,507.4988,508.0989,0,1,0.0721,,0,144,144,76,1,non_cognate,1,REAL,FALSA
,,,,,,,,,63d13e9a41e1c279a151bd4b,001,2024-06-30_07h43.26.387,empathy_intonation_perc,2024.1.4,Win32,60.24096386,,,,,,,,,,,,,,45,total,,,,,,508.0993,508.7153,1,0,0.0869,,0,145,145,44,1,two_way_cognate,1,REAL,FALSA
,,,,,,,,,63d13e9a41e1c279a151bd4b,001,2024-06-30_07h43.26.387,empathy_intonation_perc,2024.1.4,Win32,60.24096386,,,,,,,,,,,,,,101,losco,,,,,,508.7156,509.632,1,0,0.3824,,0,146,146,100,1,pseudoword,0,REAL,FALSA
,,,,,,,,,63d13e9a41e1c279a151bd4b,001,2024-06-30_07h43.26.387,empathy_intonation_perc,2024.1.4,Win32,60.24096386,,,,,,,,,,,,,,14,aura,,,,,,509.6322,510.2486,1,0,0.0912,,0,147,147,13,1,three_way_cognate,1,REAL,FALSA
,,,,,,,,,63d13e9a41e1c279a151bd4b,001,2024-06-30_07h43.26.387,empathy_intonation_perc,2024.1.4,Win32,60.24096386,,,,,,,,,,,,,,133,conso,,,,,,510.2488,510.9155,1,0,0.1471,,0,148,148,132,1,pseudoword,0,REAL,FALSA
,,,,,,,,,63d13e9a41e1c279a151bd4b,001,2024-06-30_07h43.26.387,empathy_intonation_perc,2024.1.4,Win32,60.24096386,,,,,,,,,,,,,,27,piano,,,,,,510.9159,511.4823,1,0,0.033,,0,149,149,26,1,two_way_cognate,1,REAL,FALSA
,,,,,,,,,63d13e9a41e1c279a151bd4b,001,2024-06-30_07h43.26.387,empathy_intonation_perc,2024.1.4,Win32,60.24096386,,,,,,,,,,,,,,145,rúo,,,,,,511.4826,678.429,1,0,166.4123,,0,150,150,144,1,pseudoword,0,REAL,FALSA
,,,,,,,,,63d13e9a41e1c279a151bd4b,001,2024-06-30_07h43.26.387,empathy_intonation_perc,2024.1.4,Win32,60.24096386,,,,,,,,,,,,,,25,vigor,,,,,,678.4372,679.6954,1,0,0.7283,,0,151,151,24,1,two_way_cognate,1,REAL,FALSA
,,,,,,,,,63d13e9a41e1c279a151bd4b,001,2024-06-30_07h43.26.387,empathy_intonation_perc,2024.1.4,Win32,60.24096386,,,,,,,,,,,,,,134,molor,,,,,,679.6958,682.628,0,1,2.392,,0,152,152,133,1,pseudoword,0,REAL,FALSA
,,,,,,,,,63d13e9a41e1c279a151bd4b,001,2024-06-30_07h43.26.387,empathy_intonation_perc,2024.1.4,Win32,60.24096386,,,,,,,,,,,,,,175,tradía,,,,,,682.634,683.5449,1,0,0.375,,0,153,153,174,1,pseudoword,0,REAL,FALSA
,,,,,,,,,63d13e9a41e1c279a151bd4b,001,2024-06-30_07h43.26.387,empathy_intonation_perc,2024.1.4,Win32,60.24096386,,,,,,,,,,,,,,9,portal,,,,,,683.5456,684.2954,1,0,0.201,,0,154,154,8,1,three_way_cognate,1,REAL,FALSA
,,,,,,,,,63d13e9a41e1c279a151bd4b,001,2024-06-30_07h43.26.387,empathy_intonation_perc,2024.1.4,Win32,60.24096386,,,,,,,,,,,,,,73,llevar,,,,,,684.2957,684.8612,1,0,0.0177,,0,155,155,72,1,non_cognate,1,REAL,FALSA
,,,,,,,,,63d13e9a41e1c279a151bd4b,001,2024-06-30_07h43.26.387,empathy_intonation_perc,2024.1.4,Win32,60.24096386,,,,,,,,,,,,,,131,fuar,,,,,,684.8622,685.4619,1,0,0.0549,,0,156,156,130,1,pseudoword,0,REAL,FALSA
,,,,,,,,,63d13e9a41e1c279a151bd4b,001,2024-06-30_07h43.26.387,empathy_intonation_perc,2024.1.4,Win32,60.24096386,,,,,,,,,,,,,,20,trauma,,,,,,685.4624,686.0117,1,0,0.0054,,0,157,157,19,1,three_way_cognate,1,REAL,FALSA
,,,,,,,,,63d13e9a41e1c279a151bd4b,001,2024-06-30_07h43.26.387,empathy_intonation_perc,2024.1.4,Win32,60.24096386,,,,,,,,,,,,,,161,civas,,,,,,686.0123,686.7779,0,1,0.2275,,0,158,158,160,1,pseudoword,0,REAL,FALSA
,,,,,,,,,63d13e9a41e1c279a151bd4b,001,2024-06-30_07h43.26.387,empathy_intonation_perc,2024.1.4,Win32,60.24096386,,,,,,,,,,,,,,63,hilo,,,,,,686.7787,687.5959,1,0,0.2802,,0,159,159,62,1,non_cognate,1,REAL,FALSA
,,,,,,,,,63d13e9a41e1c279a151bd4b,001,2024-06-30_07h43.26.387,empathy_intonation_perc,2024.1.4,Win32,60.24096386,,,,,,,,,,,,,,106,diebro,,,,,,687.5961,688.1342,1,0,0.0006,,0,160,160,105,1,pseudoword,0,REAL,FALSA
,,,,,,,,,63d13e9a41e1c279a151bd4b,001,2024-06-30_07h43.26.387,empathy_intonation_perc,2024.1.4,Win32,60.24096386,,,,,,,,,,,,,,8,kilo,,,,,,688.1345,688.6951,1,0,0.0264,,0,161,161,7,1,three_way_cognate,1,REAL,FALSA
,,,,,,,,,63d13e9a41e1c279a151bd4b,001,2024-06-30_07h43.26.387,empathy_intonation_perc,2024.1.4,Win32,60.24096386,,,,,,,,,,,,,,72,rostro,,,,,,688.6956,689.3119,1,0,0.068,,0,162,162,71,1,non_cognate,1,REAL,FALSA
,,,,,,,,,63d13e9a41e1c279a151bd4b,001,2024-06-30_07h43.26.387,empathy_intonation_perc,2024.1.4,Win32,60.24096386,,,,,,,,,,,,,,112,samón,,,,,,689.3123,689.9614,1,0,0.1099,,0,163,163,111,1,pseudoword,0,REAL,FALSA
,,,,,,,,,63d13e9a41e1c279a151bd4b,001,2024-06-30_07h43.26.387,empathy_intonation_perc,2024.1.4,Win32,60.24096386,,,,,,,,,,,,,,61,aduana,,,,,,689.962,690.5941,1,0,0.0845,,0,164,164,60,1,non_cognate,1,REAL,FALSA
,,,,,,,,,63d13e9a41e1c279a151bd4b,001,2024-06-30_07h43.26.387,empathy_intonation_perc,2024.1.4,Win32,60.24096386,,,,,,,,,,,,,,22,mango,,,,,,690.5951,691.2113,1,0,0.0781,,0,165,165,21,1,three_way_cognate,1,REAL,FALSA
,,,,,,,,,63d13e9a41e1c279a151bd4b,001,2024-06-30_07h43.26.387,empathy_intonation_perc,2024.1.4,Win32,60.24096386,,,,,,,,,,,,,,148,gino,,,,,,691.2116,691.7948,0,1,0.0345,,0,166,166,147,1,pseudoword,0,REAL,FALSA
,,,,,,,,,63d13e9a41e1c279a151bd4b,001,2024-06-30_07h43.26.387,empathy_intonation_perc,2024.1.4,Win32,60.24096386,,,,,,,,,,,,,,189,medium,,,,,,691.7955,692.3942,1,0,0.0508,,0,167,167,188,1,pseudoword,0,REAL,FALSA
,,,,,,,,,63d13e9a41e1c279a151bd4b,001,2024-06-30_07h43.26.387,empathy_intonation_perc,2024.1.4,Win32,60.24096386,,,,,,,,,,,,,,94,forro,,,,,,692.3953,693.028,1,0,0.0915,,0,168,168,93,1,non_cognate,1,REAL,FALSA
,,,,,,,,,63d13e9a41e1c279a151bd4b,001,2024-06-30_07h43.26.387,empathy_intonation_perc,2024.1.4,Win32,60.24096386,,,,,,,,,,,,,,12,dogma,,,,,,693.0291,693.612,1,0,0.0409,,0,169,169,11,1,three_way_cognate,1,REAL,FALSA
,,,,,,,,,63d13e9a41e1c279a151bd4b,001,2024-06-30_07h43.26.387,empathy_intonation_perc,2024.1.4,Win32,60.24096386,,,,,,,,,,,,,,179,suelet,,,,,,693.6123,694.4779,1,0,0.3262,,0,170,170,178,1,pseudoword,0,REAL,FALSA
,,,,,,,,,63d13e9a41e1c279a151bd4b,001,2024-06-30_07h43.26.387,empathy_intonation_perc,2024.1.4,Win32,60.24096386,,,,,,,,,,,,,,96,caro,,,,,,694.4787,695.0162,0,1,0.0004,,0,171,171,95,1,non_cognate,1,REAL,FALSA
,,,,,,,,,63d13e9a41e1c279a151bd4b,001,2024-06-30_07h43.26.387,empathy_intonation_perc,2024.1.4,Win32,60.24096386,,,,,,,,,,,,,,40,pelvis,,,,,,695.0165,695.6168,1,0,0.0677,,0,172,172,39,1,two_way_cognate,1,REAL,FALSA
,,,,,,,,,63d13e9a41e1c279a151bd4b,001,2024-06-30_07h43.26.387,empathy_intonation_perc,2024.1.4,Win32,60.24096386,,,,,,,,,,,,,,19,mafia,,,,,,695.6171,696.4446,1,0,0.2873,,0,173,173,18,1,three_way_cognate,1,REAL,FALSA
,,,,,,,,,63d13e9a41e1c279a151bd4b,001,2024-06-30_07h43.26.387,empathy_intonation_perc,2024.1.4,Win32,60.24096386,,,,,,,,,,,,,,1,moral,,,,,,696.4452,697.0286,1,0,0.0371,,0,174,174,0,1,three_way_cognate,1,REAL,FALSA
,,,,,,,,,63d13e9a41e1c279a151bd4b,001,2024-06-30_07h43.26.387,empathy_intonation_perc,2024.1.4,Win32,60.24096386,,,,,,,,,,,,,,144,diroco,,,,,,697.0292,697.649,1,0,0.1,,0,175,175,143,1,pseudoword,0,REAL,FALSA
,,,,,,,,,63d13e9a41e1c279a151bd4b,001,2024-06-30_07h43.26.387,empathy_intonation_perc,2024.1.4,Win32,60.24096386,,,,,,,,,,,,,,158,babrá,,,,,,697.6493,698.7946,0,1,0.6067,,0,176,176,157,1,pseudoword,0,REAL,FALSA
,,,,,,,,,63d13e9a41e1c279a151bd4b,001,2024-06-30_07h43.26.387,empathy_intonation_perc,2024.1.4,Win32,60.24096386,,,,,,,,,,,,,,55,maldad,,,,,,698.7952,700.045,0,1,0.7052,,0,177,177,54,1,non_cognate,1,REAL,FALSA
,,,,,,,,,63d13e9a41e1c279a151bd4b,001,2024-06-30_07h43.26.387,empathy_intonation_perc,2024.1.4,Win32,60.24096386,,,,,,,,,,,,,,58,colcha,,,,,,700.0453,701.0003,0,1,0.4343,,0,178,178,57,1,non_cognate,1,REAL,FALSA
,,,,,,,,,63d13e9a41e1c279a151bd4b,001,2024-06-30_07h43.26.387,empathy_intonation_perc,2024.1.4,Win32,60.24096386,,,,,,,,,,,,,,185,aljizo,,,,,,701.0005,702.0105,0,1,0.4766,,0,179,179,184,1,pseudoword,0,REAL,FALSA
,,,,,,,,,63d13e9a41e1c279a151bd4b,001,2024-06-30_07h43.26.387,empathy_intonation_perc,2024.1.4,Win32,60.24096386,,,,,,,,,,,,,,110,densó,,,,,,702.0116,702.9114,0,1,0.3598,,0,180,180,109,1,pseudoword,0,REAL,FALSA
,,,,,,,,,63d13e9a41e1c279a151bd4b,001,2024-06-30_07h43.26.387,empathy_intonation_perc,2024.1.4,Win32,60.24096386,,,,,,,,,,,,,,3,disco,,,,,,702.9122,703.7779,0,1,0.3174,,0,181,181,2,1,three_way_cognate,1,REAL,FALSA
,,,,,,,,,63d13e9a41e1c279a151bd4b,001,2024-06-30_07h43.26.387,empathy_intonation_perc,2024.1.4,Win32,60.24096386,,,,,,,,,,,,,,128,pelí,,,,,,703.7784,704.5605,1,0,0.2363,,0,182,182,127,1,pseudoword,0,REAL,FALSA
,,,,,,,,,63d13e9a41e1c279a151bd4b,001,2024-06-30_07h43.26.387,empathy_intonation_perc,2024.1.4,Win32,60.24096386,,,,,,,,,,,,,,18,altar,,,,,,704.5615,705.2117,1,0,0.1099,,0,183,183,17,1,three_way_cognate,1,REAL,FALSA
,,,,,,,,,63d13e9a41e1c279a151bd4b,001,2024-06-30_07h43.26.387,empathy_intonation_perc,2024.1.4,Win32,60.24096386,,,,,,,,,,,,,,176,gripar,,,,,,705.2123,705.8282,1,0,0.0715,,0,184,184,175,1,pseudoword,0,REAL,FALSA
,,,,,,,,,63d13e9a41e1c279a151bd4b,001,2024-06-30_07h43.26.387,empathy_intonation_perc,2024.1.4,Win32,60.24096386,,,,,,,,,,,,,,167,dobbo,,,,,,705.8286,706.5282,1,0,0.1623,,0,185,185,166,1,pseudoword,0,REAL,FALSA
,,,,,,,,,63d13e9a41e1c279a151bd4b,001,2024-06-30_07h43.26.387,empathy_intonation_perc,2024.1.4,Win32,60.24096386,,,,,,,,,,,,,,4,flora,,,,,,706.5287,707.6612,1,0,0.5907,,0,186,186,3,1,three_way_cognate,1,REAL,FALSA
,,,,,,,,,63d13e9a41e1c279a151bd4b,001,2024-06-30_07h43.26.387,empathy_intonation_perc,2024.1.4,Win32,60.24096386,,,,,,,,,,,,,,135,panté,,,,,,707.6617,708.2612,1,0,0.0516,,0,187,187,134,1,pseudoword,0,REAL,FALSA
,,,,,,,,,63d13e9a41e1c279a151bd4b,001,2024-06-30_07h43.26.387,empathy_intonation_perc,2024.1.4,Win32,60.24096386,,,,,,,,,,,,,,102,coyo,,,,,,708.2618,708.8279,1,0,0.0223,,0,188,188,101,1,pseudoword,0,REAL,FALSA
,,,,,,,,,63d13e9a41e1c279a151bd4b,001,2024-06-30_07h43.26.387,empathy_intonation_perc,2024.1.4,Win32,60.24096386,,,,,,,,,,,,,,53,punta,,,,,,708.8285,709.8112,0,1,0.4345,,0,189,189,52,1,non_cognate,1,REAL,FALSA
,,,,,,,,,63d13e9a41e1c279a151bd4b,001,2024-06-30_07h43.26.387,empathy_intonation_perc,2024.1.4,Win32,60.24096386,,,,,,,,,,,,,,60,siglo,,,,,,709.8118,710.3939,1,0,0.0401,,0,190,190,59,1,non_cognate,1,REAL,FALSA
,,,,,,,,,63d13e9a41e1c279a151bd4b,001,2024-06-30_07h43.26.387,empathy_intonation_perc,2024.1.4,Win32,60.24096386,,,,,,,,,,,,,,187,nomata,,,,,,710.3951,711.0442,1,0,0.1096,,0,191,191,186,1,pseudoword,0,REAL,FALSA
