lextale_instructions.started,lextale_instructions.stopped,lextale_instructions_loop.thisRepN,lextale_instructions_loop.thisTrialN,lextale_instructions_loop.thisN,lextale_instructions_loop.thisIndex,lextale_instructions_loop.ran,instructions_text,continue_text,participant,session,date,expName,psychopyVersion,OS,frameRate,lextale_practice.started,lextale_practice.stopped,key_resp_lextale_practice.keys,key_resp_lextale_practice.corr,key_resp_lextale_practice.rt,key_resp_lextale_practice.duration,lextale_practice_feedback.started,lextale_practice_feedback.stopped,lextale_practice_trials.thisRepN,lextale_practice_trials.thisTrialN,lextale_practice_trials.thisN,lextale_practice_trials.thisIndex,lextale_practice_trials.ran,stim,word,correct_response,prac_button_real,prac_button_false,lextale_check.started,lextale_check.stopped,lextale_trial.started,lextale_trial.stopped,key_resp_lextale_trial.keys,key_resp_lextale_trial.corr,key_resp_lextale_trial.rt,key_resp_lextale_trial.duration,lextail_trials.thisRepN,lextail_trials.thisTrialN,lextail_trials.thisN,lextail_trials.thisIndex,lextail_trials.ran,type,correct_reponse,button_real,button_false
0.0018,0.9988,0,0,0,0,1,"Este es un test de vocabulario en español. 
  
  A continuación vas a ver 90 secuencias de letras que parecen 'españolas'.
  
  Solo algunas de ellas son palabras de verdad.",(presiona la barra espaciadora para continuar),646f8a859c69c3cb1d5f08c8,001,2024-06-30_07h33.37.554,empathy_intonation_perc,2024.1.4,Win32,59.88023952,,,,,,,,,,,,,,,,,,,,,,,,,,,,,,,,,,,
0.9991,5.8489,0,1,1,1,1,"Por favor, señala las palabras que tú conoces (aquellas que estás convencido que son palabras españolas, incluso aunque no seas capaz de dar el significado preciso).",(presiona la barra espaciadora para continuar),646f8a859c69c3cb1d5f08c8,001,2024-06-30_07h33.37.554,empathy_intonation_perc,2024.1.4,Win32,59.88023952,,,,,,,,,,,,,,,,,,,,,,,,,,,,,,,,,,,
5.8597,8.4819,0,2,2,2,1,Pero cuidado: los errores se penalizan. Por eso no tiene sentido tratar de incrementar tu puntuación marcando como reales palabras que nunca has visto.,(presiona la barra espaciadora para continuar),646f8a859c69c3cb1d5f08c8,001,2024-06-30_07h33.37.554,empathy_intonation_perc,2024.1.4,Win32,59.88023952,,,,,,,,,,,,,,,,,,,,,,,,,,,,,,,,,,,
8.4821,19.0311,0,3,3,3,1,"Presiona la tecla 1 si piensas que es una palabra real y la tecla 
  0 si piensas que es una palabra falsa. 
  
  Vamos a practicar un poco...",(presiona la barra espaciadora para continuar),646f8a859c69c3cb1d5f08c8,001,2024-06-30_07h33.37.554,empathy_intonation_perc,2024.1.4,Win32,59.88023952,,,,,,,,,,,,,,,,,,,,,,,,,,,,,,,,,,,
,,,,,,,,,646f8a859c69c3cb1d5f08c8,001,2024-06-30_07h33.37.554,empathy_intonation_perc,2024.1.4,Win32,59.88023952,19.038,21.631,0,1,2.0688,,21.631,22.631,0,0,0,0,1,0,depiste,0,REAL,FALSA,,,,,,,,,,,,,,,,,
,,,,,,,,,646f8a859c69c3cb1d5f08c8,001,2024-06-30_07h33.37.554,empathy_intonation_perc,2024.1.4,Win32,59.88023952,22.6311,24.081,1,1,0.9217,,24.081,25.081,0,1,1,1,1,0,sí,1,REAL,FALSA,,,,,,,,,,,,,,,,,
,,,,,,,,,646f8a859c69c3cb1d5f08c8,001,2024-06-30_07h33.37.554,empathy_intonation_perc,2024.1.4,Win32,59.88023952,25.0881,26.9474,1,0,1.3315,,26.9474,27.9474,0,2,2,2,1,0,coné,0,REAL,FALSA,,,,,,,,,,,,,,,,,
,,,,,,,,,646f8a859c69c3cb1d5f08c8,001,2024-06-30_07h33.37.554,empathy_intonation_perc,2024.1.4,Win32,59.88023952,27.9479,29.2305,0,1,0.7505,,29.2306,30.2305,0,3,3,3,1,0,calpar,0,REAL,FALSA,,,,,,,,,,,,,,,,,
,,,,,,,,,646f8a859c69c3cb1d5f08c8,001,2024-06-30_07h33.37.554,empathy_intonation_perc,2024.1.4,Win32,59.88023952,30.2307,31.5801,0,1,0.8228,,31.5802,32.5802,0,4,4,4,1,0,joten,0,REAL,FALSA,,,,,,,,,,,,,,,,,
,,,,,,,,,646f8a859c69c3cb1d5f08c8,001,2024-06-30_07h33.37.554,empathy_intonation_perc,2024.1.4,Win32,59.88023952,32.5804,33.9969,1,1,0.8852,,33.9969,34.9971,0,5,5,5,1,0,sacapuntas,1,REAL,FALSA,,,,,,,,,,,,,,,,,
,,,,,,,,,646f8a859c69c3cb1d5f08c8,001,2024-06-30_07h33.37.554,empathy_intonation_perc,2024.1.4,Win32,59.88023952,34.9974,36.2803,0,1,0.7472,,36.2804,37.2802,0,6,6,6,1,0,priba,0,REAL,FALSA,,,,,,,,,,,,,,,,,
,,,,,,,,,646f8a859c69c3cb1d5f08c8,001,2024-06-30_07h33.37.554,empathy_intonation_perc,2024.1.4,Win32,59.88023952,37.2879,38.5802,0,1,0.7741,,38.5803,39.5801,0,7,7,7,1,0,pelasula,0,REAL,FALSA,,,,,,,,,,,,,,,,,
,,,,,,,,,646f8a859c69c3cb1d5f08c8,001,2024-06-30_07h33.37.554,empathy_intonation_perc,2024.1.4,Win32,59.88023952,39.5805,40.7132,1,1,0.6054,,40.7132,41.7132,0,8,8,8,1,0,bien,1,REAL,FALSA,,,,,,,,,,,,,,,,,
,,,,,,,,,646f8a859c69c3cb1d5f08c8,001,2024-06-30_07h33.37.554,empathy_intonation_perc,2024.1.4,Win32,59.88023952,41.7136,42.8466,1,1,0.5984,,42.8466,43.8464,0,9,9,9,1,0,casa,1,REAL,FALSA,,,,,,,,,,,,,,,,,
,,,,,,,,,646f8a859c69c3cb1d5f08c8,001,2024-06-30_07h33.37.554,empathy_intonation_perc,2024.1.4,Win32,59.88023952,43.8466,45.0463,0,1,0.6642,,45.0463,46.0462,0,10,10,10,1,0,lejo,0,REAL,FALSA,,,,,,,,,,,,,,,,,
,,,,,,,,,646f8a859c69c3cb1d5f08c8,001,2024-06-30_07h33.37.554,empathy_intonation_perc,2024.1.4,Win32,59.88023952,46.0465,47.2964,1,0,0.7234,,47.2964,48.2962,0,11,11,11,1,0,pretantas,0,REAL,FALSA,,,,,,,,,,,,,,,,,
,,,,,,,,,646f8a859c69c3cb1d5f08c8,001,2024-06-30_07h33.37.554,empathy_intonation_perc,2024.1.4,Win32,59.88023952,,,,,,,,,,,,,,,,,,,48.2964,49.2793,,,,,,,,,,,,,,,
,,,,,,,,,646f8a859c69c3cb1d5f08c8,001,2024-06-30_07h33.37.554,empathy_intonation_perc,2024.1.4,Win32,59.88023952,,,,,,,,,,,,,,171,gotro,,,,,,49.2885,50.7472,0,1,0.9308,,0,0,0,170,1,pseudoword,0,REAL,FALSA
,,,,,,,,,646f8a859c69c3cb1d5f08c8,001,2024-06-30_07h33.37.554,empathy_intonation_perc,2024.1.4,Win32,59.88023952,,,,,,,,,,,,,,184,huenos,,,,,,50.7475,52.0625,1,0,0.7903,,0,1,1,183,1,pseudoword,0,REAL,FALSA
,,,,,,,,,646f8a859c69c3cb1d5f08c8,001,2024-06-30_07h33.37.554,empathy_intonation_perc,2024.1.4,Win32,59.88023952,,,,,,,,,,,,,,111,monue,,,,,,52.0627,53.4123,1,0,0.8208,,0,2,2,110,1,pseudoword,0,REAL,FALSA
,,,,,,,,,646f8a859c69c3cb1d5f08c8,001,2024-06-30_07h33.37.554,empathy_intonation_perc,2024.1.4,Win32,59.88023952,,,,,,,,,,,,,,54,tapón,,,,,,53.4124,54.4793,1,0,0.5479,,0,3,3,53,1,non_cognate,1,REAL,FALSA
,,,,,,,,,646f8a859c69c3cb1d5f08c8,001,2024-06-30_07h33.37.554,empathy_intonation_perc,2024.1.4,Win32,59.88023952,,,,,,,,,,,,,,135,panté,,,,,,54.4795,55.7458,0,1,0.7376,,0,4,4,134,1,pseudoword,0,REAL,FALSA
,,,,,,,,,646f8a859c69c3cb1d5f08c8,001,2024-06-30_07h33.37.554,empathy_intonation_perc,2024.1.4,Win32,59.88023952,,,,,,,,,,,,,,118,bará,,,,,,55.7461,57.196,1,0,0.9174,,0,5,5,117,1,pseudoword,0,REAL,FALSA
,,,,,,,,,646f8a859c69c3cb1d5f08c8,001,2024-06-30_07h33.37.554,empathy_intonation_perc,2024.1.4,Win32,59.88023952,,,,,,,,,,,,,,163,olzan,,,,,,57.1963,58.3954,0,1,0.6697,,0,6,6,162,1,pseudoword,0,REAL,FALSA
,,,,,,,,,646f8a859c69c3cb1d5f08c8,001,2024-06-30_07h33.37.554,empathy_intonation_perc,2024.1.4,Win32,59.88023952,,,,,,,,,,,,,,48,pelvis,,,,,,58.3956,59.529,1,0,0.6017,,0,7,7,47,1,two_way_cognate,1,REAL,FALSA
,,,,,,,,,646f8a859c69c3cb1d5f08c8,001,2024-06-30_07h33.37.554,empathy_intonation_perc,2024.1.4,Win32,59.88023952,,,,,,,,,,,,,,136,hueas,,,,,,59.5293,60.8619,1,0,0.8027,,0,8,8,135,1,pseudoword,0,REAL,FALSA
,,,,,,,,,646f8a859c69c3cb1d5f08c8,001,2024-06-30_07h33.37.554,empathy_intonation_perc,2024.1.4,Win32,59.88023952,,,,,,,,,,,,,,167,dobbo,,,,,,60.8621,62.2118,0,1,0.8255,,0,9,9,166,1,pseudoword,0,REAL,FALSA
,,,,,,,,,646f8a859c69c3cb1d5f08c8,001,2024-06-30_07h33.37.554,empathy_intonation_perc,2024.1.4,Win32,59.88023952,,,,,,,,,,,,,,77,suave,,,,,,62.212,63.4119,1,0,0.6901,,0,10,10,76,1,non_cognate,1,REAL,FALSA
,,,,,,,,,646f8a859c69c3cb1d5f08c8,001,2024-06-30_07h33.37.554,empathy_intonation_perc,2024.1.4,Win32,59.88023952,,,,,,,,,,,,,,149,emén,,,,,,63.4121,64.6953,0,1,0.7512,,0,11,11,148,1,pseudoword,0,REAL,FALSA
,,,,,,,,,646f8a859c69c3cb1d5f08c8,001,2024-06-30_07h33.37.554,empathy_intonation_perc,2024.1.4,Win32,59.88023952,,,,,,,,,,,,,,14,aura,,,,,,64.6955,65.8453,1,0,0.6188,,0,12,12,13,1,three_way_cognate,1,REAL,FALSA
,,,,,,,,,646f8a859c69c3cb1d5f08c8,001,2024-06-30_07h33.37.554,empathy_intonation_perc,2024.1.4,Win32,59.88023952,,,,,,,,,,,,,,105,leniz,,,,,,65.8456,67.0454,0,1,0.6765,,0,13,13,104,1,pseudoword,0,REAL,FALSA
,,,,,,,,,646f8a859c69c3cb1d5f08c8,001,2024-06-30_07h33.37.554,empathy_intonation_perc,2024.1.4,Win32,59.88023952,,,,,,,,,,,,,,69,tiza,,,,,,67.0457,68.4115,0,1,0.8426,,0,14,14,68,1,non_cognate,1,REAL,FALSA
,,,,,,,,,646f8a859c69c3cb1d5f08c8,001,2024-06-30_07h33.37.554,empathy_intonation_perc,2024.1.4,Win32,59.88023952,,,,,,,,,,,,,,47,color,,,,,,68.4117,69.4448,1,0,0.5204,,0,15,15,46,1,two_way_cognate,1,REAL,FALSA
,,,,,,,,,646f8a859c69c3cb1d5f08c8,001,2024-06-30_07h33.37.554,empathy_intonation_perc,2024.1.4,Win32,59.88023952,,,,,,,,,,,,,,19,mafia,,,,,,69.445,70.595,1,0,0.64,,0,16,16,18,1,three_way_cognate,1,REAL,FALSA
,,,,,,,,,646f8a859c69c3cb1d5f08c8,001,2024-06-30_07h33.37.554,empathy_intonation_perc,2024.1.4,Win32,59.88023952,,,,,,,,,,,,,,57,regalo,,,,,,70.5953,72.0614,1,0,0.9352,,0,17,17,56,1,non_cognate,1,REAL,FALSA
,,,,,,,,,646f8a859c69c3cb1d5f08c8,001,2024-06-30_07h33.37.554,empathy_intonation_perc,2024.1.4,Win32,59.88023952,,,,,,,,,,,,,,82,brillo,,,,,,72.0617,73.1782,1,0,0.5835,,0,18,18,81,1,non_cognate,1,REAL,FALSA
,,,,,,,,,646f8a859c69c3cb1d5f08c8,001,2024-06-30_07h33.37.554,empathy_intonation_perc,2024.1.4,Win32,59.88023952,,,,,,,,,,,,,,1,moral,,,,,,73.1785,74.4278,1,0,0.719,,0,19,19,0,1,three_way_cognate,1,REAL,FALSA
,,,,,,,,,646f8a859c69c3cb1d5f08c8,001,2024-06-30_07h33.37.554,empathy_intonation_perc,2024.1.4,Win32,59.88023952,,,,,,,,,,,,,,192,próces,,,,,,74.428,75.7447,0,1,0.7841,,0,20,20,191,1,pseudoword,0,REAL,FALSA
,,,,,,,,,646f8a859c69c3cb1d5f08c8,001,2024-06-30_07h33.37.554,empathy_intonation_perc,2024.1.4,Win32,59.88023952,,,,,,,,,,,,,,64,rizado,,,,,,75.7451,77.0943,0,1,0.8145,,0,21,21,63,1,non_cognate,1,REAL,FALSA
,,,,,,,,,646f8a859c69c3cb1d5f08c8,001,2024-06-30_07h33.37.554,empathy_intonation_perc,2024.1.4,Win32,59.88023952,,,,,,,,,,,,,,87,muleta,,,,,,77.0945,78.1445,1,0,0.5396,,0,22,22,86,1,non_cognate,1,REAL,FALSA
,,,,,,,,,646f8a859c69c3cb1d5f08c8,001,2024-06-30_07h33.37.554,empathy_intonation_perc,2024.1.4,Win32,59.88023952,,,,,,,,,,,,,,76,chocar,,,,,,78.1446,79.3612,1,0,0.6815,,0,23,23,75,1,non_cognate,1,REAL,FALSA
,,,,,,,,,646f8a859c69c3cb1d5f08c8,001,2024-06-30_07h33.37.554,empathy_intonation_perc,2024.1.4,Win32,59.88023952,,,,,,,,,,,,,,123,arane,,,,,,79.3614,80.5944,0,1,0.6972,,0,24,24,122,1,pseudoword,0,REAL,FALSA
,,,,,,,,,646f8a859c69c3cb1d5f08c8,001,2024-06-30_07h33.37.554,empathy_intonation_perc,2024.1.4,Win32,59.88023952,,,,,,,,,,,,,,23,plural,,,,,,80.5946,81.711,1,0,0.5802,,0,25,25,22,1,three_way_cognate,1,REAL,FALSA
,,,,,,,,,646f8a859c69c3cb1d5f08c8,001,2024-06-30_07h33.37.554,empathy_intonation_perc,2024.1.4,Win32,59.88023952,,,,,,,,,,,,,,89,muñeca,,,,,,81.7112,82.9443,1,0,0.6992,,0,26,26,88,1,non_cognate,1,REAL,FALSA
,,,,,,,,,646f8a859c69c3cb1d5f08c8,001,2024-06-30_07h33.37.554,empathy_intonation_perc,2024.1.4,Win32,59.88023952,,,,,,,,,,,,,,78,rendir,,,,,,82.9446,84.3606,1,0,0.8913,,0,27,27,77,1,non_cognate,1,REAL,FALSA
,,,,,,,,,646f8a859c69c3cb1d5f08c8,001,2024-06-30_07h33.37.554,empathy_intonation_perc,2024.1.4,Win32,59.88023952,,,,,,,,,,,,,,175,tradía,,,,,,84.361,85.9607,1,0,1.07,,0,28,28,174,1,pseudoword,0,REAL,FALSA
,,,,,,,,,646f8a859c69c3cb1d5f08c8,001,2024-06-30_07h33.37.554,empathy_intonation_perc,2024.1.4,Win32,59.88023952,,,,,,,,,,,,,,40,pelvis,,,,,,85.961,87.194,1,0,0.7046,,0,29,29,39,1,two_way_cognate,1,REAL,FALSA
,,,,,,,,,646f8a859c69c3cb1d5f08c8,001,2024-06-30_07h33.37.554,empathy_intonation_perc,2024.1.4,Win32,59.88023952,,,,,,,,,,,,,,104,estulo,,,,,,87.1944,88.5439,1,0,0.8224,,0,30,30,103,1,pseudoword,0,REAL,FALSA
,,,,,,,,,646f8a859c69c3cb1d5f08c8,001,2024-06-30_07h33.37.554,empathy_intonation_perc,2024.1.4,Win32,59.88023952,,,,,,,,,,,,,,74,ala,,,,,,88.5443,89.777,0,1,0.6993,,0,31,31,73,1,non_cognate,1,REAL,FALSA
,,,,,,,,,646f8a859c69c3cb1d5f08c8,001,2024-06-30_07h33.37.554,empathy_intonation_perc,2024.1.4,Win32,59.88023952,,,,,,,,,,,,,,67,llamar,,,,,,89.7773,91.0772,1,0,0.767,,0,32,32,66,1,non_cognate,1,REAL,FALSA
,,,,,,,,,646f8a859c69c3cb1d5f08c8,001,2024-06-30_07h33.37.554,empathy_intonation_perc,2024.1.4,Win32,59.88023952,,,,,,,,,,,,,,37,torso,,,,,,91.0776,92.3604,1,0,0.7484,,0,33,33,36,1,two_way_cognate,1,REAL,FALSA
,,,,,,,,,646f8a859c69c3cb1d5f08c8,001,2024-06-30_07h33.37.554,empathy_intonation_perc,2024.1.4,Win32,59.88023952,,,,,,,,,,,,,,168,cobén,,,,,,92.3606,93.5773,0,1,0.6897,,0,34,34,167,1,pseudoword,0,REAL,FALSA
,,,,,,,,,646f8a859c69c3cb1d5f08c8,001,2024-06-30_07h33.37.554,empathy_intonation_perc,2024.1.4,Win32,59.88023952,,,,,,,,,,,,,,91,equipo,,,,,,93.5777,95.0768,1,0,0.9676,,0,35,35,90,1,non_cognate,1,REAL,FALSA
,,,,,,,,,646f8a859c69c3cb1d5f08c8,001,2024-06-30_07h33.37.554,empathy_intonation_perc,2024.1.4,Win32,59.88023952,,,,,,,,,,,,,,130,dubo,,,,,,95.0772,96.46,0,1,0.8482,,0,36,36,129,1,pseudoword,0,REAL,FALSA
,,,,,,,,,646f8a859c69c3cb1d5f08c8,001,2024-06-30_07h33.37.554,empathy_intonation_perc,2024.1.4,Win32,59.88023952,,,,,,,,,,,,,,155,kugis,,,,,,96.4601,97.91,0,1,0.9245,,0,37,37,154,1,pseudoword,0,REAL,FALSA
,,,,,,,,,646f8a859c69c3cb1d5f08c8,001,2024-06-30_07h33.37.554,empathy_intonation_perc,2024.1.4,Win32,59.88023952,,,,,,,,,,,,,,120,mauja,,,,,,97.9102,99.6266,0,1,1.1857,,0,38,38,119,1,pseudoword,0,REAL,FALSA
,,,,,,,,,646f8a859c69c3cb1d5f08c8,001,2024-06-30_07h33.37.554,empathy_intonation_perc,2024.1.4,Win32,59.88023952,,,,,,,,,,,,,,159,trcia,,,,,,99.6268,100.927,0,1,0.7651,,0,39,39,158,1,pseudoword,0,REAL,FALSA
,,,,,,,,,646f8a859c69c3cb1d5f08c8,001,2024-06-30_07h33.37.554,empathy_intonation_perc,2024.1.4,Win32,59.88023952,,,,,,,,,,,,,,93,tapa,,,,,,100.9274,102.1271,1,0,0.6514,,0,40,40,92,1,non_cognate,1,REAL,FALSA
,,,,,,,,,646f8a859c69c3cb1d5f08c8,001,2024-06-30_07h33.37.554,empathy_intonation_perc,2024.1.4,Win32,59.88023952,,,,,,,,,,,,,,177,entodo,,,,,,102.1277,103.9099,1,0,1.2362,,0,41,41,176,1,pseudoword,0,REAL,FALSA
,,,,,,,,,646f8a859c69c3cb1d5f08c8,001,2024-06-30_07h33.37.554,empathy_intonation_perc,2024.1.4,Win32,59.88023952,,,,,,,,,,,,,,46,mortal,,,,,,103.9105,105.1597,1,0,0.7255,,0,42,42,45,1,two_way_cognate,1,REAL,FALSA
,,,,,,,,,646f8a859c69c3cb1d5f08c8,001,2024-06-30_07h33.37.554,empathy_intonation_perc,2024.1.4,Win32,59.88023952,,,,,,,,,,,,,,102,coyo,,,,,,105.1603,106.46,0,1,0.7561,,0,43,43,101,1,pseudoword,0,REAL,FALSA
,,,,,,,,,646f8a859c69c3cb1d5f08c8,001,2024-06-30_07h33.37.554,empathy_intonation_perc,2024.1.4,Win32,59.88023952,,,,,,,,,,,,,,97,nocita,,,,,,106.4603,107.8429,1,0,0.8392,,0,44,44,96,1,pseudoword,0,REAL,FALSA
,,,,,,,,,646f8a859c69c3cb1d5f08c8,001,2024-06-30_07h33.37.554,empathy_intonation_perc,2024.1.4,Win32,59.88023952,,,,,,,,,,,,,,63,hilo,,,,,,107.8435,109.1098,1,0,0.7193,,0,45,45,62,1,non_cognate,1,REAL,FALSA
,,,,,,,,,646f8a859c69c3cb1d5f08c8,001,2024-06-30_07h33.37.554,empathy_intonation_perc,2024.1.4,Win32,59.88023952,,,,,,,,,,,,,,51,listo,,,,,,109.1104,110.5763,1,0,0.9173,,0,46,46,50,1,non_cognate,1,REAL,FALSA
,,,,,,,,,646f8a859c69c3cb1d5f08c8,001,2024-06-30_07h33.37.554,empathy_intonation_perc,2024.1.4,Win32,59.88023952,,,,,,,,,,,,,,145,rúo,,,,,,110.5767,112.0093,1,0,0.888,,0,47,47,144,1,pseudoword,0,REAL,FALSA
,,,,,,,,,646f8a859c69c3cb1d5f08c8,001,2024-06-30_07h33.37.554,empathy_intonation_perc,2024.1.4,Win32,59.88023952,,,,,,,,,,,,,,138,tator,,,,,,112.01,113.2927,0,1,0.7389,,0,48,48,137,1,pseudoword,0,REAL,FALSA
,,,,,,,,,646f8a859c69c3cb1d5f08c8,001,2024-06-30_07h33.37.554,empathy_intonation_perc,2024.1.4,Win32,59.88023952,,,,,,,,,,,,,,30,fiscal,,,,,,113.2932,114.5095,1,0,0.6691,,0,49,49,29,1,two_way_cognate,1,REAL,FALSA
,,,,,,,,,646f8a859c69c3cb1d5f08c8,001,2024-06-30_07h33.37.554,empathy_intonation_perc,2024.1.4,Win32,59.88023952,,,,,,,,,,,,,,153,golla,,,,,,114.5101,116.2086,0,1,1.1615,,0,50,50,152,1,pseudoword,0,REAL,FALSA
,,,,,,,,,646f8a859c69c3cb1d5f08c8,001,2024-06-30_07h33.37.554,empathy_intonation_perc,2024.1.4,Win32,59.88023952,,,,,,,,,,,,,,191,frasis,,,,,,116.2092,117.2926,1,0,0.539,,0,51,51,190,1,pseudoword,0,REAL,FALSA
,,,,,,,,,646f8a859c69c3cb1d5f08c8,001,2024-06-30_07h33.37.554,empathy_intonation_perc,2024.1.4,Win32,59.88023952,,,,,,,,,,,,,,62,pegar,,,,,,117.2929,118.5926,1,0,0.751,,0,52,52,61,1,non_cognate,1,REAL,FALSA
,,,,,,,,,646f8a859c69c3cb1d5f08c8,001,2024-06-30_07h33.37.554,empathy_intonation_perc,2024.1.4,Win32,59.88023952,,,,,,,,,,,,,,17,clan,,,,,,118.5931,119.6758,1,0,0.5408,,0,53,53,16,1,three_way_cognate,1,REAL,FALSA
,,,,,,,,,646f8a859c69c3cb1d5f08c8,001,2024-06-30_07h33.37.554,empathy_intonation_perc,2024.1.4,Win32,59.88023952,,,,,,,,,,,,,,147,alla,,,,,,119.6763,120.8759,0,1,0.6571,,0,54,54,146,1,pseudoword,0,REAL,FALSA
,,,,,,,,,646f8a859c69c3cb1d5f08c8,001,2024-06-30_07h33.37.554,empathy_intonation_perc,2024.1.4,Win32,59.88023952,,,,,,,,,,,,,,73,llevar,,,,,,120.8763,121.9424,1,0,0.526,,0,55,55,72,1,non_cognate,1,REAL,FALSA
,,,,,,,,,646f8a859c69c3cb1d5f08c8,001,2024-06-30_07h33.37.554,empathy_intonation_perc,2024.1.4,Win32,59.88023952,,,,,,,,,,,,,,152,prave,,,,,,121.9429,123.309,0,1,0.8207,,0,56,56,151,1,pseudoword,0,REAL,FALSA
,,,,,,,,,646f8a859c69c3cb1d5f08c8,001,2024-06-30_07h33.37.554,empathy_intonation_perc,2024.1.4,Win32,59.88023952,,,,,,,,,,,,,,181,gravés,,,,,,123.3095,124.7755,1,0,0.9192,,0,57,57,180,1,pseudoword,0,REAL,FALSA
,,,,,,,,,646f8a859c69c3cb1d5f08c8,001,2024-06-30_07h33.37.554,empathy_intonation_perc,2024.1.4,Win32,59.88023952,,,,,,,,,,,,,,119,esís,,,,,,124.7761,126.0589,0,1,0.7415,,0,58,58,118,1,pseudoword,0,REAL,FALSA
,,,,,,,,,646f8a859c69c3cb1d5f08c8,001,2024-06-30_07h33.37.554,empathy_intonation_perc,2024.1.4,Win32,59.88023952,,,,,,,,,,,,,,160,fomeó,,,,,,126.0595,127.5084,1,0,0.9019,,0,59,59,159,1,pseudoword,0,REAL,FALSA
,,,,,,,,,646f8a859c69c3cb1d5f08c8,001,2024-06-30_07h33.37.554,empathy_intonation_perc,2024.1.4,Win32,59.88023952,,,,,,,,,,,,,,56,pico,,,,,,127.5091,128.692,1,0,0.6362,,0,60,60,55,1,non_cognate,1,REAL,FALSA
,,,,,,,,,646f8a859c69c3cb1d5f08c8,001,2024-06-30_07h33.37.554,empathy_intonation_perc,2024.1.4,Win32,59.88023952,,,,,,,,,,,,,,85,enorme,,,,,,128.6925,130.142,1,0,0.9007,,0,61,61,84,1,non_cognate,1,REAL,FALSA
,,,,,,,,,646f8a859c69c3cb1d5f08c8,001,2024-06-30_07h33.37.554,empathy_intonation_perc,2024.1.4,Win32,59.88023952,,,,,,,,,,,,,,169,pitis,,,,,,130.1424,131.3255,0,1,0.634,,0,62,62,168,1,pseudoword,0,REAL,FALSA
,,,,,,,,,646f8a859c69c3cb1d5f08c8,001,2024-06-30_07h33.37.554,empathy_intonation_perc,2024.1.4,Win32,59.88023952,,,,,,,,,,,,,,180,pupica,,,,,,131.326,132.6087,0,1,0.7391,,0,63,63,179,1,pseudoword,0,REAL,FALSA
,,,,,,,,,646f8a859c69c3cb1d5f08c8,001,2024-06-30_07h33.37.554,empathy_intonation_perc,2024.1.4,Win32,59.88023952,,,,,,,,,,,,,,109,laras,,,,,,132.6092,133.9917,0,1,0.8372,,0,64,64,108,1,pseudoword,0,REAL,FALSA
,,,,,,,,,646f8a859c69c3cb1d5f08c8,001,2024-06-30_07h33.37.554,empathy_intonation_perc,2024.1.4,Win32,59.88023952,,,,,,,,,,,,,,161,civas,,,,,,133.9923,135.9916,0,1,1.4508,,0,65,65,160,1,pseudoword,0,REAL,FALSA
,,,,,,,,,646f8a859c69c3cb1d5f08c8,001,2024-06-30_07h33.37.554,empathy_intonation_perc,2024.1.4,Win32,59.88023952,,,,,,,,,,,,,,25,vigor,,,,,,135.9921,137.1251,1,0,0.5864,,0,66,66,24,1,two_way_cognate,1,REAL,FALSA
,,,,,,,,,646f8a859c69c3cb1d5f08c8,001,2024-06-30_07h33.37.554,empathy_intonation_perc,2024.1.4,Win32,59.88023952,,,,,,,,,,,,,,101,losco,,,,,,137.1255,138.5077,0,1,0.8333,,0,67,67,100,1,pseudoword,0,REAL,FALSA
,,,,,,,,,646f8a859c69c3cb1d5f08c8,001,2024-06-30_07h33.37.554,empathy_intonation_perc,2024.1.4,Win32,59.88023952,,,,,,,,,,,,,,68,puñal,,,,,,138.5084,139.8415,1,0,0.785,,0,68,68,67,1,non_cognate,1,REAL,FALSA
,,,,,,,,,646f8a859c69c3cb1d5f08c8,001,2024-06-30_07h33.37.554,empathy_intonation_perc,2024.1.4,Win32,59.88023952,,,,,,,,,,,,,,60,siglo,,,,,,139.8421,141.1082,0,1,0.7203,,0,69,69,59,1,non_cognate,1,REAL,FALSA
,,,,,,,,,646f8a859c69c3cb1d5f08c8,001,2024-06-30_07h33.37.554,empathy_intonation_perc,2024.1.4,Win32,59.88023952,,,,,,,,,,,,,,45,total,,,,,,141.1087,142.3246,1,0,0.6695,,0,70,70,44,1,two_way_cognate,1,REAL,FALSA
,,,,,,,,,646f8a859c69c3cb1d5f08c8,001,2024-06-30_07h33.37.554,empathy_intonation_perc,2024.1.4,Win32,59.88023952,,,,,,,,,,,,,,187,nomata,,,,,,142.3251,143.7574,0,1,0.8937,,0,71,71,186,1,pseudoword,0,REAL,FALSA
,,,,,,,,,646f8a859c69c3cb1d5f08c8,001,2024-06-30_07h33.37.554,empathy_intonation_perc,2024.1.4,Win32,59.88023952,,,,,,,,,,,,,,35,aurora,,,,,,143.7579,145.1245,1,0,0.8183,,0,72,72,34,1,two_way_cognate,1,REAL,FALSA
,,,,,,,,,646f8a859c69c3cb1d5f08c8,001,2024-06-30_07h33.37.554,empathy_intonation_perc,2024.1.4,Win32,59.88023952,,,,,,,,,,,,,,65,guerra,,,,,,145.125,146.6077,1,0,0.9378,,0,73,73,64,1,non_cognate,1,REAL,FALSA
,,,,,,,,,646f8a859c69c3cb1d5f08c8,001,2024-06-30_07h33.37.554,empathy_intonation_perc,2024.1.4,Win32,59.88023952,,,,,,,,,,,,,,49,teñir,,,,,,146.6083,147.9411,1,0,0.7894,,0,74,74,48,1,non_cognate,1,REAL,FALSA
,,,,,,,,,646f8a859c69c3cb1d5f08c8,001,2024-06-30_07h33.37.554,empathy_intonation_perc,2024.1.4,Win32,59.88023952,,,,,,,,,,,,,,188,amplir,,,,,,147.9415,149.7235,1,0,1.2606,,0,75,75,187,1,pseudoword,0,REAL,FALSA
,,,,,,,,,646f8a859c69c3cb1d5f08c8,001,2024-06-30_07h33.37.554,empathy_intonation_perc,2024.1.4,Win32,59.88023952,,,,,,,,,,,,,,189,medium,,,,,,149.7241,150.9073,1,0,0.6374,,0,76,76,188,1,pseudoword,0,REAL,FALSA
,,,,,,,,,646f8a859c69c3cb1d5f08c8,001,2024-06-30_07h33.37.554,empathy_intonation_perc,2024.1.4,Win32,59.88023952,,,,,,,,,,,,,,59,feo,,,,,,150.9077,152.0572,1,0,0.6017,,0,77,77,58,1,non_cognate,1,REAL,FALSA
,,,,,,,,,646f8a859c69c3cb1d5f08c8,001,2024-06-30_07h33.37.554,empathy_intonation_perc,2024.1.4,Win32,59.88023952,,,,,,,,,,,,,,115,lidena,,,,,,152.0577,153.6735,1,0,1.0724,,0,78,78,114,1,pseudoword,0,REAL,FALSA
,,,,,,,,,646f8a859c69c3cb1d5f08c8,001,2024-06-30_07h33.37.554,empathy_intonation_perc,2024.1.4,Win32,59.88023952,,,,,,,,,,,,,,128,pelí,,,,,,153.6742,154.8571,1,0,0.6348,,0,79,79,127,1,pseudoword,0,REAL,FALSA
,,,,,,,,,646f8a859c69c3cb1d5f08c8,001,2024-06-30_07h33.37.554,empathy_intonation_perc,2024.1.4,Win32,59.88023952,,,,,,,,,,,,,,178,inichó,,,,,,154.8576,156.2071,0,1,0.8104,,0,80,80,177,1,pseudoword,0,REAL,FALSA
,,,,,,,,,646f8a859c69c3cb1d5f08c8,001,2024-06-30_07h33.37.554,empathy_intonation_perc,2024.1.4,Win32,59.88023952,,,,,,,,,,,,,,21,hotel,,,,,,156.2074,157.3069,1,0,0.5593,,0,81,81,20,1,three_way_cognate,1,REAL,FALSA
,,,,,,,,,646f8a859c69c3cb1d5f08c8,001,2024-06-30_07h33.37.554,empathy_intonation_perc,2024.1.4,Win32,59.88023952,,,,,,,,,,,,,,44,editor,,,,,,157.3073,158.4117,1,0,0.567,,0,82,82,43,1,two_way_cognate,1,REAL,FALSA
,,,,,,,,,646f8a859c69c3cb1d5f08c8,001,2024-06-30_07h33.37.554,empathy_intonation_perc,2024.1.4,Win32,59.88023952,,,,,,,,,,,,,,146,gió,,,,,,158.4119,160.1953,1,0,1.2506,,0,83,83,145,1,pseudoword,0,REAL,FALSA
,,,,,,,,,646f8a859c69c3cb1d5f08c8,001,2024-06-30_07h33.37.554,empathy_intonation_perc,2024.1.4,Win32,59.88023952,,,,,,,,,,,,,,41,pasta,,,,,,160.1955,161.3735,1,0,0.6355,,0,84,84,40,1,two_way_cognate,1,REAL,FALSA
,,,,,,,,,646f8a859c69c3cb1d5f08c8,001,2024-06-30_07h33.37.554,empathy_intonation_perc,2024.1.4,Win32,59.88023952,,,,,,,,,,,,,,79,suelo,,,,,,161.3739,162.59,1,0,0.6698,,0,85,85,78,1,non_cognate,1,REAL,FALSA
,,,,,,,,,646f8a859c69c3cb1d5f08c8,001,2024-06-30_07h33.37.554,empathy_intonation_perc,2024.1.4,Win32,59.88023952,,,,,,,,,,,,,,173,mibro,,,,,,162.5905,163.7063,0,1,0.5678,,0,86,86,172,1,pseudoword,0,REAL,FALSA
,,,,,,,,,646f8a859c69c3cb1d5f08c8,001,2024-06-30_07h33.37.554,empathy_intonation_perc,2024.1.4,Win32,59.88023952,,,,,,,,,,,,,,98,martir,,,,,,163.7069,165.1064,1,0,0.8512,,0,87,87,97,1,pseudoword,0,REAL,FALSA
,,,,,,,,,646f8a859c69c3cb1d5f08c8,001,2024-06-30_07h33.37.554,empathy_intonation_perc,2024.1.4,Win32,59.88023952,,,,,,,,,,,,,,27,piano,,,,,,165.1071,166.1733,1,0,0.5201,,0,88,88,26,1,two_way_cognate,1,REAL,FALSA
,,,,,,,,,646f8a859c69c3cb1d5f08c8,001,2024-06-30_07h33.37.554,empathy_intonation_perc,2024.1.4,Win32,59.88023952,,,,,,,,,,,,,,9,portal,,,,,,166.1738,167.2231,1,0,0.5014,,0,89,89,8,1,three_way_cognate,1,REAL,FALSA
,,,,,,,,,646f8a859c69c3cb1d5f08c8,001,2024-06-30_07h33.37.554,empathy_intonation_perc,2024.1.4,Win32,59.88023952,,,,,,,,,,,,,,176,gripar,,,,,,167.2234,168.623,1,0,0.8553,,0,90,90,175,1,pseudoword,0,REAL,FALSA
,,,,,,,,,646f8a859c69c3cb1d5f08c8,001,2024-06-30_07h33.37.554,empathy_intonation_perc,2024.1.4,Win32,59.88023952,,,,,,,,,,,,,,53,punta,,,,,,168.6234,169.7061,1,0,0.5343,,0,91,91,52,1,non_cognate,1,REAL,FALSA
,,,,,,,,,646f8a859c69c3cb1d5f08c8,001,2024-06-30_07h33.37.554,empathy_intonation_perc,2024.1.4,Win32,59.88023952,,,,,,,,,,,,,,26,enigma,,,,,,169.7066,170.9061,1,0,0.6515,,0,92,92,25,1,two_way_cognate,1,REAL,FALSA
,,,,,,,,,646f8a859c69c3cb1d5f08c8,001,2024-06-30_07h33.37.554,empathy_intonation_perc,2024.1.4,Win32,59.88023952,,,,,,,,,,,,,,15,test,,,,,,170.9068,171.923,1,0,0.4711,,0,93,93,14,1,three_way_cognate,1,REAL,FALSA
,,,,,,,,,646f8a859c69c3cb1d5f08c8,001,2024-06-30_07h33.37.554,empathy_intonation_perc,2024.1.4,Win32,59.88023952,,,,,,,,,,,,,,80,cuenco,,,,,,171.9236,173.1062,0,1,0.6343,,0,94,94,79,1,non_cognate,1,REAL,FALSA
,,,,,,,,,646f8a859c69c3cb1d5f08c8,001,2024-06-30_07h33.37.554,empathy_intonation_perc,2024.1.4,Win32,59.88023952,,,,,,,,,,,,,,11,golf,,,,,,173.1067,174.1059,1,0,0.4572,,0,95,95,10,1,three_way_cognate,1,REAL,FALSA
,,,,,,,,,646f8a859c69c3cb1d5f08c8,001,2024-06-30_07h33.37.554,empathy_intonation_perc,2024.1.4,Win32,59.88023952,,,,,,,,,,,,,,122,boñaz,,,,,,174.1065,175.4227,0,1,0.7753,,0,96,96,121,1,pseudoword,0,REAL,FALSA
,,,,,,,,,646f8a859c69c3cb1d5f08c8,001,2024-06-30_07h33.37.554,empathy_intonation_perc,2024.1.4,Win32,59.88023952,,,,,,,,,,,,,,116,grigir,,,,,,175.4231,176.6892,0,1,0.724,,0,97,97,115,1,pseudoword,0,REAL,FALSA
,,,,,,,,,646f8a859c69c3cb1d5f08c8,001,2024-06-30_07h33.37.554,empathy_intonation_perc,2024.1.4,Win32,59.88023952,,,,,,,,,,,,,,185,aljizo,,,,,,176.6896,177.9888,1,0,0.7547,,0,98,98,184,1,pseudoword,0,REAL,FALSA
,,,,,,,,,646f8a859c69c3cb1d5f08c8,001,2024-06-30_07h33.37.554,empathy_intonation_perc,2024.1.4,Win32,59.88023952,,,,,,,,,,,,,,10,drama,,,,,,177.9893,178.9889,1,0,0.4526,,0,99,99,9,1,three_way_cognate,1,REAL,FALSA
,,,,,,,,,646f8a859c69c3cb1d5f08c8,001,2024-06-30_07h33.37.554,empathy_intonation_perc,2024.1.4,Win32,59.88023952,,,,,,,,,,,,,,158,babrá,,,,,,178.9895,180.2222,0,1,0.695,,0,100,100,157,1,pseudoword,0,REAL,FALSA
,,,,,,,,,646f8a859c69c3cb1d5f08c8,001,2024-06-30_07h33.37.554,empathy_intonation_perc,2024.1.4,Win32,59.88023952,,,,,,,,,,,,,,141,virios,,,,,,180.2228,181.4723,0,1,0.7027,,0,101,101,140,1,pseudoword,0,REAL,FALSA
,,,,,,,,,646f8a859c69c3cb1d5f08c8,001,2024-06-30_07h33.37.554,empathy_intonation_perc,2024.1.4,Win32,59.88023952,,,,,,,,,,,,,,71,torta,,,,,,181.4729,182.9557,0,1,0.9411,,0,102,102,70,1,non_cognate,1,REAL,FALSA
,,,,,,,,,646f8a859c69c3cb1d5f08c8,001,2024-06-30_07h33.37.554,empathy_intonation_perc,2024.1.4,Win32,59.88023952,,,,,,,,,,,,,,126,tobre,,,,,,182.9562,184.722,1,0,1.2222,,0,103,103,125,1,pseudoword,0,REAL,FALSA
,,,,,,,,,646f8a859c69c3cb1d5f08c8,001,2024-06-30_07h33.37.554,empathy_intonation_perc,2024.1.4,Win32,59.88023952,,,,,,,,,,,,,,165,chote,,,,,,184.7225,186.2719,0,1,1.0172,,0,104,104,164,1,pseudoword,0,REAL,FALSA
,,,,,,,,,646f8a859c69c3cb1d5f08c8,001,2024-06-30_07h33.37.554,empathy_intonation_perc,2024.1.4,Win32,59.88023952,,,,,,,,,,,,,,164,tecia,,,,,,186.2724,187.6553,0,1,0.8342,,0,105,105,163,1,pseudoword,0,REAL,FALSA
,,,,,,,,,646f8a859c69c3cb1d5f08c8,001,2024-06-30_07h33.37.554,empathy_intonation_perc,2024.1.4,Win32,59.88023952,,,,,,,,,,,,,,66,aleta,,,,,,187.6558,188.9218,0,1,0.7243,,0,106,106,65,1,non_cognate,1,REAL,FALSA
,,,,,,,,,646f8a859c69c3cb1d5f08c8,001,2024-06-30_07h33.37.554,empathy_intonation_perc,2024.1.4,Win32,59.88023952,,,,,,,,,,,,,,172,dogue,,,,,,188.9224,190.2552,1,0,0.7849,,0,107,107,171,1,pseudoword,0,REAL,FALSA
,,,,,,,,,646f8a859c69c3cb1d5f08c8,001,2024-06-30_07h33.37.554,empathy_intonation_perc,2024.1.4,Win32,59.88023952,,,,,,,,,,,,,,142,parre,,,,,,190.2556,191.4052,1,0,0.6039,,0,108,108,141,1,pseudoword,0,REAL,FALSA
,,,,,,,,,646f8a859c69c3cb1d5f08c8,001,2024-06-30_07h33.37.554,empathy_intonation_perc,2024.1.4,Win32,59.88023952,,,,,,,,,,,,,,100,épinas,,,,,,191.4055,192.7715,1,0,0.8167,,0,109,109,99,1,pseudoword,0,REAL,FALSA
,,,,,,,,,646f8a859c69c3cb1d5f08c8,001,2024-06-30_07h33.37.554,empathy_intonation_perc,2024.1.4,Win32,59.88023952,,,,,,,,,,,,,,70,ánimo,,,,,,192.7721,194.0382,1,0,0.7171,,0,110,110,69,1,non_cognate,1,REAL,FALSA
,,,,,,,,,646f8a859c69c3cb1d5f08c8,001,2024-06-30_07h33.37.554,empathy_intonation_perc,2024.1.4,Win32,59.88023952,,,,,,,,,,,,,,117,morrá,,,,,,194.0388,195.2206,0,1,0.6358,,0,111,111,116,1,pseudoword,0,REAL,FALSA
,,,,,,,,,646f8a859c69c3cb1d5f08c8,001,2024-06-30_07h33.37.554,empathy_intonation_perc,2024.1.4,Win32,59.88023952,,,,,,,,,,,,,,96,caro,,,,,,195.2208,196.4381,1,0,0.684,,0,112,112,95,1,non_cognate,1,REAL,FALSA
,,,,,,,,,646f8a859c69c3cb1d5f08c8,001,2024-06-30_07h33.37.554,empathy_intonation_perc,2024.1.4,Win32,59.88023952,,,,,,,,,,,,,,84,aviso,,,,,,196.4385,197.7214,1,0,0.7366,,0,113,113,83,1,non_cognate,1,REAL,FALSA
,,,,,,,,,646f8a859c69c3cb1d5f08c8,001,2024-06-30_07h33.37.554,empathy_intonation_perc,2024.1.4,Win32,59.88023952,,,,,,,,,,,,,,28,ardor,,,,,,197.722,199.1547,1,0,0.8855,,0,114,114,27,1,two_way_cognate,1,REAL,FALSA
,,,,,,,,,646f8a859c69c3cb1d5f08c8,001,2024-06-30_07h33.37.554,empathy_intonation_perc,2024.1.4,Win32,59.88023952,,,,,,,,,,,,,,151,prías,,,,,,199.1552,200.3881,0,1,0.6834,,0,115,115,150,1,pseudoword,0,REAL,FALSA
,,,,,,,,,646f8a859c69c3cb1d5f08c8,001,2024-06-30_07h33.37.554,empathy_intonation_perc,2024.1.4,Win32,59.88023952,,,,,,,,,,,,,,20,trauma,,,,,,200.3888,201.6039,1,0,0.684,,0,116,116,19,1,three_way_cognate,1,REAL,FALSA
,,,,,,,,,646f8a859c69c3cb1d5f08c8,001,2024-06-30_07h33.37.554,empathy_intonation_perc,2024.1.4,Win32,59.88023952,,,,,,,,,,,,,,140,chorde,,,,,,201.6045,203.1042,1,0,0.9562,,0,117,117,139,1,pseudoword,0,REAL,FALSA
,,,,,,,,,646f8a859c69c3cb1d5f08c8,001,2024-06-30_07h33.37.554,empathy_intonation_perc,2024.1.4,Win32,59.88023952,,,,,,,,,,,,,,8,kilo,,,,,,203.1048,204.1877,1,0,0.5378,,0,118,118,7,1,three_way_cognate,1,REAL,FALSA
,,,,,,,,,646f8a859c69c3cb1d5f08c8,001,2024-06-30_07h33.37.554,empathy_intonation_perc,2024.1.4,Win32,59.88023952,,,,,,,,,,,,,,6,horror,,,,,,204.1881,205.1878,1,0,0.4582,,0,119,119,5,1,three_way_cognate,1,REAL,FALSA
,,,,,,,,,646f8a859c69c3cb1d5f08c8,001,2024-06-30_07h33.37.554,empathy_intonation_perc,2024.1.4,Win32,59.88023952,,,,,,,,,,,,,,42,rumor,,,,,,205.1883,206.2536,1,0,0.5226,,0,120,120,41,1,two_way_cognate,1,REAL,FALSA
,,,,,,,,,646f8a859c69c3cb1d5f08c8,001,2024-06-30_07h33.37.554,empathy_intonation_perc,2024.1.4,Win32,59.88023952,,,,,,,,,,,,,,183,edioso,,,,,,206.2539,207.7538,1,0,0.9504,,0,121,121,182,1,pseudoword,0,REAL,FALSA
,,,,,,,,,646f8a859c69c3cb1d5f08c8,001,2024-06-30_07h33.37.554,empathy_intonation_perc,2024.1.4,Win32,59.88023952,,,,,,,,,,,,,,52,blando,,,,,,207.7546,208.9539,1,0,0.6571,,0,122,122,51,1,non_cognate,1,REAL,FALSA
,,,,,,,,,646f8a859c69c3cb1d5f08c8,001,2024-06-30_07h33.37.554,empathy_intonation_perc,2024.1.4,Win32,59.88023952,,,,,,,,,,,,,,16,chat,,,,,,208.9543,210.0374,1,0,0.5378,,0,123,123,15,1,three_way_cognate,1,REAL,FALSA
,,,,,,,,,646f8a859c69c3cb1d5f08c8,001,2024-06-30_07h33.37.554,empathy_intonation_perc,2024.1.4,Win32,59.88023952,,,,,,,,,,,,,,24,retina,,,,,,210.0379,211.2204,1,0,0.6432,,0,124,124,23,1,three_way_cognate,1,REAL,FALSA
,,,,,,,,,646f8a859c69c3cb1d5f08c8,001,2024-06-30_07h33.37.554,empathy_intonation_perc,2024.1.4,Win32,59.88023952,,,,,,,,,,,,,,103,vueras,,,,,,211.221,212.4372,0,1,0.6687,,0,125,125,102,1,pseudoword,0,REAL,FALSA
,,,,,,,,,646f8a859c69c3cb1d5f08c8,001,2024-06-30_07h33.37.554,empathy_intonation_perc,2024.1.4,Win32,59.88023952,,,,,,,,,,,,,,50,sierra,,,,,,212.4377,213.5532,1,0,0.5673,,0,126,126,49,1,non_cognate,1,REAL,FALSA
,,,,,,,,,646f8a859c69c3cb1d5f08c8,001,2024-06-30_07h33.37.554,empathy_intonation_perc,2024.1.4,Win32,59.88023952,,,,,,,,,,,,,,75,patada,,,,,,213.5538,215.0702,1,0,0.9737,,0,127,127,74,1,non_cognate,1,REAL,FALSA
,,,,,,,,,646f8a859c69c3cb1d5f08c8,001,2024-06-30_07h33.37.554,empathy_intonation_perc,2024.1.4,Win32,59.88023952,,,,,,,,,,,,,,43,honor,,,,,,215.0706,216.1038,1,0,0.4838,,0,128,128,42,1,two_way_cognate,1,REAL,FALSA
,,,,,,,,,646f8a859c69c3cb1d5f08c8,001,2024-06-30_07h33.37.554,empathy_intonation_perc,2024.1.4,Win32,59.88023952,,,,,,,,,,,,,,72,rostro,,,,,,216.1043,217.3368,0,1,0.6948,,0,129,129,71,1,non_cognate,1,REAL,FALSA
,,,,,,,,,646f8a859c69c3cb1d5f08c8,001,2024-06-30_07h33.37.554,empathy_intonation_perc,2024.1.4,Win32,59.88023952,,,,,,,,,,,,,,108,jauda,,,,,,217.3372,218.7368,0,1,0.8517,,0,130,130,107,1,pseudoword,0,REAL,FALSA
,,,,,,,,,646f8a859c69c3cb1d5f08c8,001,2024-06-30_07h33.37.554,empathy_intonation_perc,2024.1.4,Win32,59.88023952,,,,,,,,,,,,,,4,flora,,,,,,218.7372,219.8416,1,0,0.5668,,0,131,131,3,1,three_way_cognate,1,REAL,FALSA
,,,,,,,,,646f8a859c69c3cb1d5f08c8,001,2024-06-30_07h33.37.554,empathy_intonation_perc,2024.1.4,Win32,59.88023952,,,,,,,,,,,,,,133,conso,,,,,,219.842,221.1701,0,1,0.7841,,0,132,132,132,1,pseudoword,0,REAL,FALSA
,,,,,,,,,646f8a859c69c3cb1d5f08c8,001,2024-06-30_07h33.37.554,empathy_intonation_perc,2024.1.4,Win32,59.88023952,,,,,,,,,,,,,,90,venado,,,,,,221.1706,222.2072,1,0,0.4992,,0,133,133,89,1,non_cognate,1,REAL,FALSA
,,,,,,,,,646f8a859c69c3cb1d5f08c8,001,2024-06-30_07h33.37.554,empathy_intonation_perc,2024.1.4,Win32,59.88023952,,,,,,,,,,,,,,150,cricó,,,,,,222.2073,223.9033,0,1,1.1496,,0,134,134,149,1,pseudoword,0,REAL,FALSA
,,,,,,,,,646f8a859c69c3cb1d5f08c8,001,2024-06-30_07h33.37.554,empathy_intonation_perc,2024.1.4,Win32,59.88023952,,,,,,,,,,,,,,144,diroco,,,,,,223.9037,225.3362,0,1,0.883,,0,135,135,143,1,pseudoword,0,REAL,FALSA
,,,,,,,,,646f8a859c69c3cb1d5f08c8,001,2024-06-30_07h33.37.554,empathy_intonation_perc,2024.1.4,Win32,59.88023952,,,,,,,,,,,,,,5,extra,,,,,,225.3368,226.3194,1,0,0.4429,,0,136,136,4,1,three_way_cognate,1,REAL,FALSA
,,,,,,,,,646f8a859c69c3cb1d5f08c8,001,2024-06-30_07h33.37.554,empathy_intonation_perc,2024.1.4,Win32,59.88023952,,,,,,,,,,,,,,81,sacar,,,,,,226.32,227.5689,1,0,0.7115,,0,137,137,80,1,non_cognate,1,REAL,FALSA
,,,,,,,,,646f8a859c69c3cb1d5f08c8,001,2024-06-30_07h33.37.554,empathy_intonation_perc,2024.1.4,Win32,59.88023952,,,,,,,,,,,,,,86,cuenco,,,,,,227.5695,228.7363,1,0,0.6173,,0,138,138,85,1,non_cognate,1,REAL,FALSA
,,,,,,,,,646f8a859c69c3cb1d5f08c8,001,2024-06-30_07h33.37.554,empathy_intonation_perc,2024.1.4,Win32,59.88023952,,,,,,,,,,,,,,121,barbs,,,,,,228.7368,229.991,1,0,0.7171,,0,139,139,120,1,pseudoword,0,REAL,FALSA
,,,,,,,,,646f8a859c69c3cb1d5f08c8,001,2024-06-30_07h33.37.554,empathy_intonation_perc,2024.1.4,Win32,59.88023952,,,,,,,,,,,,,,83,hálito,,,,,,229.9914,231.1866,1,0,0.6623,,0,140,140,82,1,non_cognate,1,REAL,FALSA
,,,,,,,,,646f8a859c69c3cb1d5f08c8,001,2024-06-30_07h33.37.554,empathy_intonation_perc,2024.1.4,Win32,59.88023952,,,,,,,,,,,,,,156,ozoso,,,,,,231.187,232.3689,0,1,0.6332,,0,141,141,155,1,pseudoword,0,REAL,FALSA
,,,,,,,,,646f8a859c69c3cb1d5f08c8,001,2024-06-30_07h33.37.554,empathy_intonation_perc,2024.1.4,Win32,59.88023952,,,,,,,,,,,,,,131,fuar,,,,,,232.3695,233.9858,1,0,1.0763,,0,142,142,130,1,pseudoword,0,REAL,FALSA
,,,,,,,,,646f8a859c69c3cb1d5f08c8,001,2024-06-30_07h33.37.554,empathy_intonation_perc,2024.1.4,Win32,59.88023952,,,,,,,,,,,,,,88,percha,,,,,,233.9862,235.3354,1,0,0.8094,,0,143,143,87,1,non_cognate,1,REAL,FALSA
,,,,,,,,,646f8a859c69c3cb1d5f08c8,001,2024-06-30_07h33.37.554,empathy_intonation_perc,2024.1.4,Win32,59.88023952,,,,,,,,,,,,,,137,trugo,,,,,,235.336,236.5028,0,1,0.6178,,0,144,144,136,1,pseudoword,0,REAL,FALSA
,,,,,,,,,646f8a859c69c3cb1d5f08c8,001,2024-06-30_07h33.37.554,empathy_intonation_perc,2024.1.4,Win32,59.88023952,,,,,,,,,,,,,,39,casual,,,,,,236.5032,237.691,1,0,0.6506,,0,145,145,38,1,two_way_cognate,1,REAL,FALSA
,,,,,,,,,646f8a859c69c3cb1d5f08c8,001,2024-06-30_07h33.37.554,empathy_intonation_perc,2024.1.4,Win32,59.88023952,,,,,,,,,,,,,,12,dogma,,,,,,237.6912,239.0523,1,0,0.8204,,0,146,146,11,1,three_way_cognate,1,REAL,FALSA
,,,,,,,,,646f8a859c69c3cb1d5f08c8,001,2024-06-30_07h33.37.554,empathy_intonation_perc,2024.1.4,Win32,59.88023952,,,,,,,,,,,,,,154,harvé,,,,,,239.0529,240.9689,0,1,1.3693,,0,147,147,153,1,pseudoword,0,REAL,FALSA
,,,,,,,,,646f8a859c69c3cb1d5f08c8,001,2024-06-30_07h33.37.554,empathy_intonation_perc,2024.1.4,Win32,59.88023952,,,,,,,,,,,,,,3,disco,,,,,,240.9694,241.9852,1,0,0.4769,,0,148,148,2,1,three_way_cognate,1,REAL,FALSA
,,,,,,,,,646f8a859c69c3cb1d5f08c8,001,2024-06-30_07h33.37.554,empathy_intonation_perc,2024.1.4,Win32,59.88023952,,,,,,,,,,,,,,157,seled,,,,,,241.9857,243.3188,0,1,0.7901,,0,149,149,156,1,pseudoword,0,REAL,FALSA
,,,,,,,,,646f8a859c69c3cb1d5f08c8,001,2024-06-30_07h33.37.554,empathy_intonation_perc,2024.1.4,Win32,59.88023952,,,,,,,,,,,,,,127,vien,,,,,,243.3193,244.3686,1,0,0.5113,,0,150,150,126,1,pseudoword,0,REAL,FALSA
,,,,,,,,,646f8a859c69c3cb1d5f08c8,001,2024-06-30_07h33.37.554,empathy_intonation_perc,2024.1.4,Win32,59.88023952,,,,,,,,,,,,,,134,molor,,,,,,244.369,245.9019,0,1,0.9894,,0,151,151,133,1,pseudoword,0,REAL,FALSA
,,,,,,,,,646f8a859c69c3cb1d5f08c8,001,2024-06-30_07h33.37.554,empathy_intonation_perc,2024.1.4,Win32,59.88023952,,,,,,,,,,,,,,113,nasce,,,,,,245.9024,247.1183,0,1,0.6765,,0,152,152,112,1,pseudoword,0,REAL,FALSA
,,,,,,,,,646f8a859c69c3cb1d5f08c8,001,2024-06-30_07h33.37.554,empathy_intonation_perc,2024.1.4,Win32,59.88023952,,,,,,,,,,,,,,114,dibrea,,,,,,247.1188,249.3352,0,1,1.6758,,0,153,153,113,1,pseudoword,0,REAL,FALSA
,,,,,,,,,646f8a859c69c3cb1d5f08c8,001,2024-06-30_07h33.37.554,empathy_intonation_perc,2024.1.4,Win32,59.88023952,,,,,,,,,,,,,,110,densó,,,,,,249.3422,250.485,1,0,0.6009,,0,154,154,109,1,pseudoword,0,REAL,FALSA
,,,,,,,,,646f8a859c69c3cb1d5f08c8,001,2024-06-30_07h33.37.554,empathy_intonation_perc,2024.1.4,Win32,59.88023952,,,,,,,,,,,,,,61,aduana,,,,,,250.4857,251.918,1,0,0.8937,,0,155,155,60,1,non_cognate,1,REAL,FALSA
,,,,,,,,,646f8a859c69c3cb1d5f08c8,001,2024-06-30_07h33.37.554,empathy_intonation_perc,2024.1.4,Win32,59.88023952,,,,,,,,,,,,,,179,suelet,,,,,,251.9185,254.0514,1,0,1.5843,,0,156,156,178,1,pseudoword,0,REAL,FALSA
,,,,,,,,,646f8a859c69c3cb1d5f08c8,001,2024-06-30_07h33.37.554,empathy_intonation_perc,2024.1.4,Win32,59.88023952,,,,,,,,,,,,,,125,ceme,,,,,,254.0519,255.3014,0,1,0.7004,,0,157,157,124,1,pseudoword,0,REAL,FALSA
,,,,,,,,,646f8a859c69c3cb1d5f08c8,001,2024-06-30_07h33.37.554,empathy_intonation_perc,2024.1.4,Win32,59.88023952,,,,,,,,,,,,,,13,plan,,,,,,255.302,256.3396,1,0,0.5001,,0,158,158,12,1,three_way_cognate,1,REAL,FALSA
,,,,,,,,,646f8a859c69c3cb1d5f08c8,001,2024-06-30_07h33.37.554,empathy_intonation_perc,2024.1.4,Win32,59.88023952,,,,,,,,,,,,,,162,cengo,,,,,,256.3399,257.618,1,0,0.7341,,0,159,159,161,1,pseudoword,0,REAL,FALSA
,,,,,,,,,646f8a859c69c3cb1d5f08c8,001,2024-06-30_07h33.37.554,empathy_intonation_perc,2024.1.4,Win32,59.88023952,,,,,,,,,,,,,,22,mango,,,,,,257.6185,259.2843,1,0,1.1274,,0,160,160,21,1,three_way_cognate,1,REAL,FALSA
,,,,,,,,,646f8a859c69c3cb1d5f08c8,001,2024-06-30_07h33.37.554,empathy_intonation_perc,2024.1.4,Win32,59.88023952,,,,,,,,,,,,,,92,flecha,,,,,,259.2847,260.6512,1,0,0.8204,,0,161,161,91,1,non_cognate,1,REAL,FALSA
,,,,,,,,,646f8a859c69c3cb1d5f08c8,001,2024-06-30_07h33.37.554,empathy_intonation_perc,2024.1.4,Win32,59.88023952,,,,,,,,,,,,,,94,forro,,,,,,260.6517,262.1511,0,1,0.954,,0,162,162,93,1,non_cognate,1,REAL,FALSA
,,,,,,,,,646f8a859c69c3cb1d5f08c8,001,2024-06-30_07h33.37.554,empathy_intonation_perc,2024.1.4,Win32,59.88023952,,,,,,,,,,,,,,112,samón,,,,,,262.1516,263.2675,1,0,0.5771,,0,163,163,111,1,pseudoword,0,REAL,FALSA
,,,,,,,,,646f8a859c69c3cb1d5f08c8,001,2024-06-30_07h33.37.554,empathy_intonation_perc,2024.1.4,Win32,59.88023952,,,,,,,,,,,,,,99,bugor,,,,,,263.268,264.5009,0,1,0.6903,,0,164,164,98,1,pseudoword,0,REAL,FALSA
,,,,,,,,,646f8a859c69c3cb1d5f08c8,001,2024-06-30_07h33.37.554,empathy_intonation_perc,2024.1.4,Win32,59.88023952,,,,,,,,,,,,,,170,diabo,,,,,,264.5014,265.7339,1,0,0.6905,,0,165,165,169,1,pseudoword,0,REAL,FALSA
,,,,,,,,,646f8a859c69c3cb1d5f08c8,001,2024-06-30_07h33.37.554,empathy_intonation_perc,2024.1.4,Win32,59.88023952,,,,,,,,,,,,,,29,clamor,,,,,,265.7344,266.8674,1,0,0.585,,0,166,166,28,1,two_way_cognate,1,REAL,FALSA
,,,,,,,,,646f8a859c69c3cb1d5f08c8,001,2024-06-30_07h33.37.554,empathy_intonation_perc,2024.1.4,Win32,59.88023952,,,,,,,,,,,,,,139,sasos,,,,,,266.8679,268.222,0,1,0.8336,,0,167,167,138,1,pseudoword,0,REAL,FALSA
,,,,,,,,,646f8a859c69c3cb1d5f08c8,001,2024-06-30_07h33.37.554,empathy_intonation_perc,2024.1.4,Win32,59.88023952,,,,,,,,,,,,,,7,albino,,,,,,268.2223,269.4007,1,0,0.6361,,0,168,168,6,1,three_way_cognate,1,REAL,FALSA
,,,,,,,,,646f8a859c69c3cb1d5f08c8,001,2024-06-30_07h33.37.554,empathy_intonation_perc,2024.1.4,Win32,59.88023952,,,,,,,,,,,,,,132,nocó,,,,,,269.4011,270.734,1,0,0.7836,,0,169,169,131,1,pseudoword,0,REAL,FALSA
,,,,,,,,,646f8a859c69c3cb1d5f08c8,001,2024-06-30_07h33.37.554,empathy_intonation_perc,2024.1.4,Win32,59.88023952,,,,,,,,,,,,,,129,vinzó,,,,,,270.7345,271.9884,0,1,0.7168,,0,170,170,128,1,pseudoword,0,REAL,FALSA
,,,,,,,,,646f8a859c69c3cb1d5f08c8,001,2024-06-30_07h33.37.554,empathy_intonation_perc,2024.1.4,Win32,59.88023952,,,,,,,,,,,,,,38,halo,,,,,,271.9886,273.0719,1,0,0.5503,,0,171,171,37,1,two_way_cognate,1,REAL,FALSA
,,,,,,,,,646f8a859c69c3cb1d5f08c8,001,2024-06-30_07h33.37.554,empathy_intonation_perc,2024.1.4,Win32,59.88023952,,,,,,,,,,,,,,34,actor,,,,,,273.0722,273.9837,1,0,0.3753,,0,172,172,33,1,two_way_cognate,1,REAL,FALSA
,,,,,,,,,646f8a859c69c3cb1d5f08c8,001,2024-06-30_07h33.37.554,empathy_intonation_perc,2024.1.4,Win32,59.88023952,,,,,,,,,,,,,,95,listo,,,,,,273.9842,275.1506,1,0,0.6198,,0,173,173,94,1,non_cognate,1,REAL,FALSA
,,,,,,,,,646f8a859c69c3cb1d5f08c8,001,2024-06-30_07h33.37.554,empathy_intonation_perc,2024.1.4,Win32,59.88023952,,,,,,,,,,,,,,106,diebro,,,,,,275.1509,276.6001,0,1,0.9042,,0,174,174,105,1,pseudoword,0,REAL,FALSA
,,,,,,,,,646f8a859c69c3cb1d5f08c8,001,2024-06-30_07h33.37.554,empathy_intonation_perc,2024.1.4,Win32,59.88023952,,,,,,,,,,,,,,31,civil,,,,,,276.6005,277.6835,1,0,0.5344,,0,175,175,30,1,two_way_cognate,1,REAL,FALSA
,,,,,,,,,646f8a859c69c3cb1d5f08c8,001,2024-06-30_07h33.37.554,empathy_intonation_perc,2024.1.4,Win32,59.88023952,,,,,,,,,,,,,,124,lobe,,,,,,277.6841,278.9001,0,1,0.6756,,0,176,176,123,1,pseudoword,0,REAL,FALSA
,,,,,,,,,646f8a859c69c3cb1d5f08c8,001,2024-06-30_07h33.37.554,empathy_intonation_perc,2024.1.4,Win32,59.88023952,,,,,,,,,,,,,,174,pabea,,,,,,278.9006,279.8332,1,0,0.3934,,0,177,177,173,1,pseudoword,0,REAL,FALSA
,,,,,,,,,646f8a859c69c3cb1d5f08c8,001,2024-06-30_07h33.37.554,empathy_intonation_perc,2024.1.4,Win32,59.88023952,,,,,,,,,,,,,,166,anfia,,,,,,279.8336,281.15,0,1,0.7725,,0,178,178,165,1,pseudoword,0,REAL,FALSA
,,,,,,,,,646f8a859c69c3cb1d5f08c8,001,2024-06-30_07h33.37.554,empathy_intonation_perc,2024.1.4,Win32,59.88023952,,,,,,,,,,,,,,148,gino,,,,,,281.1505,282.183,1,0,0.4864,,0,179,179,147,1,pseudoword,0,REAL,FALSA
,,,,,,,,,646f8a859c69c3cb1d5f08c8,001,2024-06-30_07h33.37.554,empathy_intonation_perc,2024.1.4,Win32,59.88023952,,,,,,,,,,,,,,18,altar,,,,,,282.1835,283.1665,1,0,0.4403,,0,180,180,17,1,three_way_cognate,1,REAL,FALSA
,,,,,,,,,646f8a859c69c3cb1d5f08c8,001,2024-06-30_07h33.37.554,empathy_intonation_perc,2024.1.4,Win32,59.88023952,,,,,,,,,,,,,,2,tumor,,,,,,283.167,284.2162,1,0,0.5074,,0,181,181,1,1,three_way_cognate,1,REAL,FALSA
,,,,,,,,,646f8a859c69c3cb1d5f08c8,001,2024-06-30_07h33.37.554,empathy_intonation_perc,2024.1.4,Win32,59.88023952,,,,,,,,,,,,,,36,viable,,,,,,284.2166,285.3994,1,0,0.6482,,0,182,182,35,1,two_way_cognate,1,REAL,FALSA
,,,,,,,,,646f8a859c69c3cb1d5f08c8,001,2024-06-30_07h33.37.554,empathy_intonation_perc,2024.1.4,Win32,59.88023952,,,,,,,,,,,,,,55,maldad,,,,,,285.4,286.733,1,0,0.7849,,0,183,183,54,1,non_cognate,1,REAL,FALSA
,,,,,,,,,646f8a859c69c3cb1d5f08c8,001,2024-06-30_07h33.37.554,empathy_intonation_perc,2024.1.4,Win32,59.88023952,,,,,,,,,,,,,,107,plago,,,,,,286.7334,287.9325,1,0,0.6575,,0,184,184,106,1,pseudoword,0,REAL,FALSA
,,,,,,,,,646f8a859c69c3cb1d5f08c8,001,2024-06-30_07h33.37.554,empathy_intonation_perc,2024.1.4,Win32,59.88023952,,,,,,,,,,,,,,58,colcha,,,,,,287.933,289.3199,0,1,0.8487,,0,185,185,57,1,non_cognate,1,REAL,FALSA
,,,,,,,,,646f8a859c69c3cb1d5f08c8,001,2024-06-30_07h33.37.554,empathy_intonation_perc,2024.1.4,Win32,59.88023952,,,,,,,,,,,,,,32,animal,,,,,,289.3201,290.2826,1,0,0.4179,,0,186,186,31,1,two_way_cognate,1,REAL,FALSA
,,,,,,,,,646f8a859c69c3cb1d5f08c8,001,2024-06-30_07h33.37.554,empathy_intonation_perc,2024.1.4,Win32,59.88023952,,,,,,,,,,,,,,182,desaro,,,,,,290.2829,291.6319,1,0,0.8035,,0,187,187,181,1,pseudoword,0,REAL,FALSA
,,,,,,,,,646f8a859c69c3cb1d5f08c8,001,2024-06-30_07h33.37.554,empathy_intonation_perc,2024.1.4,Win32,59.88023952,,,,,,,,,,,,,,33,collar,,,,,,291.6326,292.6159,1,0,0.4509,,0,188,188,32,1,two_way_cognate,1,REAL,FALSA
,,,,,,,,,646f8a859c69c3cb1d5f08c8,001,2024-06-30_07h33.37.554,empathy_intonation_perc,2024.1.4,Win32,59.88023952,,,,,,,,,,,,,,190,asumie,,,,,,292.6164,293.8158,0,1,0.66,,0,189,189,189,1,pseudoword,0,REAL,FALSA
,,,,,,,,,646f8a859c69c3cb1d5f08c8,001,2024-06-30_07h33.37.554,empathy_intonation_perc,2024.1.4,Win32,59.88023952,,,,,,,,,,,,,,186,rizate,,,,,,293.8162,294.7157,1,0,0.3586,,0,190,190,185,1,pseudoword,0,REAL,FALSA
,,,,,,,,,646f8a859c69c3cb1d5f08c8,001,2024-06-30_07h33.37.554,empathy_intonation_perc,2024.1.4,Win32,59.88023952,,,,,,,,,,,,,,143,hurcos,,,,,,294.7163,295.8826,1,0,0.6171,,0,191,191,142,1,pseudoword,0,REAL,FALSA
