lextale_instructions.started,lextale_instructions.stopped,lextale_instructions_loop.thisRepN,lextale_instructions_loop.thisTrialN,lextale_instructions_loop.thisN,lextale_instructions_loop.thisIndex,lextale_instructions_loop.ran,instructions_text,continue_text,participant,session,date,expName,psychopyVersion,OS,frameRate,lextale_practice.started,lextale_practice.stopped,key_resp_lextale_practice.keys,key_resp_lextale_practice.corr,key_resp_lextale_practice.rt,key_resp_lextale_practice.duration,lextale_practice_feedback.started,lextale_practice_feedback.stopped,lextale_practice_trials.thisRepN,lextale_practice_trials.thisTrialN,lextale_practice_trials.thisN,lextale_practice_trials.thisIndex,lextale_practice_trials.ran,stim,word,correct_response,prac_button_real,prac_button_false,lextale_check.started,lextale_check.stopped,lextale_trial.started,lextale_trial.stopped,key_resp_lextale_trial.keys,key_resp_lextale_trial.corr,key_resp_lextale_trial.rt,key_resp_lextale_trial.duration,lextail_trials.thisRepN,lextail_trials.thisTrialN,lextail_trials.thisN,lextail_trials.thisIndex,lextail_trials.ran,type,correct_reponse,button_real,button_false
0.0017,2.3306,0,0,0,0,1,"Este es un test de vocabulario en español. 
  
  A continuación vas a ver 90 secuencias de letras que parecen 'españolas'.
  
  Solo algunas de ellas son palabras de verdad.",(presiona la barra espaciadora para continuar),64d53aae0f3f7317f6eb617e,001,2024-06-30_06h16.24.313,empathy_intonation_perc,2024.1.4,MacIntel,59.88023952,,,,,,,,,,,,,,,,,,,,,,,,,,,,,,,,,,,
2.3309,2.8643,0,1,1,1,1,"Por favor, señala las palabras que tú conoces (aquellas que estás convencido que son palabras españolas, incluso aunque no seas capaz de dar el significado preciso).",(presiona la barra espaciadora para continuar),64d53aae0f3f7317f6eb617e,001,2024-06-30_06h16.24.313,empathy_intonation_perc,2024.1.4,MacIntel,59.88023952,,,,,,,,,,,,,,,,,,,,,,,,,,,,,,,,,,,
2.8645,4.181,0,2,2,2,1,Pero cuidado: los errores se penalizan. Por eso no tiene sentido tratar de incrementar tu puntuación marcando como reales palabras que nunca has visto.,(presiona la barra espaciadora para continuar),64d53aae0f3f7317f6eb617e,001,2024-06-30_06h16.24.313,empathy_intonation_perc,2024.1.4,MacIntel,59.88023952,,,,,,,,,,,,,,,,,,,,,,,,,,,,,,,,,,,
4.1814,5.1646,0,3,3,3,1,"Presiona la tecla 1 si piensas que es una palabra real y la tecla 
  0 si piensas que es una palabra falsa. 
  
  Vamos a practicar un poco...",(presiona la barra espaciadora para continuar),64d53aae0f3f7317f6eb617e,001,2024-06-30_06h16.24.313,empathy_intonation_perc,2024.1.4,MacIntel,59.88023952,,,,,,,,,,,,,,,,,,,,,,,,,,,,,,,,,,,
,,,,,,,,,64d53aae0f3f7317f6eb617e,001,2024-06-30_06h16.24.313,empathy_intonation_perc,2024.1.4,MacIntel,59.88023952,5.1661,9.8656,0,1,4.1666,,9.8657,10.8665,0,0,0,0,1,0,depiste,0,REAL,FALSA,,,,,,,,,,,,,,,,,
,,,,,,,,,64d53aae0f3f7317f6eb617e,001,2024-06-30_06h16.24.313,empathy_intonation_perc,2024.1.4,MacIntel,59.88023952,10.8746,12.1168,1,1,0.7154,,12.1168,13.1166,0,1,1,1,1,0,sí,1,REAL,FALSA,,,,,,,,,,,,,,,,,
,,,,,,,,,64d53aae0f3f7317f6eb617e,001,2024-06-30_06h16.24.313,empathy_intonation_perc,2024.1.4,MacIntel,59.88023952,13.1169,14.4505,0,1,0.8004,,14.4505,15.4513,0,2,2,2,1,0,coné,0,REAL,FALSA,,,,,,,,,,,,,,,,,
,,,,,,,,,64d53aae0f3f7317f6eb617e,001,2024-06-30_06h16.24.313,empathy_intonation_perc,2024.1.4,MacIntel,59.88023952,15.4516,16.7679,0,1,0.782,,16.7679,17.7679,0,3,3,3,1,0,calpar,0,REAL,FALSA,,,,,,,,,,,,,,,,,
,,,,,,,,,64d53aae0f3f7317f6eb617e,001,2024-06-30_06h16.24.313,empathy_intonation_perc,2024.1.4,MacIntel,59.88023952,17.7681,18.9355,0,1,0.6326,,18.9355,19.9354,0,4,4,4,1,0,joten,0,REAL,FALSA,,,,,,,,,,,,,,,,,
,,,,,,,,,64d53aae0f3f7317f6eb617e,001,2024-06-30_06h16.24.313,empathy_intonation_perc,2024.1.4,MacIntel,59.88023952,19.9355,21.269,1,1,0.8066,,21.269,22.2692,0,5,5,5,1,0,sacapuntas,1,REAL,FALSA,,,,,,,,,,,,,,,,,
,,,,,,,,,64d53aae0f3f7317f6eb617e,001,2024-06-30_06h16.24.313,empathy_intonation_perc,2024.1.4,MacIntel,59.88023952,22.2694,23.6036,0,1,0.8007,,23.6036,24.6035,0,6,6,6,1,0,priba,0,REAL,FALSA,,,,,,,,,,,,,,,,,
,,,,,,,,,64d53aae0f3f7317f6eb617e,001,2024-06-30_06h16.24.313,empathy_intonation_perc,2024.1.4,MacIntel,59.88023952,24.6116,25.987,0,1,0.8508,,25.987,26.9871,0,7,7,7,1,0,pelasula,0,REAL,FALSA,,,,,,,,,,,,,,,,,
,,,,,,,,,64d53aae0f3f7317f6eb617e,001,2024-06-30_06h16.24.313,empathy_intonation_perc,2024.1.4,MacIntel,59.88023952,26.9873,28.1873,1,1,0.6738,,28.1873,29.1884,0,8,8,8,1,0,bien,1,REAL,FALSA,,,,,,,,,,,,,,,,,
,,,,,,,,,64d53aae0f3f7317f6eb617e,001,2024-06-30_06h16.24.313,empathy_intonation_perc,2024.1.4,MacIntel,59.88023952,29.1886,30.8214,1,1,1.1054,,30.8214,31.8225,0,9,9,9,1,0,casa,1,REAL,FALSA,,,,,,,,,,,,,,,,,
,,,,,,,,,64d53aae0f3f7317f6eb617e,001,2024-06-30_06h16.24.313,empathy_intonation_perc,2024.1.4,MacIntel,59.88023952,31.8227,33.0555,0,1,0.7055,,33.0555,34.0566,0,10,10,10,1,0,lejo,0,REAL,FALSA,,,,,,,,,,,,,,,,,
,,,,,,,,,64d53aae0f3f7317f6eb617e,001,2024-06-30_06h16.24.313,empathy_intonation_perc,2024.1.4,MacIntel,59.88023952,34.0567,35.2733,0,1,0.6886,,35.2734,36.2728,0,11,11,11,1,0,pretantas,0,REAL,FALSA,,,,,,,,,,,,,,,,,
,,,,,,,,,64d53aae0f3f7317f6eb617e,001,2024-06-30_06h16.24.313,empathy_intonation_perc,2024.1.4,MacIntel,59.88023952,,,,,,,,,,,,,,,,,,,36.273,37.1738,,,,,,,,,,,,,,,
,,,,,,,,,64d53aae0f3f7317f6eb617e,001,2024-06-30_06h16.24.313,empathy_intonation_perc,2024.1.4,MacIntel,59.88023952,,,,,,,,,,,,,,185,aljizo,,,,,,37.187,38.7075,0,1,1.0005,,0,0,0,184,1,pseudoword,0,REAL,FALSA
,,,,,,,,,64d53aae0f3f7317f6eb617e,001,2024-06-30_06h16.24.313,empathy_intonation_perc,2024.1.4,MacIntel,59.88023952,,,,,,,,,,,,,,69,tiza,,,,,,38.7077,39.8905,0,1,0.6745,,0,1,1,68,1,non_cognate,1,REAL,FALSA
,,,,,,,,,64d53aae0f3f7317f6eb617e,001,2024-06-30_06h16.24.313,empathy_intonation_perc,2024.1.4,MacIntel,59.88023952,,,,,,,,,,,,,,106,diebro,,,,,,39.8907,41.124,0,1,0.7156,,0,2,2,105,1,pseudoword,0,REAL,FALSA
,,,,,,,,,64d53aae0f3f7317f6eb617e,001,2024-06-30_06h16.24.313,empathy_intonation_perc,2024.1.4,MacIntel,59.88023952,,,,,,,,,,,,,,83,hálito,,,,,,41.1242,42.2913,1,0,0.6576,,0,3,3,82,1,non_cognate,1,REAL,FALSA
,,,,,,,,,64d53aae0f3f7317f6eb617e,001,2024-06-30_06h16.24.313,empathy_intonation_perc,2024.1.4,MacIntel,59.88023952,,,,,,,,,,,,,,168,cobén,,,,,,42.2915,43.5084,0,1,0.6898,,0,4,4,167,1,pseudoword,0,REAL,FALSA
,,,,,,,,,64d53aae0f3f7317f6eb617e,001,2024-06-30_06h16.24.313,empathy_intonation_perc,2024.1.4,MacIntel,59.88023952,,,,,,,,,,,,,,24,retina,,,,,,43.5086,44.9587,0,1,0.9206,,0,5,5,23,1,three_way_cognate,1,REAL,FALSA
,,,,,,,,,64d53aae0f3f7317f6eb617e,001,2024-06-30_06h16.24.313,empathy_intonation_perc,2024.1.4,MacIntel,59.88023952,,,,,,,,,,,,,,94,forro,,,,,,44.9589,46.042,1,0,0.569,,0,6,6,93,1,non_cognate,1,REAL,FALSA
,,,,,,,,,64d53aae0f3f7317f6eb617e,001,2024-06-30_06h16.24.313,empathy_intonation_perc,2024.1.4,MacIntel,59.88023952,,,,,,,,,,,,,,138,tator,,,,,,46.0422,47.4427,0,1,0.8756,,0,7,7,137,1,pseudoword,0,REAL,FALSA
,,,,,,,,,64d53aae0f3f7317f6eb617e,001,2024-06-30_06h16.24.313,empathy_intonation_perc,2024.1.4,MacIntel,59.88023952,,,,,,,,,,,,,,19,mafia,,,,,,47.4429,48.7762,0,1,0.8201,,0,8,8,18,1,three_way_cognate,1,REAL,FALSA
,,,,,,,,,64d53aae0f3f7317f6eb617e,001,2024-06-30_06h16.24.313,empathy_intonation_perc,2024.1.4,MacIntel,59.88023952,,,,,,,,,,,,,,115,lidena,,,,,,48.7765,50.0935,1,0,0.7817,,0,9,9,114,1,pseudoword,0,REAL,FALSA
,,,,,,,,,64d53aae0f3f7317f6eb617e,001,2024-06-30_06h16.24.313,empathy_intonation_perc,2024.1.4,MacIntel,59.88023952,,,,,,,,,,,,,,38,halo,,,,,,50.0937,51.3267,1,0,0.6978,,0,10,10,37,1,two_way_cognate,1,REAL,FALSA
,,,,,,,,,64d53aae0f3f7317f6eb617e,001,2024-06-30_06h16.24.313,empathy_intonation_perc,2024.1.4,MacIntel,59.88023952,,,,,,,,,,,,,,176,gripar,,,,,,51.3269,52.6109,0,1,0.7595,,0,11,11,175,1,pseudoword,0,REAL,FALSA
,,,,,,,,,64d53aae0f3f7317f6eb617e,001,2024-06-30_06h16.24.313,empathy_intonation_perc,2024.1.4,MacIntel,59.88023952,,,,,,,,,,,,,,102,coyo,,,,,,52.6111,54.0279,1,0,0.899,,0,12,12,101,1,pseudoword,0,REAL,FALSA
,,,,,,,,,64d53aae0f3f7317f6eb617e,001,2024-06-30_06h16.24.313,empathy_intonation_perc,2024.1.4,MacIntel,59.88023952,,,,,,,,,,,,,,165,chote,,,,,,54.0282,55.2786,0,1,0.7147,,0,13,13,164,1,pseudoword,0,REAL,FALSA
,,,,,,,,,64d53aae0f3f7317f6eb617e,001,2024-06-30_06h16.24.313,empathy_intonation_perc,2024.1.4,MacIntel,59.88023952,,,,,,,,,,,,,,149,emén,,,,,,55.2788,56.5948,0,1,0.7837,,0,14,14,148,1,pseudoword,0,REAL,FALSA
,,,,,,,,,64d53aae0f3f7317f6eb617e,001,2024-06-30_06h16.24.313,empathy_intonation_perc,2024.1.4,MacIntel,59.88023952,,,,,,,,,,,,,,72,rostro,,,,,,56.5951,57.895,1,0,0.7876,,0,15,15,71,1,non_cognate,1,REAL,FALSA
,,,,,,,,,64d53aae0f3f7317f6eb617e,001,2024-06-30_06h16.24.313,empathy_intonation_perc,2024.1.4,MacIntel,59.88023952,,,,,,,,,,,,,,75,patada,,,,,,57.8953,59.4794,1,0,1.0493,,0,16,16,74,1,non_cognate,1,REAL,FALSA
,,,,,,,,,64d53aae0f3f7317f6eb617e,001,2024-06-30_06h16.24.313,empathy_intonation_perc,2024.1.4,MacIntel,59.88023952,,,,,,,,,,,,,,175,tradía,,,,,,59.4796,60.7458,0,1,0.7322,,0,17,17,174,1,pseudoword,0,REAL,FALSA
,,,,,,,,,64d53aae0f3f7317f6eb617e,001,2024-06-30_06h16.24.313,empathy_intonation_perc,2024.1.4,MacIntel,59.88023952,,,,,,,,,,,,,,46,mortal,,,,,,60.7459,62.0133,0,1,0.7409,,0,18,18,45,1,two_way_cognate,1,REAL,FALSA
,,,,,,,,,64d53aae0f3f7317f6eb617e,001,2024-06-30_06h16.24.313,empathy_intonation_perc,2024.1.4,MacIntel,59.88023952,,,,,,,,,,,,,,117,morrá,,,,,,62.0135,63.1631,1,0,0.6238,,0,19,19,116,1,pseudoword,0,REAL,FALSA
,,,,,,,,,64d53aae0f3f7317f6eb617e,001,2024-06-30_06h16.24.313,empathy_intonation_perc,2024.1.4,MacIntel,59.88023952,,,,,,,,,,,,,,12,dogma,,,,,,63.1633,64.4635,0,1,0.7707,,0,20,20,11,1,three_way_cognate,1,REAL,FALSA
,,,,,,,,,64d53aae0f3f7317f6eb617e,001,2024-06-30_06h16.24.313,empathy_intonation_perc,2024.1.4,MacIntel,59.88023952,,,,,,,,,,,,,,65,guerra,,,,,,64.4636,65.5304,1,0,0.5591,,0,21,21,64,1,non_cognate,1,REAL,FALSA
,,,,,,,,,64d53aae0f3f7317f6eb617e,001,2024-06-30_06h16.24.313,empathy_intonation_perc,2024.1.4,MacIntel,59.88023952,,,,,,,,,,,,,,74,ala,,,,,,65.5306,66.8641,1,0,0.8038,,0,22,22,73,1,non_cognate,1,REAL,FALSA
,,,,,,,,,64d53aae0f3f7317f6eb617e,001,2024-06-30_06h16.24.313,empathy_intonation_perc,2024.1.4,MacIntel,59.88023952,,,,,,,,,,,,,,182,desaro,,,,,,66.8643,68.2645,1,0,0.8881,,0,23,23,181,1,pseudoword,0,REAL,FALSA
,,,,,,,,,64d53aae0f3f7317f6eb617e,001,2024-06-30_06h16.24.313,empathy_intonation_perc,2024.1.4,MacIntel,59.88023952,,,,,,,,,,,,,,173,mibro,,,,,,68.2646,69.3654,0,1,0.5654,,0,24,24,172,1,pseudoword,0,REAL,FALSA
,,,,,,,,,64d53aae0f3f7317f6eb617e,001,2024-06-30_06h16.24.313,empathy_intonation_perc,2024.1.4,MacIntel,59.88023952,,,,,,,,,,,,,,148,gino,,,,,,69.3656,70.5154,0,1,0.6176,,0,25,25,147,1,pseudoword,0,REAL,FALSA
,,,,,,,,,64d53aae0f3f7317f6eb617e,001,2024-06-30_06h16.24.313,empathy_intonation_perc,2024.1.4,MacIntel,59.88023952,,,,,,,,,,,,,,85,enorme,,,,,,70.5157,71.7823,1,0,0.7389,,0,26,26,84,1,non_cognate,1,REAL,FALSA
,,,,,,,,,64d53aae0f3f7317f6eb617e,001,2024-06-30_06h16.24.313,empathy_intonation_perc,2024.1.4,MacIntel,59.88023952,,,,,,,,,,,,,,147,alla,,,,,,71.7825,72.9666,1,0,0.6544,,0,27,27,146,1,pseudoword,0,REAL,FALSA
,,,,,,,,,64d53aae0f3f7317f6eb617e,001,2024-06-30_06h16.24.313,empathy_intonation_perc,2024.1.4,MacIntel,59.88023952,,,,,,,,,,,,,,29,clamor,,,,,,72.967,74.1994,0,1,0.6987,,0,28,28,28,1,two_way_cognate,1,REAL,FALSA
,,,,,,,,,64d53aae0f3f7317f6eb617e,001,2024-06-30_06h16.24.313,empathy_intonation_perc,2024.1.4,MacIntel,59.88023952,,,,,,,,,,,,,,53,punta,,,,,,74.1996,75.3162,1,0,0.5899,,0,29,29,52,1,non_cognate,1,REAL,FALSA
,,,,,,,,,64d53aae0f3f7317f6eb617e,001,2024-06-30_06h16.24.313,empathy_intonation_perc,2024.1.4,MacIntel,59.88023952,,,,,,,,,,,,,,73,llevar,,,,,,75.3164,76.4003,1,0,0.5558,,0,30,30,72,1,non_cognate,1,REAL,FALSA
,,,,,,,,,64d53aae0f3f7317f6eb617e,001,2024-06-30_06h16.24.313,empathy_intonation_perc,2024.1.4,MacIntel,59.88023952,,,,,,,,,,,,,,56,pico,,,,,,76.4005,78.1674,1,0,1.2318,,0,31,31,55,1,non_cognate,1,REAL,FALSA
,,,,,,,,,64d53aae0f3f7317f6eb617e,001,2024-06-30_06h16.24.313,empathy_intonation_perc,2024.1.4,MacIntel,59.88023952,,,,,,,,,,,,,,64,rizado,,,,,,78.1676,79.2514,0,1,0.5518,,0,32,32,63,1,non_cognate,1,REAL,FALSA
,,,,,,,,,64d53aae0f3f7317f6eb617e,001,2024-06-30_06h16.24.313,empathy_intonation_perc,2024.1.4,MacIntel,59.88023952,,,,,,,,,,,,,,151,prías,,,,,,79.2516,80.6008,0,1,0.8156,,0,33,33,150,1,pseudoword,0,REAL,FALSA
,,,,,,,,,64d53aae0f3f7317f6eb617e,001,2024-06-30_06h16.24.313,empathy_intonation_perc,2024.1.4,MacIntel,59.88023952,,,,,,,,,,,,,,25,vigor,,,,,,80.601,81.8345,0,1,0.708,,0,34,34,24,1,two_way_cognate,1,REAL,FALSA
,,,,,,,,,64d53aae0f3f7317f6eb617e,001,2024-06-30_06h16.24.313,empathy_intonation_perc,2024.1.4,MacIntel,59.88023952,,,,,,,,,,,,,,98,martir,,,,,,81.8346,82.9684,1,0,0.6145,,0,35,35,97,1,pseudoword,0,REAL,FALSA
,,,,,,,,,64d53aae0f3f7317f6eb617e,001,2024-06-30_06h16.24.313,empathy_intonation_perc,2024.1.4,MacIntel,59.88023952,,,,,,,,,,,,,,160,fomeó,,,,,,82.9685,84.385,1,0,0.8862,,0,36,36,159,1,pseudoword,0,REAL,FALSA
,,,,,,,,,64d53aae0f3f7317f6eb617e,001,2024-06-30_06h16.24.313,empathy_intonation_perc,2024.1.4,MacIntel,59.88023952,,,,,,,,,,,,,,87,muleta,,,,,,84.3854,85.5855,1,0,0.6858,,0,37,37,86,1,non_cognate,1,REAL,FALSA
,,,,,,,,,64d53aae0f3f7317f6eb617e,001,2024-06-30_06h16.24.313,empathy_intonation_perc,2024.1.4,MacIntel,59.88023952,,,,,,,,,,,,,,172,dogue,,,,,,85.5856,86.7523,0,1,0.6326,,0,38,38,171,1,pseudoword,0,REAL,FALSA
,,,,,,,,,64d53aae0f3f7317f6eb617e,001,2024-06-30_06h16.24.313,empathy_intonation_perc,2024.1.4,MacIntel,59.88023952,,,,,,,,,,,,,,97,nocita,,,,,,86.7525,88.0694,0,1,0.8051,,0,39,39,96,1,pseudoword,0,REAL,FALSA
,,,,,,,,,64d53aae0f3f7317f6eb617e,001,2024-06-30_06h16.24.313,empathy_intonation_perc,2024.1.4,MacIntel,59.88023952,,,,,,,,,,,,,,23,plural,,,,,,88.0696,89.3703,0,1,0.7865,,0,40,40,22,1,three_way_cognate,1,REAL,FALSA
,,,,,,,,,64d53aae0f3f7317f6eb617e,001,2024-06-30_06h16.24.313,empathy_intonation_perc,2024.1.4,MacIntel,59.88023952,,,,,,,,,,,,,,47,color,,,,,,89.3705,90.8701,1,0,0.9642,,0,41,41,46,1,two_way_cognate,1,REAL,FALSA
,,,,,,,,,64d53aae0f3f7317f6eb617e,001,2024-06-30_06h16.24.313,empathy_intonation_perc,2024.1.4,MacIntel,59.88023952,,,,,,,,,,,,,,14,aura,,,,,,90.8703,91.9535,1,0,0.5488,,0,42,42,13,1,three_way_cognate,1,REAL,FALSA
,,,,,,,,,64d53aae0f3f7317f6eb617e,001,2024-06-30_06h16.24.313,empathy_intonation_perc,2024.1.4,MacIntel,59.88023952,,,,,,,,,,,,,,33,collar,,,,,,91.9537,93.7875,1,0,1.3246,,0,43,43,32,1,two_way_cognate,1,REAL,FALSA
,,,,,,,,,64d53aae0f3f7317f6eb617e,001,2024-06-30_06h16.24.313,empathy_intonation_perc,2024.1.4,MacIntel,59.88023952,,,,,,,,,,,,,,134,molor,,,,,,93.7877,95.1211,1,0,0.8142,,0,44,44,133,1,pseudoword,0,REAL,FALSA
,,,,,,,,,64d53aae0f3f7317f6eb617e,001,2024-06-30_06h16.24.313,empathy_intonation_perc,2024.1.4,MacIntel,59.88023952,,,,,,,,,,,,,,169,pitis,,,,,,95.1213,96.138,0,1,0.5055,,0,45,45,168,1,pseudoword,0,REAL,FALSA
,,,,,,,,,64d53aae0f3f7317f6eb617e,001,2024-06-30_06h16.24.313,empathy_intonation_perc,2024.1.4,MacIntel,59.88023952,,,,,,,,,,,,,,156,ozoso,,,,,,96.1383,97.5227,1,0,0.8496,,0,46,46,155,1,pseudoword,0,REAL,FALSA
,,,,,,,,,64d53aae0f3f7317f6eb617e,001,2024-06-30_06h16.24.313,empathy_intonation_perc,2024.1.4,MacIntel,59.88023952,,,,,,,,,,,,,,181,gravés,,,,,,97.5229,98.6724,0,1,0.62,,0,47,47,180,1,pseudoword,0,REAL,FALSA
,,,,,,,,,64d53aae0f3f7317f6eb617e,001,2024-06-30_06h16.24.313,empathy_intonation_perc,2024.1.4,MacIntel,59.88023952,,,,,,,,,,,,,,108,jauda,,,,,,98.6726,99.8063,0,1,0.6051,,0,48,48,107,1,pseudoword,0,REAL,FALSA
,,,,,,,,,64d53aae0f3f7317f6eb617e,001,2024-06-30_06h16.24.313,empathy_intonation_perc,2024.1.4,MacIntel,59.88023952,,,,,,,,,,,,,,10,drama,,,,,,99.8065,100.8393,1,0,0.4992,,0,49,49,9,1,three_way_cognate,1,REAL,FALSA
,,,,,,,,,64d53aae0f3f7317f6eb617e,001,2024-06-30_06h16.24.313,empathy_intonation_perc,2024.1.4,MacIntel,59.88023952,,,,,,,,,,,,,,76,chocar,,,,,,100.8395,101.9401,1,0,0.5662,,0,50,50,75,1,non_cognate,1,REAL,FALSA
,,,,,,,,,64d53aae0f3f7317f6eb617e,001,2024-06-30_06h16.24.313,empathy_intonation_perc,2024.1.4,MacIntel,59.88023952,,,,,,,,,,,,,,93,tapa,,,,,,101.9404,103.3069,1,0,0.8421,,0,51,51,92,1,non_cognate,1,REAL,FALSA
,,,,,,,,,64d53aae0f3f7317f6eb617e,001,2024-06-30_06h16.24.313,empathy_intonation_perc,2024.1.4,MacIntel,59.88023952,,,,,,,,,,,,,,123,arane,,,,,,103.3071,104.3069,0,1,0.491,,0,52,52,122,1,pseudoword,0,REAL,FALSA
,,,,,,,,,64d53aae0f3f7317f6eb617e,001,2024-06-30_06h16.24.313,empathy_intonation_perc,2024.1.4,MacIntel,59.88023952,,,,,,,,,,,,,,126,tobre,,,,,,104.3072,105.507,0,1,0.6917,,0,53,53,125,1,pseudoword,0,REAL,FALSA
,,,,,,,,,64d53aae0f3f7317f6eb617e,001,2024-06-30_06h16.24.313,empathy_intonation_perc,2024.1.4,MacIntel,59.88023952,,,,,,,,,,,,,,50,sierra,,,,,,105.5072,106.5413,1,0,0.5065,,0,54,54,49,1,non_cognate,1,REAL,FALSA
,,,,,,,,,64d53aae0f3f7317f6eb617e,001,2024-06-30_06h16.24.313,empathy_intonation_perc,2024.1.4,MacIntel,59.88023952,,,,,,,,,,,,,,154,harvé,,,,,,106.5414,107.7914,0,1,0.7313,,0,55,55,153,1,pseudoword,0,REAL,FALSA
,,,,,,,,,64d53aae0f3f7317f6eb617e,001,2024-06-30_06h16.24.313,empathy_intonation_perc,2024.1.4,MacIntel,59.88023952,,,,,,,,,,,,,,61,aduana,,,,,,107.7915,109.1582,1,0,0.8385,,0,56,56,60,1,non_cognate,1,REAL,FALSA
,,,,,,,,,64d53aae0f3f7317f6eb617e,001,2024-06-30_06h16.24.313,empathy_intonation_perc,2024.1.4,MacIntel,59.88023952,,,,,,,,,,,,,,128,pelí,,,,,,109.1582,110.3082,0,1,0.6413,,0,57,57,127,1,pseudoword,0,REAL,FALSA
,,,,,,,,,64d53aae0f3f7317f6eb617e,001,2024-06-30_06h16.24.313,empathy_intonation_perc,2024.1.4,MacIntel,59.88023952,,,,,,,,,,,,,,131,fuar,,,,,,110.3084,111.5252,0,1,0.699,,0,58,58,130,1,pseudoword,0,REAL,FALSA
,,,,,,,,,64d53aae0f3f7317f6eb617e,001,2024-06-30_06h16.24.313,empathy_intonation_perc,2024.1.4,MacIntel,59.88023952,,,,,,,,,,,,,,157,seled,,,,,,111.5254,112.7263,0,1,0.6647,,0,59,59,156,1,pseudoword,0,REAL,FALSA
,,,,,,,,,64d53aae0f3f7317f6eb617e,001,2024-06-30_06h16.24.313,empathy_intonation_perc,2024.1.4,MacIntel,59.88023952,,,,,,,,,,,,,,71,torta,,,,,,112.7265,113.843,1,0,0.583,,0,60,60,70,1,non_cognate,1,REAL,FALSA
,,,,,,,,,64d53aae0f3f7317f6eb617e,001,2024-06-30_06h16.24.313,empathy_intonation_perc,2024.1.4,MacIntel,59.88023952,,,,,,,,,,,,,,122,boñaz,,,,,,113.8431,114.9605,0,1,0.6041,,0,61,61,121,1,pseudoword,0,REAL,FALSA
,,,,,,,,,64d53aae0f3f7317f6eb617e,001,2024-06-30_06h16.24.313,empathy_intonation_perc,2024.1.4,MacIntel,59.88023952,,,,,,,,,,,,,,191,frasis,,,,,,114.9607,116.5433,0,1,1.0491,,0,62,62,190,1,pseudoword,0,REAL,FALSA
,,,,,,,,,64d53aae0f3f7317f6eb617e,001,2024-06-30_06h16.24.313,empathy_intonation_perc,2024.1.4,MacIntel,59.88023952,,,,,,,,,,,,,,63,hilo,,,,,,116.5435,117.627,1,0,0.558,,0,63,63,62,1,non_cognate,1,REAL,FALSA
,,,,,,,,,64d53aae0f3f7317f6eb617e,001,2024-06-30_06h16.24.313,empathy_intonation_perc,2024.1.4,MacIntel,59.88023952,,,,,,,,,,,,,,135,panté,,,,,,117.6272,118.7604,0,1,0.6206,,0,64,64,134,1,pseudoword,0,REAL,FALSA
,,,,,,,,,64d53aae0f3f7317f6eb617e,001,2024-06-30_06h16.24.313,empathy_intonation_perc,2024.1.4,MacIntel,59.88023952,,,,,,,,,,,,,,4,flora,,,,,,118.7606,119.9276,1,0,0.6497,,0,65,65,3,1,three_way_cognate,1,REAL,FALSA
,,,,,,,,,64d53aae0f3f7317f6eb617e,001,2024-06-30_06h16.24.313,empathy_intonation_perc,2024.1.4,MacIntel,59.88023952,,,,,,,,,,,,,,184,huenos,,,,,,119.9278,121.1944,1,0,0.7305,,0,66,66,183,1,pseudoword,0,REAL,FALSA
,,,,,,,,,64d53aae0f3f7317f6eb617e,001,2024-06-30_06h16.24.313,empathy_intonation_perc,2024.1.4,MacIntel,59.88023952,,,,,,,,,,,,,,70,ánimo,,,,,,121.1946,122.3952,1,0,0.6835,,0,67,67,69,1,non_cognate,1,REAL,FALSA
,,,,,,,,,64d53aae0f3f7317f6eb617e,001,2024-06-30_06h16.24.313,empathy_intonation_perc,2024.1.4,MacIntel,59.88023952,,,,,,,,,,,,,,153,golla,,,,,,122.3954,123.4124,0,1,0.4901,,0,68,68,152,1,pseudoword,0,REAL,FALSA
,,,,,,,,,64d53aae0f3f7317f6eb617e,001,2024-06-30_06h16.24.313,empathy_intonation_perc,2024.1.4,MacIntel,59.88023952,,,,,,,,,,,,,,52,blando,,,,,,123.4126,124.6124,1,0,0.6743,,0,69,69,51,1,non_cognate,1,REAL,FALSA
,,,,,,,,,64d53aae0f3f7317f6eb617e,001,2024-06-30_06h16.24.313,empathy_intonation_perc,2024.1.4,MacIntel,59.88023952,,,,,,,,,,,,,,89,muñeca,,,,,,124.6125,126.0966,1,0,0.9478,,0,70,70,88,1,non_cognate,1,REAL,FALSA
,,,,,,,,,64d53aae0f3f7317f6eb617e,001,2024-06-30_06h16.24.313,empathy_intonation_perc,2024.1.4,MacIntel,59.88023952,,,,,,,,,,,,,,150,cricó,,,,,,126.0968,127.2625,0,1,0.6378,,0,71,71,149,1,pseudoword,0,REAL,FALSA
,,,,,,,,,64d53aae0f3f7317f6eb617e,001,2024-06-30_06h16.24.313,empathy_intonation_perc,2024.1.4,MacIntel,59.88023952,,,,,,,,,,,,,,120,mauja,,,,,,127.2627,128.9464,0,1,1.1691,,0,72,72,119,1,pseudoword,0,REAL,FALSA
,,,,,,,,,64d53aae0f3f7317f6eb617e,001,2024-06-30_06h16.24.313,empathy_intonation_perc,2024.1.4,MacIntel,59.88023952,,,,,,,,,,,,,,178,inichó,,,,,,128.9466,130.1803,0,1,0.7237,,0,73,73,177,1,pseudoword,0,REAL,FALSA
,,,,,,,,,64d53aae0f3f7317f6eb617e,001,2024-06-30_06h16.24.313,empathy_intonation_perc,2024.1.4,MacIntel,59.88023952,,,,,,,,,,,,,,32,animal,,,,,,130.1805,131.2969,1,0,0.5822,,0,74,74,31,1,two_way_cognate,1,REAL,FALSA
,,,,,,,,,64d53aae0f3f7317f6eb617e,001,2024-06-30_06h16.24.313,empathy_intonation_perc,2024.1.4,MacIntel,59.88023952,,,,,,,,,,,,,,30,fiscal,,,,,,131.2971,132.615,1,0,0.782,,0,75,75,29,1,two_way_cognate,1,REAL,FALSA
,,,,,,,,,64d53aae0f3f7317f6eb617e,001,2024-06-30_06h16.24.313,empathy_intonation_perc,2024.1.4,MacIntel,59.88023952,,,,,,,,,,,,,,110,densó,,,,,,132.6152,133.9814,1,0,0.8389,,0,76,76,109,1,pseudoword,0,REAL,FALSA
,,,,,,,,,64d53aae0f3f7317f6eb617e,001,2024-06-30_06h16.24.313,empathy_intonation_perc,2024.1.4,MacIntel,59.88023952,,,,,,,,,,,,,,183,edioso,,,,,,133.9816,135.3812,1,0,0.8724,,0,77,77,182,1,pseudoword,0,REAL,FALSA
,,,,,,,,,64d53aae0f3f7317f6eb617e,001,2024-06-30_06h16.24.313,empathy_intonation_perc,2024.1.4,MacIntel,59.88023952,,,,,,,,,,,,,,57,regalo,,,,,,135.3815,136.4649,0,1,0.5538,,0,78,78,56,1,non_cognate,1,REAL,FALSA
,,,,,,,,,64d53aae0f3f7317f6eb617e,001,2024-06-30_06h16.24.313,empathy_intonation_perc,2024.1.4,MacIntel,59.88023952,,,,,,,,,,,,,,170,diabo,,,,,,136.465,137.8653,0,1,0.8697,,0,79,79,169,1,pseudoword,0,REAL,FALSA
,,,,,,,,,64d53aae0f3f7317f6eb617e,001,2024-06-30_06h16.24.313,empathy_intonation_perc,2024.1.4,MacIntel,59.88023952,,,,,,,,,,,,,,179,suelet,,,,,,137.8656,139.0495,0,1,0.6645,,0,80,80,178,1,pseudoword,0,REAL,FALSA
,,,,,,,,,64d53aae0f3f7317f6eb617e,001,2024-06-30_06h16.24.313,empathy_intonation_perc,2024.1.4,MacIntel,59.88023952,,,,,,,,,,,,,,26,enigma,,,,,,139.0496,140.1162,1,0,0.5403,,0,81,81,25,1,two_way_cognate,1,REAL,FALSA
,,,,,,,,,64d53aae0f3f7317f6eb617e,001,2024-06-30_06h16.24.313,empathy_intonation_perc,2024.1.4,MacIntel,59.88023952,,,,,,,,,,,,,,140,chorde,,,,,,140.1164,141.4831,0,1,0.858,,0,82,82,139,1,pseudoword,0,REAL,FALSA
,,,,,,,,,64d53aae0f3f7317f6eb617e,001,2024-06-30_06h16.24.313,empathy_intonation_perc,2024.1.4,MacIntel,59.88023952,,,,,,,,,,,,,,66,aleta,,,,,,141.4833,142.884,0,1,0.891,,0,83,83,65,1,non_cognate,1,REAL,FALSA
,,,,,,,,,64d53aae0f3f7317f6eb617e,001,2024-06-30_06h16.24.313,empathy_intonation_perc,2024.1.4,MacIntel,59.88023952,,,,,,,,,,,,,,174,pabea,,,,,,142.8842,144.0503,0,1,0.6318,,0,84,84,173,1,pseudoword,0,REAL,FALSA
,,,,,,,,,64d53aae0f3f7317f6eb617e,001,2024-06-30_06h16.24.313,empathy_intonation_perc,2024.1.4,MacIntel,59.88023952,,,,,,,,,,,,,,49,teñir,,,,,,144.0505,145.0504,1,0,0.4912,,0,85,85,48,1,non_cognate,1,REAL,FALSA
,,,,,,,,,64d53aae0f3f7317f6eb617e,001,2024-06-30_06h16.24.313,empathy_intonation_perc,2024.1.4,MacIntel,59.88023952,,,,,,,,,,,,,,112,samón,,,,,,145.0506,146.3674,1,0,0.7974,,0,86,86,111,1,pseudoword,0,REAL,FALSA
,,,,,,,,,64d53aae0f3f7317f6eb617e,001,2024-06-30_06h16.24.313,empathy_intonation_perc,2024.1.4,MacIntel,59.88023952,,,,,,,,,,,,,,164,tecia,,,,,,146.3677,147.8684,0,1,0.9669,,0,87,87,163,1,pseudoword,0,REAL,FALSA
,,,,,,,,,64d53aae0f3f7317f6eb617e,001,2024-06-30_06h16.24.313,empathy_intonation_perc,2024.1.4,MacIntel,59.88023952,,,,,,,,,,,,,,44,editor,,,,,,147.8686,148.9184,1,0,0.5206,,0,88,88,43,1,two_way_cognate,1,REAL,FALSA
,,,,,,,,,64d53aae0f3f7317f6eb617e,001,2024-06-30_06h16.24.313,empathy_intonation_perc,2024.1.4,MacIntel,59.88023952,,,,,,,,,,,,,,105,leniz,,,,,,148.9186,150.0024,0,1,0.5527,,0,89,89,104,1,pseudoword,0,REAL,FALSA
,,,,,,,,,64d53aae0f3f7317f6eb617e,001,2024-06-30_06h16.24.313,empathy_intonation_perc,2024.1.4,MacIntel,59.88023952,,,,,,,,,,,,,,28,ardor,,,,,,150.0025,151.2019,1,0,0.669,,0,90,90,27,1,two_way_cognate,1,REAL,FALSA
,,,,,,,,,64d53aae0f3f7317f6eb617e,001,2024-06-30_06h16.24.313,empathy_intonation_perc,2024.1.4,MacIntel,59.88023952,,,,,,,,,,,,,,130,dubo,,,,,,151.202,152.2693,0,1,0.5566,,0,91,91,129,1,pseudoword,0,REAL,FALSA
,,,,,,,,,64d53aae0f3f7317f6eb617e,001,2024-06-30_06h16.24.313,empathy_intonation_perc,2024.1.4,MacIntel,59.88023952,,,,,,,,,,,,,,127,vien,,,,,,152.2696,153.5034,0,1,0.6993,,0,92,92,126,1,pseudoword,0,REAL,FALSA
,,,,,,,,,64d53aae0f3f7317f6eb617e,001,2024-06-30_06h16.24.313,empathy_intonation_perc,2024.1.4,MacIntel,59.88023952,,,,,,,,,,,,,,137,trugo,,,,,,153.5036,154.8205,1,0,0.7839,,0,93,93,136,1,pseudoword,0,REAL,FALSA
,,,,,,,,,64d53aae0f3f7317f6eb617e,001,2024-06-30_06h16.24.313,empathy_intonation_perc,2024.1.4,MacIntel,59.88023952,,,,,,,,,,,,,,129,vinzó,,,,,,154.8207,156.2199,0,1,0.865,,0,94,94,128,1,pseudoword,0,REAL,FALSA
,,,,,,,,,64d53aae0f3f7317f6eb617e,001,2024-06-30_06h16.24.313,empathy_intonation_perc,2024.1.4,MacIntel,59.88023952,,,,,,,,,,,,,,62,pegar,,,,,,156.22,157.3873,1,0,0.65,,0,95,95,61,1,non_cognate,1,REAL,FALSA
,,,,,,,,,64d53aae0f3f7317f6eb617e,001,2024-06-30_06h16.24.313,empathy_intonation_perc,2024.1.4,MacIntel,59.88023952,,,,,,,,,,,,,,111,monue,,,,,,157.3875,158.5204,0,1,0.604,,0,96,96,110,1,pseudoword,0,REAL,FALSA
,,,,,,,,,64d53aae0f3f7317f6eb617e,001,2024-06-30_06h16.24.313,empathy_intonation_perc,2024.1.4,MacIntel,59.88023952,,,,,,,,,,,,,,116,grigir,,,,,,158.5206,159.8383,0,1,0.8047,,0,97,97,115,1,pseudoword,0,REAL,FALSA
,,,,,,,,,64d53aae0f3f7317f6eb617e,001,2024-06-30_06h16.24.313,empathy_intonation_perc,2024.1.4,MacIntel,59.88023952,,,,,,,,,,,,,,103,vueras,,,,,,159.8385,161.0211,0,1,0.6491,,0,98,98,102,1,pseudoword,0,REAL,FALSA
,,,,,,,,,64d53aae0f3f7317f6eb617e,001,2024-06-30_06h16.24.313,empathy_intonation_perc,2024.1.4,MacIntel,59.88023952,,,,,,,,,,,,,,88,percha,,,,,,161.0213,162.4225,1,0,0.8644,,0,99,99,87,1,non_cognate,1,REAL,FALSA
,,,,,,,,,64d53aae0f3f7317f6eb617e,001,2024-06-30_06h16.24.313,empathy_intonation_perc,2024.1.4,MacIntel,59.88023952,,,,,,,,,,,,,,15,test,,,,,,162.4227,163.5893,0,1,0.6321,,0,100,100,14,1,three_way_cognate,1,REAL,FALSA
,,,,,,,,,64d53aae0f3f7317f6eb617e,001,2024-06-30_06h16.24.313,empathy_intonation_perc,2024.1.4,MacIntel,59.88023952,,,,,,,,,,,,,,99,bugor,,,,,,163.5896,164.7223,0,1,0.603,,0,101,101,98,1,pseudoword,0,REAL,FALSA
,,,,,,,,,64d53aae0f3f7317f6eb617e,001,2024-06-30_06h16.24.313,empathy_intonation_perc,2024.1.4,MacIntel,59.88023952,,,,,,,,,,,,,,77,suave,,,,,,164.7225,165.7723,1,0,0.5143,,0,102,102,76,1,non_cognate,1,REAL,FALSA
,,,,,,,,,64d53aae0f3f7317f6eb617e,001,2024-06-30_06h16.24.313,empathy_intonation_perc,2024.1.4,MacIntel,59.88023952,,,,,,,,,,,,,,42,rumor,,,,,,165.7725,166.956,0,1,0.6582,,0,103,103,41,1,two_way_cognate,1,REAL,FALSA
,,,,,,,,,64d53aae0f3f7317f6eb617e,001,2024-06-30_06h16.24.313,empathy_intonation_perc,2024.1.4,MacIntel,59.88023952,,,,,,,,,,,,,,119,esís,,,,,,166.9563,168.1064,0,1,0.6321,,0,104,104,118,1,pseudoword,0,REAL,FALSA
,,,,,,,,,64d53aae0f3f7317f6eb617e,001,2024-06-30_06h16.24.313,empathy_intonation_perc,2024.1.4,MacIntel,59.88023952,,,,,,,,,,,,,,159,trcia,,,,,,168.1066,169.3234,0,1,0.6828,,0,105,105,158,1,pseudoword,0,REAL,FALSA
,,,,,,,,,64d53aae0f3f7317f6eb617e,001,2024-06-30_06h16.24.313,empathy_intonation_perc,2024.1.4,MacIntel,59.88023952,,,,,,,,,,,,,,8,kilo,,,,,,169.3237,170.4744,1,0,0.6314,,0,106,106,7,1,three_way_cognate,1,REAL,FALSA
,,,,,,,,,64d53aae0f3f7317f6eb617e,001,2024-06-30_06h16.24.313,empathy_intonation_perc,2024.1.4,MacIntel,59.88023952,,,,,,,,,,,,,,84,aviso,,,,,,170.4746,171.8574,1,0,0.8534,,0,107,107,83,1,non_cognate,1,REAL,FALSA
,,,,,,,,,64d53aae0f3f7317f6eb617e,001,2024-06-30_06h16.24.313,empathy_intonation_perc,2024.1.4,MacIntel,59.88023952,,,,,,,,,,,,,,152,prave,,,,,,171.8576,173.091,0,1,0.7083,,0,108,108,151,1,pseudoword,0,REAL,FALSA
,,,,,,,,,64d53aae0f3f7317f6eb617e,001,2024-06-30_06h16.24.313,empathy_intonation_perc,2024.1.4,MacIntel,59.88023952,,,,,,,,,,,,,,155,kugis,,,,,,173.0912,174.4422,0,1,0.8358,,0,109,109,154,1,pseudoword,0,REAL,FALSA
,,,,,,,,,64d53aae0f3f7317f6eb617e,001,2024-06-30_06h16.24.313,empathy_intonation_perc,2024.1.4,MacIntel,59.88023952,,,,,,,,,,,,,,109,laras,,,,,,174.4423,175.6583,1,0,0.6917,,0,110,110,108,1,pseudoword,0,REAL,FALSA
,,,,,,,,,64d53aae0f3f7317f6eb617e,001,2024-06-30_06h16.24.313,empathy_intonation_perc,2024.1.4,MacIntel,59.88023952,,,,,,,,,,,,,,186,rizate,,,,,,175.6585,176.8589,1,0,0.6675,,0,111,111,185,1,pseudoword,0,REAL,FALSA
,,,,,,,,,64d53aae0f3f7317f6eb617e,001,2024-06-30_06h16.24.313,empathy_intonation_perc,2024.1.4,MacIntel,59.88023952,,,,,,,,,,,,,,143,hurcos,,,,,,176.8591,178.309,0,1,0.9308,,0,112,112,142,1,pseudoword,0,REAL,FALSA
,,,,,,,,,64d53aae0f3f7317f6eb617e,001,2024-06-30_06h16.24.313,empathy_intonation_perc,2024.1.4,MacIntel,59.88023952,,,,,,,,,,,,,,132,nocó,,,,,,178.3091,179.4093,0,1,0.5862,,0,113,113,131,1,pseudoword,0,REAL,FALSA
,,,,,,,,,64d53aae0f3f7317f6eb617e,001,2024-06-30_06h16.24.313,empathy_intonation_perc,2024.1.4,MacIntel,59.88023952,,,,,,,,,,,,,,163,olzan,,,,,,179.4095,180.6764,0,1,0.7391,,0,114,114,162,1,pseudoword,0,REAL,FALSA
,,,,,,,,,64d53aae0f3f7317f6eb617e,001,2024-06-30_06h16.24.313,empathy_intonation_perc,2024.1.4,MacIntel,59.88023952,,,,,,,,,,,,,,1,moral,,,,,,180.6765,181.8933,1,0,0.6814,,0,115,115,0,1,three_way_cognate,1,REAL,FALSA
,,,,,,,,,64d53aae0f3f7317f6eb617e,001,2024-06-30_06h16.24.313,empathy_intonation_perc,2024.1.4,MacIntel,59.88023952,,,,,,,,,,,,,,91,equipo,,,,,,181.8936,182.9947,1,0,0.5765,,0,116,116,90,1,non_cognate,1,REAL,FALSA
,,,,,,,,,64d53aae0f3f7317f6eb617e,001,2024-06-30_06h16.24.313,empathy_intonation_perc,2024.1.4,MacIntel,59.88023952,,,,,,,,,,,,,,67,llamar,,,,,,182.9949,184.2103,1,0,0.6868,,0,117,117,66,1,non_cognate,1,REAL,FALSA
,,,,,,,,,64d53aae0f3f7317f6eb617e,001,2024-06-30_06h16.24.313,empathy_intonation_perc,2024.1.4,MacIntel,59.88023952,,,,,,,,,,,,,,68,puñal,,,,,,184.2105,185.4944,0,1,0.7488,,0,118,118,67,1,non_cognate,1,REAL,FALSA
,,,,,,,,,64d53aae0f3f7317f6eb617e,001,2024-06-30_06h16.24.313,empathy_intonation_perc,2024.1.4,MacIntel,59.88023952,,,,,,,,,,,,,,133,conso,,,,,,185.4946,187.1945,1,0,1.1751,,0,119,119,132,1,pseudoword,0,REAL,FALSA
,,,,,,,,,64d53aae0f3f7317f6eb617e,001,2024-06-30_06h16.24.313,empathy_intonation_perc,2024.1.4,MacIntel,59.88023952,,,,,,,,,,,,,,161,civas,,,,,,187.1946,188.295,1,0,0.582,,0,120,120,160,1,pseudoword,0,REAL,FALSA
,,,,,,,,,64d53aae0f3f7317f6eb617e,001,2024-06-30_06h16.24.313,empathy_intonation_perc,2024.1.4,MacIntel,59.88023952,,,,,,,,,,,,,,142,parre,,,,,,188.2953,189.4454,0,1,0.6392,,0,121,121,141,1,pseudoword,0,REAL,FALSA
,,,,,,,,,64d53aae0f3f7317f6eb617e,001,2024-06-30_06h16.24.313,empathy_intonation_perc,2024.1.4,MacIntel,59.88023952,,,,,,,,,,,,,,167,dobbo,,,,,,189.4456,190.7453,0,1,0.7658,,0,122,122,166,1,pseudoword,0,REAL,FALSA
,,,,,,,,,64d53aae0f3f7317f6eb617e,001,2024-06-30_06h16.24.313,empathy_intonation_perc,2024.1.4,MacIntel,59.88023952,,,,,,,,,,,,,,171,gotro,,,,,,190.7455,192.0295,1,0,0.7641,,0,123,123,170,1,pseudoword,0,REAL,FALSA
,,,,,,,,,64d53aae0f3f7317f6eb617e,001,2024-06-30_06h16.24.313,empathy_intonation_perc,2024.1.4,MacIntel,59.88023952,,,,,,,,,,,,,,118,bará,,,,,,192.0296,193.1464,0,1,0.5821,,0,124,124,117,1,pseudoword,0,REAL,FALSA
,,,,,,,,,64d53aae0f3f7317f6eb617e,001,2024-06-30_06h16.24.313,empathy_intonation_perc,2024.1.4,MacIntel,59.88023952,,,,,,,,,,,,,,95,listo,,,,,,193.1466,194.313,1,0,0.6365,,0,125,125,94,1,non_cognate,1,REAL,FALSA
,,,,,,,,,64d53aae0f3f7317f6eb617e,001,2024-06-30_06h16.24.313,empathy_intonation_perc,2024.1.4,MacIntel,59.88023952,,,,,,,,,,,,,,104,estulo,,,,,,194.3132,195.9633,0,1,1.1337,,0,126,126,103,1,pseudoword,0,REAL,FALSA
,,,,,,,,,64d53aae0f3f7317f6eb617e,001,2024-06-30_06h16.24.313,empathy_intonation_perc,2024.1.4,MacIntel,59.88023952,,,,,,,,,,,,,,139,sasos,,,,,,195.9635,197.0974,0,1,0.6039,,0,127,127,138,1,pseudoword,0,REAL,FALSA
,,,,,,,,,64d53aae0f3f7317f6eb617e,001,2024-06-30_06h16.24.313,empathy_intonation_perc,2024.1.4,MacIntel,59.88023952,,,,,,,,,,,,,,20,trauma,,,,,,197.0975,198.1644,1,0,0.5491,,0,128,128,19,1,three_way_cognate,1,REAL,FALSA
,,,,,,,,,64d53aae0f3f7317f6eb617e,001,2024-06-30_06h16.24.313,empathy_intonation_perc,2024.1.4,MacIntel,59.88023952,,,,,,,,,,,,,,187,nomata,,,,,,198.1646,199.4484,0,1,0.7533,,0,129,129,186,1,pseudoword,0,REAL,FALSA
,,,,,,,,,64d53aae0f3f7317f6eb617e,001,2024-06-30_06h16.24.313,empathy_intonation_perc,2024.1.4,MacIntel,59.88023952,,,,,,,,,,,,,,13,plan,,,,,,199.4485,200.8646,1,0,0.8825,,0,130,130,12,1,three_way_cognate,1,REAL,FALSA
,,,,,,,,,64d53aae0f3f7317f6eb617e,001,2024-06-30_06h16.24.313,empathy_intonation_perc,2024.1.4,MacIntel,59.88023952,,,,,,,,,,,,,,121,barbs,,,,,,200.8647,202.0324,0,1,0.6379,,0,131,131,120,1,pseudoword,0,REAL,FALSA
,,,,,,,,,64d53aae0f3f7317f6eb617e,001,2024-06-30_06h16.24.313,empathy_intonation_perc,2024.1.4,MacIntel,59.88023952,,,,,,,,,,,,,,188,amplir,,,,,,202.0326,203.4654,0,1,0.8993,,0,132,132,187,1,pseudoword,0,REAL,FALSA
,,,,,,,,,64d53aae0f3f7317f6eb617e,001,2024-06-30_06h16.24.313,empathy_intonation_perc,2024.1.4,MacIntel,59.88023952,,,,,,,,,,,,,,145,rúo,,,,,,203.4656,204.5824,0,1,0.5819,,0,133,133,144,1,pseudoword,0,REAL,FALSA
,,,,,,,,,64d53aae0f3f7317f6eb617e,001,2024-06-30_06h16.24.313,empathy_intonation_perc,2024.1.4,MacIntel,59.88023952,,,,,,,,,,,,,,58,colcha,,,,,,204.5825,205.5992,0,1,0.4874,,0,134,134,57,1,non_cognate,1,REAL,FALSA
,,,,,,,,,64d53aae0f3f7317f6eb617e,001,2024-06-30_06h16.24.313,empathy_intonation_perc,2024.1.4,MacIntel,59.88023952,,,,,,,,,,,,,,113,nasce,,,,,,205.5994,206.5492,0,1,0.4391,,0,135,135,112,1,pseudoword,0,REAL,FALSA
,,,,,,,,,64d53aae0f3f7317f6eb617e,001,2024-06-30_06h16.24.313,empathy_intonation_perc,2024.1.4,MacIntel,59.88023952,,,,,,,,,,,,,,22,mango,,,,,,206.5494,207.5334,1,0,0.4717,,0,136,136,21,1,three_way_cognate,1,REAL,FALSA
,,,,,,,,,64d53aae0f3f7317f6eb617e,001,2024-06-30_06h16.24.313,empathy_intonation_perc,2024.1.4,MacIntel,59.88023952,,,,,,,,,,,,,,9,portal,,,,,,207.5336,208.7842,1,0,0.7148,,0,137,137,8,1,three_way_cognate,1,REAL,FALSA
,,,,,,,,,64d53aae0f3f7317f6eb617e,001,2024-06-30_06h16.24.313,empathy_intonation_perc,2024.1.4,MacIntel,59.88023952,,,,,,,,,,,,,,59,feo,,,,,,208.7844,210.0503,1,0,0.7368,,0,138,138,58,1,non_cognate,1,REAL,FALSA
,,,,,,,,,64d53aae0f3f7317f6eb617e,001,2024-06-30_06h16.24.313,empathy_intonation_perc,2024.1.4,MacIntel,59.88023952,,,,,,,,,,,,,,114,dibrea,,,,,,210.0505,211.3505,0,1,0.7804,,0,139,139,113,1,pseudoword,0,REAL,FALSA
,,,,,,,,,64d53aae0f3f7317f6eb617e,001,2024-06-30_06h16.24.313,empathy_intonation_perc,2024.1.4,MacIntel,59.88023952,,,,,,,,,,,,,,92,flecha,,,,,,211.3507,212.6508,1,0,0.7907,,0,140,140,91,1,non_cognate,1,REAL,FALSA
,,,,,,,,,64d53aae0f3f7317f6eb617e,001,2024-06-30_06h16.24.313,empathy_intonation_perc,2024.1.4,MacIntel,59.88023952,,,,,,,,,,,,,,51,listo,,,,,,212.6511,213.7513,1,0,0.5877,,0,141,141,50,1,non_cognate,1,REAL,FALSA
,,,,,,,,,64d53aae0f3f7317f6eb617e,001,2024-06-30_06h16.24.313,empathy_intonation_perc,2024.1.4,MacIntel,59.88023952,,,,,,,,,,,,,,107,plago,,,,,,213.7514,214.8854,0,1,0.599,,0,142,142,106,1,pseudoword,0,REAL,FALSA
,,,,,,,,,64d53aae0f3f7317f6eb617e,001,2024-06-30_06h16.24.313,empathy_intonation_perc,2024.1.4,MacIntel,59.88023952,,,,,,,,,,,,,,7,albino,,,,,,214.8856,216.0518,1,0,0.6406,,0,143,143,6,1,three_way_cognate,1,REAL,FALSA
,,,,,,,,,64d53aae0f3f7317f6eb617e,001,2024-06-30_06h16.24.313,empathy_intonation_perc,2024.1.4,MacIntel,59.88023952,,,,,,,,,,,,,,141,virios,,,,,,216.0519,217.3024,0,1,0.7216,,0,144,144,140,1,pseudoword,0,REAL,FALSA
,,,,,,,,,64d53aae0f3f7317f6eb617e,001,2024-06-30_06h16.24.313,empathy_intonation_perc,2024.1.4,MacIntel,59.88023952,,,,,,,,,,,,,,177,entodo,,,,,,217.3026,218.5864,1,0,0.7495,,0,145,145,176,1,pseudoword,0,REAL,FALSA
,,,,,,,,,64d53aae0f3f7317f6eb617e,001,2024-06-30_06h16.24.313,empathy_intonation_perc,2024.1.4,MacIntel,59.88023952,,,,,,,,,,,,,,78,rendir,,,,,,218.5867,219.8364,1,0,0.717,,0,146,146,77,1,non_cognate,1,REAL,FALSA
,,,,,,,,,64d53aae0f3f7317f6eb617e,001,2024-06-30_06h16.24.313,empathy_intonation_perc,2024.1.4,MacIntel,59.88023952,,,,,,,,,,,,,,90,venado,,,,,,219.8367,220.9371,1,0,0.5643,,0,147,147,89,1,non_cognate,1,REAL,FALSA
,,,,,,,,,64d53aae0f3f7317f6eb617e,001,2024-06-30_06h16.24.313,empathy_intonation_perc,2024.1.4,MacIntel,59.88023952,,,,,,,,,,,,,,81,sacar,,,,,,220.9374,221.9535,0,1,0.4818,,0,148,148,80,1,non_cognate,1,REAL,FALSA
,,,,,,,,,64d53aae0f3f7317f6eb617e,001,2024-06-30_06h16.24.313,empathy_intonation_perc,2024.1.4,MacIntel,59.88023952,,,,,,,,,,,,,,31,civil,,,,,,221.9537,223.1375,1,0,0.6493,,0,149,149,30,1,two_way_cognate,1,REAL,FALSA
,,,,,,,,,64d53aae0f3f7317f6eb617e,001,2024-06-30_06h16.24.313,empathy_intonation_perc,2024.1.4,MacIntel,59.88023952,,,,,,,,,,,,,,16,chat,,,,,,223.1376,224.7039,0,1,1.0373,,0,150,150,15,1,three_way_cognate,1,REAL,FALSA
,,,,,,,,,64d53aae0f3f7317f6eb617e,001,2024-06-30_06h16.24.313,empathy_intonation_perc,2024.1.4,MacIntel,59.88023952,,,,,,,,,,,,,,11,golf,,,,,,224.7041,225.7875,1,0,0.5741,,0,151,151,10,1,three_way_cognate,1,REAL,FALSA
,,,,,,,,,64d53aae0f3f7317f6eb617e,001,2024-06-30_06h16.24.313,empathy_intonation_perc,2024.1.4,MacIntel,59.88023952,,,,,,,,,,,,,,144,diroco,,,,,,225.7877,227.1053,0,1,0.7884,,0,152,152,143,1,pseudoword,0,REAL,FALSA
,,,,,,,,,64d53aae0f3f7317f6eb617e,001,2024-06-30_06h16.24.313,empathy_intonation_perc,2024.1.4,MacIntel,59.88023952,,,,,,,,,,,,,,162,cengo,,,,,,227.1055,228.2215,0,1,0.5822,,0,153,153,161,1,pseudoword,0,REAL,FALSA
,,,,,,,,,64d53aae0f3f7317f6eb617e,001,2024-06-30_06h16.24.313,empathy_intonation_perc,2024.1.4,MacIntel,59.88023952,,,,,,,,,,,,,,100,épinas,,,,,,228.2217,229.6054,0,1,0.8656,,0,154,154,99,1,pseudoword,0,REAL,FALSA
,,,,,,,,,64d53aae0f3f7317f6eb617e,001,2024-06-30_06h16.24.313,empathy_intonation_perc,2024.1.4,MacIntel,59.88023952,,,,,,,,,,,,,,37,torso,,,,,,229.6056,230.5722,1,0,0.432,,0,155,155,36,1,two_way_cognate,1,REAL,FALSA
,,,,,,,,,64d53aae0f3f7317f6eb617e,001,2024-06-30_06h16.24.313,empathy_intonation_perc,2024.1.4,MacIntel,59.88023952,,,,,,,,,,,,,,192,próces,,,,,,230.5723,231.839,0,1,0.7378,,0,156,156,191,1,pseudoword,0,REAL,FALSA
,,,,,,,,,64d53aae0f3f7317f6eb617e,001,2024-06-30_06h16.24.313,empathy_intonation_perc,2024.1.4,MacIntel,59.88023952,,,,,,,,,,,,,,18,altar,,,,,,231.8392,232.9393,1,0,0.5916,,0,157,157,17,1,three_way_cognate,1,REAL,FALSA
,,,,,,,,,64d53aae0f3f7317f6eb617e,001,2024-06-30_06h16.24.313,empathy_intonation_perc,2024.1.4,MacIntel,59.88023952,,,,,,,,,,,,,,45,total,,,,,,232.9395,234.1234,1,0,0.6503,,0,158,158,44,1,two_way_cognate,1,REAL,FALSA
,,,,,,,,,64d53aae0f3f7317f6eb617e,001,2024-06-30_06h16.24.313,empathy_intonation_perc,2024.1.4,MacIntel,59.88023952,,,,,,,,,,,,,,48,pelvis,,,,,,234.1236,235.5074,1,0,0.8476,,0,159,159,47,1,two_way_cognate,1,REAL,FALSA
,,,,,,,,,64d53aae0f3f7317f6eb617e,001,2024-06-30_06h16.24.313,empathy_intonation_perc,2024.1.4,MacIntel,59.88023952,,,,,,,,,,,,,,124,lobe,,,,,,235.5076,237.1747,0,1,1.131,,0,160,160,123,1,pseudoword,0,REAL,FALSA
,,,,,,,,,64d53aae0f3f7317f6eb617e,001,2024-06-30_06h16.24.313,empathy_intonation_perc,2024.1.4,MacIntel,59.88023952,,,,,,,,,,,,,,86,cuenco,,,,,,237.1748,238.5914,0,1,0.8811,,0,161,161,85,1,non_cognate,1,REAL,FALSA
,,,,,,,,,64d53aae0f3f7317f6eb617e,001,2024-06-30_06h16.24.313,empathy_intonation_perc,2024.1.4,MacIntel,59.88023952,,,,,,,,,,,,,,6,horror,,,,,,238.5917,239.7915,1,0,0.664,,0,162,162,5,1,three_way_cognate,1,REAL,FALSA
,,,,,,,,,64d53aae0f3f7317f6eb617e,001,2024-06-30_06h16.24.313,empathy_intonation_perc,2024.1.4,MacIntel,59.88023952,,,,,,,,,,,,,,55,maldad,,,,,,239.7916,240.958,0,1,0.6392,,0,163,163,54,1,non_cognate,1,REAL,FALSA
,,,,,,,,,64d53aae0f3f7317f6eb617e,001,2024-06-30_06h16.24.313,empathy_intonation_perc,2024.1.4,MacIntel,59.88023952,,,,,,,,,,,,,,5,extra,,,,,,240.9582,242.1084,1,0,0.6395,,0,164,164,4,1,three_way_cognate,1,REAL,FALSA
,,,,,,,,,64d53aae0f3f7317f6eb617e,001,2024-06-30_06h16.24.313,empathy_intonation_perc,2024.1.4,MacIntel,59.88023952,,,,,,,,,,,,,,146,gió,,,,,,242.1086,243.1919,0,1,0.5644,,0,165,165,145,1,pseudoword,0,REAL,FALSA
,,,,,,,,,64d53aae0f3f7317f6eb617e,001,2024-06-30_06h16.24.313,empathy_intonation_perc,2024.1.4,MacIntel,59.88023952,,,,,,,,,,,,,,34,actor,,,,,,243.1921,244.2594,1,0,0.5507,,0,166,166,33,1,two_way_cognate,1,REAL,FALSA
,,,,,,,,,64d53aae0f3f7317f6eb617e,001,2024-06-30_06h16.24.313,empathy_intonation_perc,2024.1.4,MacIntel,59.88023952,,,,,,,,,,,,,,136,hueas,,,,,,244.2595,245.4257,0,1,0.6318,,0,167,167,135,1,pseudoword,0,REAL,FALSA
,,,,,,,,,64d53aae0f3f7317f6eb617e,001,2024-06-30_06h16.24.313,empathy_intonation_perc,2024.1.4,MacIntel,59.88023952,,,,,,,,,,,,,,96,caro,,,,,,245.426,246.3927,0,1,0.4319,,0,168,168,95,1,non_cognate,1,REAL,FALSA
,,,,,,,,,64d53aae0f3f7317f6eb617e,001,2024-06-30_06h16.24.313,empathy_intonation_perc,2024.1.4,MacIntel,59.88023952,,,,,,,,,,,,,,166,anfia,,,,,,246.3929,247.7435,0,1,0.8325,,0,169,169,165,1,pseudoword,0,REAL,FALSA
,,,,,,,,,64d53aae0f3f7317f6eb617e,001,2024-06-30_06h16.24.313,empathy_intonation_perc,2024.1.4,MacIntel,59.88023952,,,,,,,,,,,,,,190,asumie,,,,,,247.7437,249.0604,0,1,0.7823,,0,170,170,189,1,pseudoword,0,REAL,FALSA
,,,,,,,,,64d53aae0f3f7317f6eb617e,001,2024-06-30_06h16.24.313,empathy_intonation_perc,2024.1.4,MacIntel,59.88023952,,,,,,,,,,,,,,54,tapón,,,,,,249.0606,250.4473,1,0,0.8537,,0,171,171,53,1,non_cognate,1,REAL,FALSA
,,,,,,,,,64d53aae0f3f7317f6eb617e,001,2024-06-30_06h16.24.313,empathy_intonation_perc,2024.1.4,MacIntel,59.88023952,,,,,,,,,,,,,,39,casual,,,,,,250.4474,251.544,1,0,0.5711,,0,172,172,38,1,two_way_cognate,1,REAL,FALSA
,,,,,,,,,64d53aae0f3f7317f6eb617e,001,2024-06-30_06h16.24.313,empathy_intonation_perc,2024.1.4,MacIntel,59.88023952,,,,,,,,,,,,,,43,honor,,,,,,251.5441,252.611,1,0,0.5501,,0,173,173,42,1,two_way_cognate,1,REAL,FALSA
,,,,,,,,,64d53aae0f3f7317f6eb617e,001,2024-06-30_06h16.24.313,empathy_intonation_perc,2024.1.4,MacIntel,59.88023952,,,,,,,,,,,,,,80,cuenco,,,,,,252.6112,253.7946,0,1,0.6672,,0,174,174,79,1,non_cognate,1,REAL,FALSA
,,,,,,,,,64d53aae0f3f7317f6eb617e,001,2024-06-30_06h16.24.313,empathy_intonation_perc,2024.1.4,MacIntel,59.88023952,,,,,,,,,,,,,,41,pasta,,,,,,253.7948,254.8786,1,0,0.5698,,0,175,175,40,1,two_way_cognate,1,REAL,FALSA
,,,,,,,,,64d53aae0f3f7317f6eb617e,001,2024-06-30_06h16.24.313,empathy_intonation_perc,2024.1.4,MacIntel,59.88023952,,,,,,,,,,,,,,60,siglo,,,,,,254.8787,255.9785,0,1,0.5752,,0,176,176,59,1,non_cognate,1,REAL,FALSA
,,,,,,,,,64d53aae0f3f7317f6eb617e,001,2024-06-30_06h16.24.313,empathy_intonation_perc,2024.1.4,MacIntel,59.88023952,,,,,,,,,,,,,,101,losco,,,,,,255.9787,257.4122,0,1,0.9068,,0,177,177,100,1,pseudoword,0,REAL,FALSA
,,,,,,,,,64d53aae0f3f7317f6eb617e,001,2024-06-30_06h16.24.313,empathy_intonation_perc,2024.1.4,MacIntel,59.88023952,,,,,,,,,,,,,,27,piano,,,,,,257.4124,258.3793,1,0,0.4418,,0,178,178,26,1,two_way_cognate,1,REAL,FALSA
,,,,,,,,,64d53aae0f3f7317f6eb617e,001,2024-06-30_06h16.24.313,empathy_intonation_perc,2024.1.4,MacIntel,59.88023952,,,,,,,,,,,,,,35,aurora,,,,,,258.3795,259.6465,1,0,0.7307,,0,179,179,34,1,two_way_cognate,1,REAL,FALSA
,,,,,,,,,64d53aae0f3f7317f6eb617e,001,2024-06-30_06h16.24.313,empathy_intonation_perc,2024.1.4,MacIntel,59.88023952,,,,,,,,,,,,,,36,viable,,,,,,259.6466,261.1132,0,1,0.9528,,0,180,180,35,1,two_way_cognate,1,REAL,FALSA
,,,,,,,,,64d53aae0f3f7317f6eb617e,001,2024-06-30_06h16.24.313,empathy_intonation_perc,2024.1.4,MacIntel,59.88023952,,,,,,,,,,,,,,82,brillo,,,,,,261.1134,262.3303,1,0,0.7036,,0,181,181,81,1,non_cognate,1,REAL,FALSA
,,,,,,,,,64d53aae0f3f7317f6eb617e,001,2024-06-30_06h16.24.313,empathy_intonation_perc,2024.1.4,MacIntel,59.88023952,,,,,,,,,,,,,,79,suelo,,,,,,262.3305,263.5805,0,1,0.7241,,0,182,182,78,1,non_cognate,1,REAL,FALSA
,,,,,,,,,64d53aae0f3f7317f6eb617e,001,2024-06-30_06h16.24.313,empathy_intonation_perc,2024.1.4,MacIntel,59.88023952,,,,,,,,,,,,,,40,pelvis,,,,,,263.5807,264.9983,0,1,0.9055,,0,183,183,39,1,two_way_cognate,1,REAL,FALSA
,,,,,,,,,64d53aae0f3f7317f6eb617e,001,2024-06-30_06h16.24.313,empathy_intonation_perc,2024.1.4,MacIntel,59.88023952,,,,,,,,,,,,,,2,tumor,,,,,,264.9984,266.4483,0,1,0.9211,,0,184,184,1,1,three_way_cognate,1,REAL,FALSA
,,,,,,,,,64d53aae0f3f7317f6eb617e,001,2024-06-30_06h16.24.313,empathy_intonation_perc,2024.1.4,MacIntel,59.88023952,,,,,,,,,,,,,,180,pupica,,,,,,266.4485,267.8322,0,1,0.8555,,0,185,185,179,1,pseudoword,0,REAL,FALSA
,,,,,,,,,64d53aae0f3f7317f6eb617e,001,2024-06-30_06h16.24.313,empathy_intonation_perc,2024.1.4,MacIntel,59.88023952,,,,,,,,,,,,,,21,hotel,,,,,,267.8324,268.8653,1,0,0.5001,,0,186,186,20,1,three_way_cognate,1,REAL,FALSA
,,,,,,,,,64d53aae0f3f7317f6eb617e,001,2024-06-30_06h16.24.313,empathy_intonation_perc,2024.1.4,MacIntel,59.88023952,,,,,,,,,,,,,,125,ceme,,,,,,268.8655,270.0825,0,1,0.6857,,0,187,187,124,1,pseudoword,0,REAL,FALSA
,,,,,,,,,64d53aae0f3f7317f6eb617e,001,2024-06-30_06h16.24.313,empathy_intonation_perc,2024.1.4,MacIntel,59.88023952,,,,,,,,,,,,,,158,babrá,,,,,,270.0826,271.3664,0,1,0.7561,,0,188,188,157,1,pseudoword,0,REAL,FALSA
,,,,,,,,,64d53aae0f3f7317f6eb617e,001,2024-06-30_06h16.24.313,empathy_intonation_perc,2024.1.4,MacIntel,59.88023952,,,,,,,,,,,,,,3,disco,,,,,,271.3665,272.4834,1,0,0.5847,,0,189,189,2,1,three_way_cognate,1,REAL,FALSA
,,,,,,,,,64d53aae0f3f7317f6eb617e,001,2024-06-30_06h16.24.313,empathy_intonation_perc,2024.1.4,MacIntel,59.88023952,,,,,,,,,,,,,,189,medium,,,,,,272.4836,273.8335,0,1,0.8164,,0,190,190,188,1,pseudoword,0,REAL,FALSA
,,,,,,,,,64d53aae0f3f7317f6eb617e,001,2024-06-30_06h16.24.313,empathy_intonation_perc,2024.1.4,MacIntel,59.88023952,,,,,,,,,,,,,,17,clan,,,,,,273.8336,275.1504,0,1,0.7879,,0,191,191,16,1,three_way_cognate,1,REAL,FALSA
