lextale_instructions.started,lextale_instructions.stopped,lextale_instructions_loop.thisRepN,lextale_instructions_loop.thisTrialN,lextale_instructions_loop.thisN,lextale_instructions_loop.thisIndex,lextale_instructions_loop.ran,instructions_text,continue_text,participant,session,date,expName,psychopyVersion,OS,frameRate,lextale_practice.started,lextale_practice.stopped,key_resp_lextale_practice.keys,key_resp_lextale_practice.corr,key_resp_lextale_practice.rt,key_resp_lextale_practice.duration,lextale_practice_feedback.started,lextale_practice_feedback.stopped,lextale_practice_trials.thisRepN,lextale_practice_trials.thisTrialN,lextale_practice_trials.thisN,lextale_practice_trials.thisIndex,lextale_practice_trials.ran,stim,word,correct_response,prac_button_real,prac_button_false,lextale_check.started,lextale_check.stopped,lextale_trial.started,lextale_trial.stopped,key_resp_lextale_trial.keys,key_resp_lextale_trial.corr,key_resp_lextale_trial.rt,key_resp_lextale_trial.duration,lextail_trials.thisRepN,lextail_trials.thisTrialN,lextail_trials.thisN,lextail_trials.thisIndex,lextail_trials.ran,type,correct_reponse,button_real,button_false
0.003,1.503,0,0,0,0,1,"Este es un test de vocabulario en español. 
  
  A continuación vas a ver 90 secuencias de letras que parecen 'españolas'.
  
  Solo algunas de ellas son palabras de verdad.",(presiona la barra espaciadora para continuar),654ba95a19813f11335c3098,001,2024-06-30_04h32.58.321,empathy_intonation_perc,2024.1.4,Win32,60.0240096,,,,,,,,,,,,,,,,,,,,,,,,,,,,,,,,,,,
1.504,1.986,0,1,1,1,1,"Por favor, señala las palabras que tú conoces (aquellas que estás convencido que son palabras españolas, incluso aunque no seas capaz de dar el significado preciso).",(presiona la barra espaciadora para continuar),654ba95a19813f11335c3098,001,2024-06-30_04h32.58.321,empathy_intonation_perc,2024.1.4,Win32,60.0240096,,,,,,,,,,,,,,,,,,,,,,,,,,,,,,,,,,,
1.987,2.489,0,2,2,2,1,Pero cuidado: los errores se penalizan. Por eso no tiene sentido tratar de incrementar tu puntuación marcando como reales palabras que nunca has visto.,(presiona la barra espaciadora para continuar),654ba95a19813f11335c3098,001,2024-06-30_04h32.58.321,empathy_intonation_perc,2024.1.4,Win32,60.0240096,,,,,,,,,,,,,,,,,,,,,,,,,,,,,,,,,,,
2.492,3.004,0,3,3,3,1,"Presiona la tecla 1 si piensas que es una palabra real y la tecla 
  0 si piensas que es una palabra falsa. 
  
  Vamos a practicar un poco...",(presiona la barra espaciadora para continuar),654ba95a19813f11335c3098,001,2024-06-30_04h32.58.321,empathy_intonation_perc,2024.1.4,Win32,60.0240096,,,,,,,,,,,,,,,,,,,,,,,,,,,,,,,,,,,
,,,,,,,,,654ba95a19813f11335c3098,001,2024-06-30_04h32.58.321,empathy_intonation_perc,2024.1.4,Win32,60.0240096,3.014,5.951,0,1,2.411,,5.952,6.95,0,0,0,0,1,0,depiste,0,REAL,FALSA,,,,,,,,,,,,,,,,,
,,,,,,,,,654ba95a19813f11335c3098,001,2024-06-30_04h32.58.321,empathy_intonation_perc,2024.1.4,Win32,60.0240096,6.951,8.904,1,1,1.415,,8.906,9.899,0,1,1,1,1,0,sí,1,REAL,FALSA,,,,,,,,,,,,,,,,,
,,,,,,,,,654ba95a19813f11335c3098,001,2024-06-30_04h32.58.321,empathy_intonation_perc,2024.1.4,Win32,60.0240096,9.899,11.464,0,1,1.019,,11.464,12.464,0,2,2,2,1,0,coné,0,REAL,FALSA,,,,,,,,,,,,,,,,,
,,,,,,,,,654ba95a19813f11335c3098,001,2024-06-30_04h32.58.321,empathy_intonation_perc,2024.1.4,Win32,60.0240096,12.465,13.771,0,1,0.766,,13.771,14.764,0,3,3,3,1,0,calpar,0,REAL,FALSA,,,,,,,,,,,,,,,,,
,,,,,,,,,654ba95a19813f11335c3098,001,2024-06-30_04h32.58.321,empathy_intonation_perc,2024.1.4,Win32,60.0240096,14.765,16.512,1,0,1.216,,16.512,17.512,0,4,4,4,1,0,joten,0,REAL,FALSA,,,,,,,,,,,,,,,,,
,,,,,,,,,654ba95a19813f11335c3098,001,2024-06-30_04h32.58.321,empathy_intonation_perc,2024.1.4,Win32,60.0240096,17.513,18.929,1,1,0.877,,18.931,19.927,0,5,5,5,1,0,sacapuntas,1,REAL,FALSA,,,,,,,,,,,,,,,,,
,,,,,,,,,654ba95a19813f11335c3098,001,2024-06-30_04h32.58.321,empathy_intonation_perc,2024.1.4,Win32,60.0240096,19.932,21.199,0,1,0.73,,21.199,22.194,0,6,6,6,1,0,priba,0,REAL,FALSA,,,,,,,,,,,,,,,,,
,,,,,,,,,654ba95a19813f11335c3098,001,2024-06-30_04h32.58.321,empathy_intonation_perc,2024.1.4,Win32,60.0240096,22.195,29.709,0,1,6.996,,29.709,30.707,0,7,7,7,1,0,pelasula,0,REAL,FALSA,,,,,,,,,,,,,,,,,
,,,,,,,,,654ba95a19813f11335c3098,001,2024-06-30_04h32.58.321,empathy_intonation_perc,2024.1.4,Win32,60.0240096,30.708,34.504,1,1,3.249,,34.504,35.504,0,8,8,8,1,0,bien,1,REAL,FALSA,,,,,,,,,,,,,,,,,
,,,,,,,,,654ba95a19813f11335c3098,001,2024-06-30_04h32.58.321,empathy_intonation_perc,2024.1.4,Win32,60.0240096,35.505,36.954,1,1,0.914,,36.954,37.953,0,9,9,9,1,0,casa,1,REAL,FALSA,,,,,,,,,,,,,,,,,
,,,,,,,,,654ba95a19813f11335c3098,001,2024-06-30_04h32.58.321,empathy_intonation_perc,2024.1.4,Win32,60.0240096,37.954,38.936,0,1,0.442,,38.936,39.934,0,10,10,10,1,0,lejo,0,REAL,FALSA,,,,,,,,,,,,,,,,,
,,,,,,,,,654ba95a19813f11335c3098,001,2024-06-30_04h32.58.321,empathy_intonation_perc,2024.1.4,Win32,60.0240096,39.935,40.868,0,1,0.402,,40.868,41.867,0,11,11,11,1,0,pretantas,0,REAL,FALSA,,,,,,,,,,,,,,,,,
,,,,,,,,,654ba95a19813f11335c3098,001,2024-06-30_04h32.58.321,empathy_intonation_perc,2024.1.4,Win32,60.0240096,,,,,,,,,,,,,,,,,,,41.868,43.7,,,,,,,,,,,,,,,
,,,,,,,,,654ba95a19813f11335c3098,001,2024-06-30_04h32.58.321,empathy_intonation_perc,2024.1.4,Win32,60.0240096,,,,,,,,,,,,,,96,caro,,,,,,43.727,45.732,0,1,1.471,,0,0,0,95,1,non_cognate,1,REAL,FALSA
,,,,,,,,,654ba95a19813f11335c3098,001,2024-06-30_04h32.58.321,empathy_intonation_perc,2024.1.4,Win32,60.0240096,,,,,,,,,,,,,,13,plan,,,,,,45.733,46.782,0,1,0.514,,0,1,1,12,1,three_way_cognate,1,REAL,FALSA
,,,,,,,,,654ba95a19813f11335c3098,001,2024-06-30_04h32.58.321,empathy_intonation_perc,2024.1.4,Win32,60.0240096,,,,,,,,,,,,,,78,rendir,,,,,,46.783,48.297,0,1,0.975,,0,2,2,77,1,non_cognate,1,REAL,FALSA
,,,,,,,,,654ba95a19813f11335c3098,001,2024-06-30_04h32.58.321,empathy_intonation_perc,2024.1.4,Win32,60.0240096,,,,,,,,,,,,,,46,mortal,,,,,,48.299,49.497,1,0,0.664,,0,3,3,45,1,two_way_cognate,1,REAL,FALSA
,,,,,,,,,654ba95a19813f11335c3098,001,2024-06-30_04h32.58.321,empathy_intonation_perc,2024.1.4,Win32,60.0240096,,,,,,,,,,,,,,34,actor,,,,,,49.498,50.732,1,0,0.69,,0,4,4,33,1,two_way_cognate,1,REAL,FALSA
,,,,,,,,,654ba95a19813f11335c3098,001,2024-06-30_04h32.58.321,empathy_intonation_perc,2024.1.4,Win32,60.0240096,,,,,,,,,,,,,,57,regalo,,,,,,50.739,52.096,0,1,0.827,,0,5,5,56,1,non_cognate,1,REAL,FALSA
,,,,,,,,,654ba95a19813f11335c3098,001,2024-06-30_04h32.58.321,empathy_intonation_perc,2024.1.4,Win32,60.0240096,,,,,,,,,,,,,,31,civil,,,,,,52.098,53.395,1,0,0.762,,0,6,6,30,1,two_way_cognate,1,REAL,FALSA
,,,,,,,,,654ba95a19813f11335c3098,001,2024-06-30_04h32.58.321,empathy_intonation_perc,2024.1.4,Win32,60.0240096,,,,,,,,,,,,,,90,venado,,,,,,53.396,54.727,0,1,0.794,,0,7,7,89,1,non_cognate,1,REAL,FALSA
,,,,,,,,,654ba95a19813f11335c3098,001,2024-06-30_04h32.58.321,empathy_intonation_perc,2024.1.4,Win32,60.0240096,,,,,,,,,,,,,,94,forro,,,,,,54.729,55.979,1,0,0.731,,0,8,8,93,1,non_cognate,1,REAL,FALSA
,,,,,,,,,654ba95a19813f11335c3098,001,2024-06-30_04h32.58.321,empathy_intonation_perc,2024.1.4,Win32,60.0240096,,,,,,,,,,,,,,143,hurcos,,,,,,55.981,57.477,0,1,0.958,,0,9,9,142,1,pseudoword,0,REAL,FALSA
,,,,,,,,,654ba95a19813f11335c3098,001,2024-06-30_04h32.58.321,empathy_intonation_perc,2024.1.4,Win32,60.0240096,,,,,,,,,,,,,,102,coyo,,,,,,57.478,58.76,0,1,0.739,,0,10,10,101,1,pseudoword,0,REAL,FALSA
,,,,,,,,,654ba95a19813f11335c3098,001,2024-06-30_04h32.58.321,empathy_intonation_perc,2024.1.4,Win32,60.0240096,,,,,,,,,,,,,,41,pasta,,,,,,58.761,61.359,0,1,2.067,,0,11,11,40,1,two_way_cognate,1,REAL,FALSA
,,,,,,,,,654ba95a19813f11335c3098,001,2024-06-30_04h32.58.321,empathy_intonation_perc,2024.1.4,Win32,60.0240096,,,,,,,,,,,,,,144,diroco,,,,,,61.36,63.525,0,1,1.634,,0,12,12,143,1,pseudoword,0,REAL,FALSA
,,,,,,,,,654ba95a19813f11335c3098,001,2024-06-30_04h32.58.321,empathy_intonation_perc,2024.1.4,Win32,60.0240096,,,,,,,,,,,,,,83,hálito,,,,,,63.529,64.474,1,0,0.405,,0,13,13,82,1,non_cognate,1,REAL,FALSA
,,,,,,,,,654ba95a19813f11335c3098,001,2024-06-30_04h32.58.321,empathy_intonation_perc,2024.1.4,Win32,60.0240096,,,,,,,,,,,,,,127,vien,,,,,,64.479,65.407,0,1,0.397,,0,14,14,126,1,pseudoword,0,REAL,FALSA
,,,,,,,,,654ba95a19813f11335c3098,001,2024-06-30_04h32.58.321,empathy_intonation_perc,2024.1.4,Win32,60.0240096,,,,,,,,,,,,,,91,equipo,,,,,,65.41,66.424,0,1,0.48,,0,15,15,90,1,non_cognate,1,REAL,FALSA
,,,,,,,,,654ba95a19813f11335c3098,001,2024-06-30_04h32.58.321,empathy_intonation_perc,2024.1.4,Win32,60.0240096,,,,,,,,,,,,,,147,alla,,,,,,66.424,68.328,0,1,1.368,,0,16,16,146,1,pseudoword,0,REAL,FALSA
,,,,,,,,,654ba95a19813f11335c3098,001,2024-06-30_04h32.58.321,empathy_intonation_perc,2024.1.4,Win32,60.0240096,,,,,,,,,,,,,,92,flecha,,,,,,68.329,69.655,0,1,0.794,,0,17,17,91,1,non_cognate,1,REAL,FALSA
,,,,,,,,,654ba95a19813f11335c3098,001,2024-06-30_04h32.58.321,empathy_intonation_perc,2024.1.4,Win32,60.0240096,,,,,,,,,,,,,,29,clamor,,,,,,69.655,70.771,0,1,0.593,,0,18,18,28,1,two_way_cognate,1,REAL,FALSA
,,,,,,,,,654ba95a19813f11335c3098,001,2024-06-30_04h32.58.321,empathy_intonation_perc,2024.1.4,Win32,60.0240096,,,,,,,,,,,,,,84,aviso,,,,,,70.775,71.87,0,1,0.561,,0,19,19,83,1,non_cognate,1,REAL,FALSA
,,,,,,,,,654ba95a19813f11335c3098,001,2024-06-30_04h32.58.321,empathy_intonation_perc,2024.1.4,Win32,60.0240096,,,,,,,,,,,,,,174,pabea,,,,,,71.871,72.91,0,1,0.52,,0,20,20,173,1,pseudoword,0,REAL,FALSA
,,,,,,,,,654ba95a19813f11335c3098,001,2024-06-30_04h32.58.321,empathy_intonation_perc,2024.1.4,Win32,60.0240096,,,,,,,,,,,,,,45,total,,,,,,72.914,73.869,0,1,0.432,,0,21,21,44,1,two_way_cognate,1,REAL,FALSA
,,,,,,,,,654ba95a19813f11335c3098,001,2024-06-30_04h32.58.321,empathy_intonation_perc,2024.1.4,Win32,60.0240096,,,,,,,,,,,,,,71,torta,,,,,,73.87,75.185,0,1,0.784,,0,22,22,70,1,non_cognate,1,REAL,FALSA
,,,,,,,,,654ba95a19813f11335c3098,001,2024-06-30_04h32.58.321,empathy_intonation_perc,2024.1.4,Win32,60.0240096,,,,,,,,,,,,,,176,gripar,,,,,,75.185,76.519,0,1,0.819,,0,23,23,175,1,pseudoword,0,REAL,FALSA
,,,,,,,,,654ba95a19813f11335c3098,001,2024-06-30_04h32.58.321,empathy_intonation_perc,2024.1.4,Win32,60.0240096,,,,,,,,,,,,,,77,suave,,,,,,76.52,77.786,0,1,0.733,,0,24,24,76,1,non_cognate,1,REAL,FALSA
,,,,,,,,,654ba95a19813f11335c3098,001,2024-06-30_04h32.58.321,empathy_intonation_perc,2024.1.4,Win32,60.0240096,,,,,,,,,,,,,,75,patada,,,,,,77.787,79.284,0,1,0.964,,0,25,25,74,1,non_cognate,1,REAL,FALSA
,,,,,,,,,654ba95a19813f11335c3098,001,2024-06-30_04h32.58.321,empathy_intonation_perc,2024.1.4,Win32,60.0240096,,,,,,,,,,,,,,36,viable,,,,,,79.284,80.666,0,1,0.858,,0,26,26,35,1,two_way_cognate,1,REAL,FALSA
,,,,,,,,,654ba95a19813f11335c3098,001,2024-06-30_04h32.58.321,empathy_intonation_perc,2024.1.4,Win32,60.0240096,,,,,,,,,,,,,,19,mafia,,,,,,80.666,82.133,0,1,0.941,,0,27,27,18,1,three_way_cognate,1,REAL,FALSA
,,,,,,,,,654ba95a19813f11335c3098,001,2024-06-30_04h32.58.321,empathy_intonation_perc,2024.1.4,Win32,60.0240096,,,,,,,,,,,,,,192,próces,,,,,,82.137,83.833,0,1,1.158,,0,28,28,191,1,pseudoword,0,REAL,FALSA
,,,,,,,,,654ba95a19813f11335c3098,001,2024-06-30_04h32.58.321,empathy_intonation_perc,2024.1.4,Win32,60.0240096,,,,,,,,,,,,,,30,fiscal,,,,,,83.835,85.28,1,0,0.897,,0,29,29,29,1,two_way_cognate,1,REAL,FALSA
,,,,,,,,,654ba95a19813f11335c3098,001,2024-06-30_04h32.58.321,empathy_intonation_perc,2024.1.4,Win32,60.0240096,,,,,,,,,,,,,,18,altar,,,,,,85.282,86.497,1,0,0.679,,0,30,30,17,1,three_way_cognate,1,REAL,FALSA
,,,,,,,,,654ba95a19813f11335c3098,001,2024-06-30_04h32.58.321,empathy_intonation_perc,2024.1.4,Win32,60.0240096,,,,,,,,,,,,,,153,golla,,,,,,86.497,87.713,0,1,0.695,,0,31,31,152,1,pseudoword,0,REAL,FALSA
,,,,,,,,,654ba95a19813f11335c3098,001,2024-06-30_04h32.58.321,empathy_intonation_perc,2024.1.4,Win32,60.0240096,,,,,,,,,,,,,,161,civas,,,,,,87.715,89.179,0,1,0.943,,0,32,32,160,1,pseudoword,0,REAL,FALSA
,,,,,,,,,654ba95a19813f11335c3098,001,2024-06-30_04h32.58.321,empathy_intonation_perc,2024.1.4,Win32,60.0240096,,,,,,,,,,,,,,11,golf,,,,,,89.18,91.344,0,1,1.628,,0,33,33,10,1,three_way_cognate,1,REAL,FALSA
,,,,,,,,,654ba95a19813f11335c3098,001,2024-06-30_04h32.58.321,empathy_intonation_perc,2024.1.4,Win32,60.0240096,,,,,,,,,,,,,,76,chocar,,,,,,91.346,92.498,0,1,0.621,,0,34,34,75,1,non_cognate,1,REAL,FALSA
,,,,,,,,,654ba95a19813f11335c3098,001,2024-06-30_04h32.58.321,empathy_intonation_perc,2024.1.4,Win32,60.0240096,,,,,,,,,,,,,,180,pupica,,,,,,92.5,93.394,0,1,0.365,,0,35,35,179,1,pseudoword,0,REAL,FALSA
,,,,,,,,,654ba95a19813f11335c3098,001,2024-06-30_04h32.58.321,empathy_intonation_perc,2024.1.4,Win32,60.0240096,,,,,,,,,,,,,,5,extra,,,,,,93.395,94.809,1,0,0.877,,0,36,36,4,1,three_way_cognate,1,REAL,FALSA
,,,,,,,,,654ba95a19813f11335c3098,001,2024-06-30_04h32.58.321,empathy_intonation_perc,2024.1.4,Win32,60.0240096,,,,,,,,,,,,,,121,barbs,,,,,,94.81,96.559,0,1,1.207,,0,37,37,120,1,pseudoword,0,REAL,FALSA
,,,,,,,,,654ba95a19813f11335c3098,001,2024-06-30_04h32.58.321,empathy_intonation_perc,2024.1.4,Win32,60.0240096,,,,,,,,,,,,,,25,vigor,,,,,,96.56,98.192,1,0,1.092,,0,38,38,24,1,two_way_cognate,1,REAL,FALSA
,,,,,,,,,654ba95a19813f11335c3098,001,2024-06-30_04h32.58.321,empathy_intonation_perc,2024.1.4,Win32,60.0240096,,,,,,,,,,,,,,158,babrá,,,,,,98.192,99.591,0,1,0.856,,0,39,39,157,1,pseudoword,0,REAL,FALSA
,,,,,,,,,654ba95a19813f11335c3098,001,2024-06-30_04h32.58.321,empathy_intonation_perc,2024.1.4,Win32,60.0240096,,,,,,,,,,,,,,21,hotel,,,,,,99.592,100.795,1,0,0.67,,0,40,40,20,1,three_way_cognate,1,REAL,FALSA
,,,,,,,,,654ba95a19813f11335c3098,001,2024-06-30_04h32.58.321,empathy_intonation_perc,2024.1.4,Win32,60.0240096,,,,,,,,,,,,,,157,seled,,,,,,100.795,101.94,0,1,0.614,,0,41,41,156,1,pseudoword,0,REAL,FALSA
,,,,,,,,,654ba95a19813f11335c3098,001,2024-06-30_04h32.58.321,empathy_intonation_perc,2024.1.4,Win32,60.0240096,,,,,,,,,,,,,,113,nasce,,,,,,101.94,103.223,0,1,0.76,,0,42,42,112,1,pseudoword,0,REAL,FALSA
,,,,,,,,,654ba95a19813f11335c3098,001,2024-06-30_04h32.58.321,empathy_intonation_perc,2024.1.4,Win32,60.0240096,,,,,,,,,,,,,,6,horror,,,,,,103.224,104.373,0,1,0.61,,0,43,43,5,1,three_way_cognate,1,REAL,FALSA
,,,,,,,,,654ba95a19813f11335c3098,001,2024-06-30_04h32.58.321,empathy_intonation_perc,2024.1.4,Win32,60.0240096,,,,,,,,,,,,,,65,guerra,,,,,,104.376,105.444,1,0,0.535,,0,44,44,64,1,non_cognate,1,REAL,FALSA
,,,,,,,,,654ba95a19813f11335c3098,001,2024-06-30_04h32.58.321,empathy_intonation_perc,2024.1.4,Win32,60.0240096,,,,,,,,,,,,,,188,amplir,,,,,,105.444,106.538,0,1,0.561,,0,45,45,187,1,pseudoword,0,REAL,FALSA
,,,,,,,,,654ba95a19813f11335c3098,001,2024-06-30_04h32.58.321,empathy_intonation_perc,2024.1.4,Win32,60.0240096,,,,,,,,,,,,,,159,trcia,,,,,,106.54,107.554,0,1,0.479,,0,46,46,158,1,pseudoword,0,REAL,FALSA
,,,,,,,,,654ba95a19813f11335c3098,001,2024-06-30_04h32.58.321,empathy_intonation_perc,2024.1.4,Win32,60.0240096,,,,,,,,,,,,,,38,halo,,,,,,107.554,108.721,0,1,0.642,,0,47,47,37,1,two_way_cognate,1,REAL,FALSA
,,,,,,,,,654ba95a19813f11335c3098,001,2024-06-30_04h32.58.321,empathy_intonation_perc,2024.1.4,Win32,60.0240096,,,,,,,,,,,,,,86,cuenco,,,,,,108.722,109.653,0,1,0.394,,0,48,48,85,1,non_cognate,1,REAL,FALSA
,,,,,,,,,654ba95a19813f11335c3098,001,2024-06-30_04h32.58.321,empathy_intonation_perc,2024.1.4,Win32,60.0240096,,,,,,,,,,,,,,73,llevar,,,,,,109.653,112.389,0,1,2.216,,0,49,49,72,1,non_cognate,1,REAL,FALSA
,,,,,,,,,654ba95a19813f11335c3098,001,2024-06-30_04h32.58.321,empathy_intonation_perc,2024.1.4,Win32,60.0240096,,,,,,,,,,,,,,168,cobén,,,,,,112.395,114.867,0,1,1.925,,0,50,50,167,1,pseudoword,0,REAL,FALSA
,,,,,,,,,654ba95a19813f11335c3098,001,2024-06-30_04h32.58.321,empathy_intonation_perc,2024.1.4,Win32,60.0240096,,,,,,,,,,,,,,97,nocita,,,,,,114.868,116.085,0,1,0.67,,0,51,51,96,1,pseudoword,0,REAL,FALSA
,,,,,,,,,654ba95a19813f11335c3098,001,2024-06-30_04h32.58.321,empathy_intonation_perc,2024.1.4,Win32,60.0240096,,,,,,,,,,,,,,32,animal,,,,,,116.085,117.266,1,0,0.644,,0,52,52,31,1,two_way_cognate,1,REAL,FALSA
,,,,,,,,,654ba95a19813f11335c3098,001,2024-06-30_04h32.58.321,empathy_intonation_perc,2024.1.4,Win32,60.0240096,,,,,,,,,,,,,,8,kilo,,,,,,117.267,118.533,1,0,0.732,,0,53,53,7,1,three_way_cognate,1,REAL,FALSA
,,,,,,,,,654ba95a19813f11335c3098,001,2024-06-30_04h32.58.321,empathy_intonation_perc,2024.1.4,Win32,60.0240096,,,,,,,,,,,,,,47,color,,,,,,118.533,119.655,1,0,0.6,,0,54,54,46,1,two_way_cognate,1,REAL,FALSA
,,,,,,,,,654ba95a19813f11335c3098,001,2024-06-30_04h32.58.321,empathy_intonation_perc,2024.1.4,Win32,60.0240096,,,,,,,,,,,,,,49,teñir,,,,,,119.659,120.814,0,1,0.627,,0,55,55,48,1,non_cognate,1,REAL,FALSA
,,,,,,,,,654ba95a19813f11335c3098,001,2024-06-30_04h32.58.321,empathy_intonation_perc,2024.1.4,Win32,60.0240096,,,,,,,,,,,,,,172,dogue,,,,,,120.815,121.736,0,1,0.374,,0,56,56,171,1,pseudoword,0,REAL,FALSA
,,,,,,,,,654ba95a19813f11335c3098,001,2024-06-30_04h32.58.321,empathy_intonation_perc,2024.1.4,Win32,60.0240096,,,,,,,,,,,,,,116,grigir,,,,,,121.737,122.5,0,1,0.23,,0,57,57,115,1,pseudoword,0,REAL,FALSA
,,,,,,,,,654ba95a19813f11335c3098,001,2024-06-30_04h32.58.321,empathy_intonation_perc,2024.1.4,Win32,60.0240096,,,,,,,,,,,,,,104,estulo,,,,,,122.501,123.248,0,1,0.211,,0,58,58,103,1,pseudoword,0,REAL,FALSA
,,,,,,,,,654ba95a19813f11335c3098,001,2024-06-30_04h32.58.321,empathy_intonation_perc,2024.1.4,Win32,60.0240096,,,,,,,,,,,,,,39,casual,,,,,,123.249,124.17,0,1,0.383,,0,59,59,38,1,two_way_cognate,1,REAL,FALSA
,,,,,,,,,654ba95a19813f11335c3098,001,2024-06-30_04h32.58.321,empathy_intonation_perc,2024.1.4,Win32,60.0240096,,,,,,,,,,,,,,72,rostro,,,,,,124.171,125.163,0,1,0.454,,0,60,60,71,1,non_cognate,1,REAL,FALSA
,,,,,,,,,654ba95a19813f11335c3098,001,2024-06-30_04h32.58.321,empathy_intonation_perc,2024.1.4,Win32,60.0240096,,,,,,,,,,,,,,166,anfia,,,,,,125.164,126.296,0,1,0.589,,0,61,61,165,1,pseudoword,0,REAL,FALSA
,,,,,,,,,654ba95a19813f11335c3098,001,2024-06-30_04h32.58.321,empathy_intonation_perc,2024.1.4,Win32,60.0240096,,,,,,,,,,,,,,53,punta,,,,,,126.297,127.345,0,1,0.506,,0,62,62,52,1,non_cognate,1,REAL,FALSA
,,,,,,,,,654ba95a19813f11335c3098,001,2024-06-30_04h32.58.321,empathy_intonation_perc,2024.1.4,Win32,60.0240096,,,,,,,,,,,,,,2,tumor,,,,,,127.346,128.412,0,1,0.527,,0,63,63,1,1,three_way_cognate,1,REAL,FALSA
,,,,,,,,,654ba95a19813f11335c3098,001,2024-06-30_04h32.58.321,empathy_intonation_perc,2024.1.4,Win32,60.0240096,,,,,,,,,,,,,,151,prías,,,,,,128.414,129.411,0,1,0.467,,0,64,64,150,1,pseudoword,0,REAL,FALSA
,,,,,,,,,654ba95a19813f11335c3098,001,2024-06-30_04h32.58.321,empathy_intonation_perc,2024.1.4,Win32,60.0240096,,,,,,,,,,,,,,103,vueras,,,,,,129.411,130.494,0,1,0.542,,0,65,65,102,1,pseudoword,0,REAL,FALSA
,,,,,,,,,654ba95a19813f11335c3098,001,2024-06-30_04h32.58.321,empathy_intonation_perc,2024.1.4,Win32,60.0240096,,,,,,,,,,,,,,138,tator,,,,,,130.495,131.86,0,1,0.829,,0,66,66,137,1,pseudoword,0,REAL,FALSA
,,,,,,,,,654ba95a19813f11335c3098,001,2024-06-30_04h32.58.321,empathy_intonation_perc,2024.1.4,Win32,60.0240096,,,,,,,,,,,,,,63,hilo,,,,,,131.86,132.908,0,1,0.528,,0,67,67,62,1,non_cognate,1,REAL,FALSA
,,,,,,,,,654ba95a19813f11335c3098,001,2024-06-30_04h32.58.321,empathy_intonation_perc,2024.1.4,Win32,60.0240096,,,,,,,,,,,,,,183,edioso,,,,,,132.91,134.079,0,1,0.637,,0,68,68,182,1,pseudoword,0,REAL,FALSA
,,,,,,,,,654ba95a19813f11335c3098,001,2024-06-30_04h32.58.321,empathy_intonation_perc,2024.1.4,Win32,60.0240096,,,,,,,,,,,,,,85,enorme,,,,,,134.079,135.51,0,1,0.89,,0,69,69,84,1,non_cognate,1,REAL,FALSA
,,,,,,,,,654ba95a19813f11335c3098,001,2024-06-30_04h32.58.321,empathy_intonation_perc,2024.1.4,Win32,60.0240096,,,,,,,,,,,,,,126,tobre,,,,,,135.51,137.68,0,1,1.652,,0,70,70,125,1,pseudoword,0,REAL,FALSA
,,,,,,,,,654ba95a19813f11335c3098,001,2024-06-30_04h32.58.321,empathy_intonation_perc,2024.1.4,Win32,60.0240096,,,,,,,,,,,,,,137,trugo,,,,,,137.681,138.74,0,1,0.534,,0,71,71,136,1,pseudoword,0,REAL,FALSA
,,,,,,,,,654ba95a19813f11335c3098,001,2024-06-30_04h32.58.321,empathy_intonation_perc,2024.1.4,Win32,60.0240096,,,,,,,,,,,,,,22,mango,,,,,,138.74,139.624,0,1,0.349,,0,72,72,21,1,three_way_cognate,1,REAL,FALSA
,,,,,,,,,654ba95a19813f11335c3098,001,2024-06-30_04h32.58.321,empathy_intonation_perc,2024.1.4,Win32,60.0240096,,,,,,,,,,,,,,56,pico,,,,,,139.624,140.673,0,1,0.512,,0,73,73,55,1,non_cognate,1,REAL,FALSA
,,,,,,,,,654ba95a19813f11335c3098,001,2024-06-30_04h32.58.321,empathy_intonation_perc,2024.1.4,Win32,60.0240096,,,,,,,,,,,,,,68,puñal,,,,,,140.673,141.705,0,1,0.497,,0,74,74,67,1,non_cognate,1,REAL,FALSA
,,,,,,,,,654ba95a19813f11335c3098,001,2024-06-30_04h32.58.321,empathy_intonation_perc,2024.1.4,Win32,60.0240096,,,,,,,,,,,,,,44,editor,,,,,,141.706,142.621,0,1,0.373,,0,75,75,43,1,two_way_cognate,1,REAL,FALSA
,,,,,,,,,654ba95a19813f11335c3098,001,2024-06-30_04h32.58.321,empathy_intonation_perc,2024.1.4,Win32,60.0240096,,,,,,,,,,,,,,122,boñaz,,,,,,142.622,143.659,0,1,0.503,,0,76,76,121,1,pseudoword,0,REAL,FALSA
,,,,,,,,,654ba95a19813f11335c3098,001,2024-06-30_04h32.58.321,empathy_intonation_perc,2024.1.4,Win32,60.0240096,,,,,,,,,,,,,,175,tradía,,,,,,143.668,144.788,0,1,0.599,,0,77,77,174,1,pseudoword,0,REAL,FALSA
,,,,,,,,,654ba95a19813f11335c3098,001,2024-06-30_04h32.58.321,empathy_intonation_perc,2024.1.4,Win32,60.0240096,,,,,,,,,,,,,,42,rumor,,,,,,144.788,145.803,0,1,0.475,,0,78,78,41,1,two_way_cognate,1,REAL,FALSA
,,,,,,,,,654ba95a19813f11335c3098,001,2024-06-30_04h32.58.321,empathy_intonation_perc,2024.1.4,Win32,60.0240096,,,,,,,,,,,,,,67,llamar,,,,,,145.804,146.886,0,1,0.56,,0,79,79,66,1,non_cognate,1,REAL,FALSA
,,,,,,,,,654ba95a19813f11335c3098,001,2024-06-30_04h32.58.321,empathy_intonation_perc,2024.1.4,Win32,60.0240096,,,,,,,,,,,,,,117,morrá,,,,,,146.887,147.954,0,1,0.527,,0,80,80,116,1,pseudoword,0,REAL,FALSA
,,,,,,,,,654ba95a19813f11335c3098,001,2024-06-30_04h32.58.321,empathy_intonation_perc,2024.1.4,Win32,60.0240096,,,,,,,,,,,,,,9,portal,,,,,,147.957,149.402,1,0,0.912,,0,81,81,8,1,three_way_cognate,1,REAL,FALSA
,,,,,,,,,654ba95a19813f11335c3098,001,2024-06-30_04h32.58.321,empathy_intonation_perc,2024.1.4,Win32,60.0240096,,,,,,,,,,,,,,170,diabo,,,,,,149.403,150.418,0,1,0.475,,0,82,82,169,1,pseudoword,0,REAL,FALSA
,,,,,,,,,654ba95a19813f11335c3098,001,2024-06-30_04h32.58.321,empathy_intonation_perc,2024.1.4,Win32,60.0240096,,,,,,,,,,,,,,80,cuenco,,,,,,150.42,151.501,0,1,0.544,,0,83,83,79,1,non_cognate,1,REAL,FALSA
,,,,,,,,,654ba95a19813f11335c3098,001,2024-06-30_04h32.58.321,empathy_intonation_perc,2024.1.4,Win32,60.0240096,,,,,,,,,,,,,,135,panté,,,,,,151.502,152.584,0,1,0.545,,0,84,84,134,1,pseudoword,0,REAL,FALSA
,,,,,,,,,654ba95a19813f11335c3098,001,2024-06-30_04h32.58.321,empathy_intonation_perc,2024.1.4,Win32,60.0240096,,,,,,,,,,,,,,26,enigma,,,,,,152.585,153.85,0,1,0.724,,0,85,85,25,1,two_way_cognate,1,REAL,FALSA
,,,,,,,,,654ba95a19813f11335c3098,001,2024-06-30_04h32.58.321,empathy_intonation_perc,2024.1.4,Win32,60.0240096,,,,,,,,,,,,,,165,chote,,,,,,153.851,155.049,0,1,0.664,,0,86,86,164,1,pseudoword,0,REAL,FALSA
,,,,,,,,,654ba95a19813f11335c3098,001,2024-06-30_04h32.58.321,empathy_intonation_perc,2024.1.4,Win32,60.0240096,,,,,,,,,,,,,,27,piano,,,,,,155.053,156.55,1,0,0.959,,0,87,87,26,1,two_way_cognate,1,REAL,FALSA
,,,,,,,,,654ba95a19813f11335c3098,001,2024-06-30_04h32.58.321,empathy_intonation_perc,2024.1.4,Win32,60.0240096,,,,,,,,,,,,,,33,collar,,,,,,156.552,157.957,0,1,0.871,,0,88,88,32,1,two_way_cognate,1,REAL,FALSA
,,,,,,,,,654ba95a19813f11335c3098,001,2024-06-30_04h32.58.321,empathy_intonation_perc,2024.1.4,Win32,60.0240096,,,,,,,,,,,,,,155,kugis,,,,,,157.957,159.013,0,1,0.534,,0,89,89,154,1,pseudoword,0,REAL,FALSA
,,,,,,,,,654ba95a19813f11335c3098,001,2024-06-30_04h32.58.321,empathy_intonation_perc,2024.1.4,Win32,60.0240096,,,,,,,,,,,,,,43,honor,,,,,,159.014,160.056,0,1,0.51,,0,90,90,42,1,two_way_cognate,1,REAL,FALSA
,,,,,,,,,654ba95a19813f11335c3098,001,2024-06-30_04h32.58.321,empathy_intonation_perc,2024.1.4,Win32,60.0240096,,,,,,,,,,,,,,184,huenos,,,,,,160.057,161.164,0,1,0.577,,0,91,91,183,1,pseudoword,0,REAL,FALSA
,,,,,,,,,654ba95a19813f11335c3098,001,2024-06-30_04h32.58.321,empathy_intonation_perc,2024.1.4,Win32,60.0240096,,,,,,,,,,,,,,182,desaro,,,,,,161.165,162.296,0,1,0.595,,0,92,92,181,1,pseudoword,0,REAL,FALSA
,,,,,,,,,654ba95a19813f11335c3098,001,2024-06-30_04h32.58.321,empathy_intonation_perc,2024.1.4,Win32,60.0240096,,,,,,,,,,,,,,52,blando,,,,,,162.297,163.612,0,1,0.776,,0,93,93,51,1,non_cognate,1,REAL,FALSA
,,,,,,,,,654ba95a19813f11335c3098,001,2024-06-30_04h32.58.321,empathy_intonation_perc,2024.1.4,Win32,60.0240096,,,,,,,,,,,,,,177,entodo,,,,,,163.614,164.811,0,1,0.665,,0,94,94,176,1,pseudoword,0,REAL,FALSA
,,,,,,,,,654ba95a19813f11335c3098,001,2024-06-30_04h32.58.321,empathy_intonation_perc,2024.1.4,Win32,60.0240096,,,,,,,,,,,,,,152,prave,,,,,,164.812,166.244,0,1,0.897,,0,95,95,151,1,pseudoword,0,REAL,FALSA
,,,,,,,,,654ba95a19813f11335c3098,001,2024-06-30_04h32.58.321,empathy_intonation_perc,2024.1.4,Win32,60.0240096,,,,,,,,,,,,,,149,emén,,,,,,166.244,167.328,0,1,0.564,,0,96,96,148,1,pseudoword,0,REAL,FALSA
,,,,,,,,,654ba95a19813f11335c3098,001,2024-06-30_04h32.58.321,empathy_intonation_perc,2024.1.4,Win32,60.0240096,,,,,,,,,,,,,,164,tecia,,,,,,167.328,168.434,0,1,0.571,,0,97,97,163,1,pseudoword,0,REAL,FALSA
,,,,,,,,,654ba95a19813f11335c3098,001,2024-06-30_04h32.58.321,empathy_intonation_perc,2024.1.4,Win32,60.0240096,,,,,,,,,,,,,,70,ánimo,,,,,,168.434,169.493,0,1,0.533,,0,98,98,69,1,non_cognate,1,REAL,FALSA
,,,,,,,,,654ba95a19813f11335c3098,001,2024-06-30_04h32.58.321,empathy_intonation_perc,2024.1.4,Win32,60.0240096,,,,,,,,,,,,,,87,muleta,,,,,,169.494,170.625,0,1,0.614,,0,99,99,86,1,non_cognate,1,REAL,FALSA
,,,,,,,,,654ba95a19813f11335c3098,001,2024-06-30_04h32.58.321,empathy_intonation_perc,2024.1.4,Win32,60.0240096,,,,,,,,,,,,,,131,fuar,,,,,,170.625,172.292,0,1,1.148,,0,100,100,130,1,pseudoword,0,REAL,FALSA
,,,,,,,,,654ba95a19813f11335c3098,001,2024-06-30_04h32.58.321,empathy_intonation_perc,2024.1.4,Win32,60.0240096,,,,,,,,,,,,,,130,dubo,,,,,,172.295,173.879,0,1,1.049,,0,101,101,129,1,pseudoword,0,REAL,FALSA
,,,,,,,,,654ba95a19813f11335c3098,001,2024-06-30_04h32.58.321,empathy_intonation_perc,2024.1.4,Win32,60.0240096,,,,,,,,,,,,,,123,arane,,,,,,173.887,175.607,0,1,1.192,,0,102,102,122,1,pseudoword,0,REAL,FALSA
,,,,,,,,,654ba95a19813f11335c3098,001,2024-06-30_04h32.58.321,empathy_intonation_perc,2024.1.4,Win32,60.0240096,,,,,,,,,,,,,,141,virios,,,,,,175.611,176.778,0,1,0.616,,0,103,103,140,1,pseudoword,0,REAL,FALSA
,,,,,,,,,654ba95a19813f11335c3098,001,2024-06-30_04h32.58.321,empathy_intonation_perc,2024.1.4,Win32,60.0240096,,,,,,,,,,,,,,7,albino,,,,,,176.781,177.888,0,1,0.578,,0,104,104,6,1,three_way_cognate,1,REAL,FALSA
,,,,,,,,,654ba95a19813f11335c3098,001,2024-06-30_04h32.58.321,empathy_intonation_perc,2024.1.4,Win32,60.0240096,,,,,,,,,,,,,,50,sierra,,,,,,177.889,178.977,0,1,0.558,,0,105,105,49,1,non_cognate,1,REAL,FALSA
,,,,,,,,,654ba95a19813f11335c3098,001,2024-06-30_04h32.58.321,empathy_intonation_perc,2024.1.4,Win32,60.0240096,,,,,,,,,,,,,,125,ceme,,,,,,178.978,180.238,0,1,0.725,,0,106,106,124,1,pseudoword,0,REAL,FALSA
,,,,,,,,,654ba95a19813f11335c3098,001,2024-06-30_04h32.58.321,empathy_intonation_perc,2024.1.4,Win32,60.0240096,,,,,,,,,,,,,,112,samón,,,,,,180.24,181.47,0,1,0.7,,0,107,107,111,1,pseudoword,0,REAL,FALSA
,,,,,,,,,654ba95a19813f11335c3098,001,2024-06-30_04h32.58.321,empathy_intonation_perc,2024.1.4,Win32,60.0240096,,,,,,,,,,,,,,10,drama,,,,,,181.474,183.503,1,0,1.49,,0,108,108,9,1,three_way_cognate,1,REAL,FALSA
,,,,,,,,,654ba95a19813f11335c3098,001,2024-06-30_04h32.58.321,empathy_intonation_perc,2024.1.4,Win32,60.0240096,,,,,,,,,,,,,,171,gotro,,,,,,183.504,186.268,0,1,2.231,,0,109,109,170,1,pseudoword,0,REAL,FALSA
,,,,,,,,,654ba95a19813f11335c3098,001,2024-06-30_04h32.58.321,empathy_intonation_perc,2024.1.4,Win32,60.0240096,,,,,,,,,,,,,,107,plago,,,,,,186.268,187.368,0,1,0.563,,0,110,110,106,1,pseudoword,0,REAL,FALSA
,,,,,,,,,654ba95a19813f11335c3098,001,2024-06-30_04h32.58.321,empathy_intonation_perc,2024.1.4,Win32,60.0240096,,,,,,,,,,,,,,95,listo,,,,,,187.369,188.817,0,1,0.909,,0,111,111,94,1,non_cognate,1,REAL,FALSA
,,,,,,,,,654ba95a19813f11335c3098,001,2024-06-30_04h32.58.321,empathy_intonation_perc,2024.1.4,Win32,60.0240096,,,,,,,,,,,,,,12,dogma,,,,,,188.818,191.135,0,1,1.787,,0,112,112,11,1,three_way_cognate,1,REAL,FALSA
,,,,,,,,,654ba95a19813f11335c3098,001,2024-06-30_04h32.58.321,empathy_intonation_perc,2024.1.4,Win32,60.0240096,,,,,,,,,,,,,,136,hueas,,,,,,191.137,192.283,0,1,0.618,,0,113,113,135,1,pseudoword,0,REAL,FALSA
,,,,,,,,,654ba95a19813f11335c3098,001,2024-06-30_04h32.58.321,empathy_intonation_perc,2024.1.4,Win32,60.0240096,,,,,,,,,,,,,,185,aljizo,,,,,,192.284,193.348,0,1,0.525,,0,114,114,184,1,pseudoword,0,REAL,FALSA
,,,,,,,,,654ba95a19813f11335c3098,001,2024-06-30_04h32.58.321,empathy_intonation_perc,2024.1.4,Win32,60.0240096,,,,,,,,,,,,,,129,vinzó,,,,,,193.349,194.364,0,1,0.479,,0,115,115,128,1,pseudoword,0,REAL,FALSA
,,,,,,,,,654ba95a19813f11335c3098,001,2024-06-30_04h32.58.321,empathy_intonation_perc,2024.1.4,Win32,60.0240096,,,,,,,,,,,,,,132,nocó,,,,,,194.365,195.547,0,1,0.649,,0,116,116,131,1,pseudoword,0,REAL,FALSA
,,,,,,,,,654ba95a19813f11335c3098,001,2024-06-30_04h32.58.321,empathy_intonation_perc,2024.1.4,Win32,60.0240096,,,,,,,,,,,,,,24,retina,,,,,,195.547,196.663,0,1,0.592,,0,117,117,23,1,three_way_cognate,1,REAL,FALSA
,,,,,,,,,654ba95a19813f11335c3098,001,2024-06-30_04h32.58.321,empathy_intonation_perc,2024.1.4,Win32,60.0240096,,,,,,,,,,,,,,111,monue,,,,,,196.667,198.646,0,1,1.445,,0,118,118,110,1,pseudoword,0,REAL,FALSA
,,,,,,,,,654ba95a19813f11335c3098,001,2024-06-30_04h32.58.321,empathy_intonation_perc,2024.1.4,Win32,60.0240096,,,,,,,,,,,,,,108,jauda,,,,,,198.647,199.696,0,1,0.512,,0,119,119,107,1,pseudoword,0,REAL,FALSA
,,,,,,,,,654ba95a19813f11335c3098,001,2024-06-30_04h32.58.321,empathy_intonation_perc,2024.1.4,Win32,60.0240096,,,,,,,,,,,,,,167,dobbo,,,,,,199.696,200.713,0,1,0.468,,0,120,120,166,1,pseudoword,0,REAL,FALSA
,,,,,,,,,654ba95a19813f11335c3098,001,2024-06-30_04h32.58.321,empathy_intonation_perc,2024.1.4,Win32,60.0240096,,,,,,,,,,,,,,16,chat,,,,,,200.716,202.077,1,0,0.821,,0,121,121,15,1,three_way_cognate,1,REAL,FALSA
,,,,,,,,,654ba95a19813f11335c3098,001,2024-06-30_04h32.58.321,empathy_intonation_perc,2024.1.4,Win32,60.0240096,,,,,,,,,,,,,,120,mauja,,,,,,202.078,203.177,0,1,0.56,,0,122,122,119,1,pseudoword,0,REAL,FALSA
,,,,,,,,,654ba95a19813f11335c3098,001,2024-06-30_04h32.58.321,empathy_intonation_perc,2024.1.4,Win32,60.0240096,,,,,,,,,,,,,,128,pelí,,,,,,203.177,204.26,0,1,0.543,,0,123,123,127,1,pseudoword,0,REAL,FALSA
,,,,,,,,,654ba95a19813f11335c3098,001,2024-06-30_04h32.58.321,empathy_intonation_perc,2024.1.4,Win32,60.0240096,,,,,,,,,,,,,,162,cengo,,,,,,204.267,205.377,0,1,0.575,,0,124,124,161,1,pseudoword,0,REAL,FALSA
,,,,,,,,,654ba95a19813f11335c3098,001,2024-06-30_04h32.58.321,empathy_intonation_perc,2024.1.4,Win32,60.0240096,,,,,,,,,,,,,,60,siglo,,,,,,205.383,206.493,0,1,0.58,,0,125,125,59,1,non_cognate,1,REAL,FALSA
,,,,,,,,,654ba95a19813f11335c3098,001,2024-06-30_04h32.58.321,empathy_intonation_perc,2024.1.4,Win32,60.0240096,,,,,,,,,,,,,,106,diebro,,,,,,206.493,212.258,0,1,5.229,,0,126,126,105,1,pseudoword,0,REAL,FALSA
,,,,,,,,,654ba95a19813f11335c3098,001,2024-06-30_04h32.58.321,empathy_intonation_perc,2024.1.4,Win32,60.0240096,,,,,,,,,,,,,,14,aura,,,,,,212.259,213.41,0,1,0.618,,0,127,127,13,1,three_way_cognate,1,REAL,FALSA
,,,,,,,,,654ba95a19813f11335c3098,001,2024-06-30_04h32.58.321,empathy_intonation_perc,2024.1.4,Win32,60.0240096,,,,,,,,,,,,,,105,leniz,,,,,,213.411,214.416,0,1,0.481,,0,128,128,104,1,pseudoword,0,REAL,FALSA
,,,,,,,,,654ba95a19813f11335c3098,001,2024-06-30_04h32.58.321,empathy_intonation_perc,2024.1.4,Win32,60.0240096,,,,,,,,,,,,,,119,esís,,,,,,214.417,215.523,0,1,0.582,,0,129,129,118,1,pseudoword,0,REAL,FALSA
,,,,,,,,,654ba95a19813f11335c3098,001,2024-06-30_04h32.58.321,empathy_intonation_perc,2024.1.4,Win32,60.0240096,,,,,,,,,,,,,,140,chorde,,,,,,215.525,216.672,0,1,0.614,,0,130,130,139,1,pseudoword,0,REAL,FALSA
,,,,,,,,,654ba95a19813f11335c3098,001,2024-06-30_04h32.58.321,empathy_intonation_perc,2024.1.4,Win32,60.0240096,,,,,,,,,,,,,,40,pelvis,,,,,,216.673,217.953,1,0,0.75,,0,131,131,39,1,two_way_cognate,1,REAL,FALSA
,,,,,,,,,654ba95a19813f11335c3098,001,2024-06-30_04h32.58.321,empathy_intonation_perc,2024.1.4,Win32,60.0240096,,,,,,,,,,,,,,150,cricó,,,,,,217.954,219.369,0,1,0.9,,0,132,132,149,1,pseudoword,0,REAL,FALSA
,,,,,,,,,654ba95a19813f11335c3098,001,2024-06-30_04h32.58.321,empathy_intonation_perc,2024.1.4,Win32,60.0240096,,,,,,,,,,,,,,37,torso,,,,,,219.37,220.619,0,1,0.71,,0,133,133,36,1,two_way_cognate,1,REAL,FALSA
,,,,,,,,,654ba95a19813f11335c3098,001,2024-06-30_04h32.58.321,empathy_intonation_perc,2024.1.4,Win32,60.0240096,,,,,,,,,,,,,,101,losco,,,,,,220.619,221.805,0,1,0.65,,0,134,134,100,1,pseudoword,0,REAL,FALSA
,,,,,,,,,654ba95a19813f11335c3098,001,2024-06-30_04h32.58.321,empathy_intonation_perc,2024.1.4,Win32,60.0240096,,,,,,,,,,,,,,134,molor,,,,,,221.806,223.068,0,1,0.734,,0,135,135,133,1,pseudoword,0,REAL,FALSA
,,,,,,,,,654ba95a19813f11335c3098,001,2024-06-30_04h32.58.321,empathy_intonation_perc,2024.1.4,Win32,60.0240096,,,,,,,,,,,,,,100,épinas,,,,,,223.068,224.201,0,1,0.594,,0,136,136,99,1,pseudoword,0,REAL,FALSA
,,,,,,,,,654ba95a19813f11335c3098,001,2024-06-30_04h32.58.321,empathy_intonation_perc,2024.1.4,Win32,60.0240096,,,,,,,,,,,,,,142,parre,,,,,,224.201,225.4,0,1,0.659,,0,137,137,141,1,pseudoword,0,REAL,FALSA
,,,,,,,,,654ba95a19813f11335c3098,001,2024-06-30_04h32.58.321,empathy_intonation_perc,2024.1.4,Win32,60.0240096,,,,,,,,,,,,,,51,listo,,,,,,225.401,227.816,0,1,1.896,,0,138,138,50,1,non_cognate,1,REAL,FALSA
,,,,,,,,,654ba95a19813f11335c3098,001,2024-06-30_04h32.58.321,empathy_intonation_perc,2024.1.4,Win32,60.0240096,,,,,,,,,,,,,,146,gió,,,,,,227.816,229,0,1,0.665,,0,139,139,145,1,pseudoword,0,REAL,FALSA
,,,,,,,,,654ba95a19813f11335c3098,001,2024-06-30_04h32.58.321,empathy_intonation_perc,2024.1.4,Win32,60.0240096,,,,,,,,,,,,,,20,trauma,,,,,,229,230.55,1,0,1.013,,0,140,140,19,1,three_way_cognate,1,REAL,FALSA
,,,,,,,,,654ba95a19813f11335c3098,001,2024-06-30_04h32.58.321,empathy_intonation_perc,2024.1.4,Win32,60.0240096,,,,,,,,,,,,,,88,percha,,,,,,230.551,231.731,0,1,0.647,,0,141,141,87,1,non_cognate,1,REAL,FALSA
,,,,,,,,,654ba95a19813f11335c3098,001,2024-06-30_04h32.58.321,empathy_intonation_perc,2024.1.4,Win32,60.0240096,,,,,,,,,,,,,,191,frasis,,,,,,231.732,232.968,0,1,0.694,,0,142,142,190,1,pseudoword,0,REAL,FALSA
,,,,,,,,,654ba95a19813f11335c3098,001,2024-06-30_04h32.58.321,empathy_intonation_perc,2024.1.4,Win32,60.0240096,,,,,,,,,,,,,,93,tapa,,,,,,232.971,234.201,0,1,0.689,,0,143,143,92,1,non_cognate,1,REAL,FALSA
,,,,,,,,,654ba95a19813f11335c3098,001,2024-06-30_04h32.58.321,empathy_intonation_perc,2024.1.4,Win32,60.0240096,,,,,,,,,,,,,,3,disco,,,,,,234.201,235.984,1,0,1.248,,0,144,144,2,1,three_way_cognate,1,REAL,FALSA
,,,,,,,,,654ba95a19813f11335c3098,001,2024-06-30_04h32.58.321,empathy_intonation_perc,2024.1.4,Win32,60.0240096,,,,,,,,,,,,,,114,dibrea,,,,,,235.995,237.078,0,1,0.556,,0,145,145,113,1,pseudoword,0,REAL,FALSA
,,,,,,,,,654ba95a19813f11335c3098,001,2024-06-30_04h32.58.321,empathy_intonation_perc,2024.1.4,Win32,60.0240096,,,,,,,,,,,,,,17,clan,,,,,,237.079,238.344,1,0,0.725,,0,146,146,16,1,three_way_cognate,1,REAL,FALSA
,,,,,,,,,654ba95a19813f11335c3098,001,2024-06-30_04h32.58.321,empathy_intonation_perc,2024.1.4,Win32,60.0240096,,,,,,,,,,,,,,133,conso,,,,,,238.345,239.577,0,1,0.687,,0,147,147,132,1,pseudoword,0,REAL,FALSA
,,,,,,,,,654ba95a19813f11335c3098,001,2024-06-30_04h32.58.321,empathy_intonation_perc,2024.1.4,Win32,60.0240096,,,,,,,,,,,,,,28,ardor,,,,,,239.578,240.51,0,1,0.393,,0,148,148,27,1,two_way_cognate,1,REAL,FALSA
,,,,,,,,,654ba95a19813f11335c3098,001,2024-06-30_04h32.58.321,empathy_intonation_perc,2024.1.4,Win32,60.0240096,,,,,,,,,,,,,,160,fomeó,,,,,,240.511,241.59,0,1,0.544,,0,149,149,159,1,pseudoword,0,REAL,FALSA
,,,,,,,,,654ba95a19813f11335c3098,001,2024-06-30_04h32.58.321,empathy_intonation_perc,2024.1.4,Win32,60.0240096,,,,,,,,,,,,,,190,asumie,,,,,,241.591,242.643,0,1,0.527,,0,150,150,189,1,pseudoword,0,REAL,FALSA
,,,,,,,,,654ba95a19813f11335c3098,001,2024-06-30_04h32.58.321,empathy_intonation_perc,2024.1.4,Win32,60.0240096,,,,,,,,,,,,,,59,feo,,,,,,242.643,243.577,0,1,0.417,,0,151,151,58,1,non_cognate,1,REAL,FALSA
,,,,,,,,,654ba95a19813f11335c3098,001,2024-06-30_04h32.58.321,empathy_intonation_perc,2024.1.4,Win32,60.0240096,,,,,,,,,,,,,,110,densó,,,,,,243.579,245.692,0,1,1.582,,0,152,152,109,1,pseudoword,0,REAL,FALSA
,,,,,,,,,654ba95a19813f11335c3098,001,2024-06-30_04h32.58.321,empathy_intonation_perc,2024.1.4,Win32,60.0240096,,,,,,,,,,,,,,23,plural,,,,,,245.696,246.957,1,0,0.728,,0,153,153,22,1,three_way_cognate,1,REAL,FALSA
,,,,,,,,,654ba95a19813f11335c3098,001,2024-06-30_04h32.58.321,empathy_intonation_perc,2024.1.4,Win32,60.0240096,,,,,,,,,,,,,,55,maldad,,,,,,246.958,248.181,0,1,0.687,,0,154,154,54,1,non_cognate,1,REAL,FALSA
,,,,,,,,,654ba95a19813f11335c3098,001,2024-06-30_04h32.58.321,empathy_intonation_perc,2024.1.4,Win32,60.0240096,,,,,,,,,,,,,,115,lidena,,,,,,248.181,249.295,0,1,0.577,,0,155,155,114,1,pseudoword,0,REAL,FALSA
,,,,,,,,,654ba95a19813f11335c3098,001,2024-06-30_04h32.58.321,empathy_intonation_perc,2024.1.4,Win32,60.0240096,,,,,,,,,,,,,,62,pegar,,,,,,249.295,250.372,0,1,0.544,,0,156,156,61,1,non_cognate,1,REAL,FALSA
,,,,,,,,,654ba95a19813f11335c3098,001,2024-06-30_04h32.58.321,empathy_intonation_perc,2024.1.4,Win32,60.0240096,,,,,,,,,,,,,,181,gravés,,,,,,250.373,251.505,0,1,0.598,,0,157,157,180,1,pseudoword,0,REAL,FALSA
,,,,,,,,,654ba95a19813f11335c3098,001,2024-06-30_04h32.58.321,empathy_intonation_perc,2024.1.4,Win32,60.0240096,,,,,,,,,,,,,,148,gino,,,,,,251.505,252.809,1,0,0.771,,0,158,158,147,1,pseudoword,0,REAL,FALSA
,,,,,,,,,654ba95a19813f11335c3098,001,2024-06-30_04h32.58.321,empathy_intonation_perc,2024.1.4,Win32,60.0240096,,,,,,,,,,,,,,154,harvé,,,,,,252.81,253.775,1,0,0.436,,0,159,159,153,1,pseudoword,0,REAL,FALSA
,,,,,,,,,654ba95a19813f11335c3098,001,2024-06-30_04h32.58.321,empathy_intonation_perc,2024.1.4,Win32,60.0240096,,,,,,,,,,,,,,189,medium,,,,,,253.776,254.337,1,0,0.036,,0,160,160,188,1,pseudoword,0,REAL,FALSA
,,,,,,,,,654ba95a19813f11335c3098,001,2024-06-30_04h32.58.321,empathy_intonation_perc,2024.1.4,Win32,60.0240096,,,,,,,,,,,,,,66,aleta,,,,,,254.338,255.836,0,1,0.964,,0,161,161,65,1,non_cognate,1,REAL,FALSA
,,,,,,,,,654ba95a19813f11335c3098,001,2024-06-30_04h32.58.321,empathy_intonation_perc,2024.1.4,Win32,60.0240096,,,,,,,,,,,,,,118,bará,,,,,,255.837,256.987,0,1,0.618,,0,162,162,117,1,pseudoword,0,REAL,FALSA
,,,,,,,,,654ba95a19813f11335c3098,001,2024-06-30_04h32.58.321,empathy_intonation_perc,2024.1.4,Win32,60.0240096,,,,,,,,,,,,,,178,inichó,,,,,,256.987,260.884,0,1,3.361,,0,163,163,177,1,pseudoword,0,REAL,FALSA
,,,,,,,,,654ba95a19813f11335c3098,001,2024-06-30_04h32.58.321,empathy_intonation_perc,2024.1.4,Win32,60.0240096,,,,,,,,,,,,,,4,flora,,,,,,260.884,261.867,0,1,0.461,,0,164,164,3,1,three_way_cognate,1,REAL,FALSA
,,,,,,,,,654ba95a19813f11335c3098,001,2024-06-30_04h32.58.321,empathy_intonation_perc,2024.1.4,Win32,60.0240096,,,,,,,,,,,,,,54,tapón,,,,,,261.871,262.983,0,1,0.573,,0,165,165,53,1,non_cognate,1,REAL,FALSA
,,,,,,,,,654ba95a19813f11335c3098,001,2024-06-30_04h32.58.321,empathy_intonation_perc,2024.1.4,Win32,60.0240096,,,,,,,,,,,,,,163,olzan,,,,,,262.984,264.159,0,1,0.66,,0,166,166,162,1,pseudoword,0,REAL,FALSA
,,,,,,,,,654ba95a19813f11335c3098,001,2024-06-30_04h32.58.321,empathy_intonation_perc,2024.1.4,Win32,60.0240096,,,,,,,,,,,,,,173,mibro,,,,,,264.16,265.235,0,1,0.547,,0,167,167,172,1,pseudoword,0,REAL,FALSA
,,,,,,,,,654ba95a19813f11335c3098,001,2024-06-30_04h32.58.321,empathy_intonation_perc,2024.1.4,Win32,60.0240096,,,,,,,,,,,,,,61,aduana,,,,,,265.237,266.669,0,1,0.89,,0,168,168,60,1,non_cognate,1,REAL,FALSA
,,,,,,,,,654ba95a19813f11335c3098,001,2024-06-30_04h32.58.321,empathy_intonation_perc,2024.1.4,Win32,60.0240096,,,,,,,,,,,,,,79,suelo,,,,,,266.674,268.006,0,1,0.801,,0,169,169,78,1,non_cognate,1,REAL,FALSA
,,,,,,,,,654ba95a19813f11335c3098,001,2024-06-30_04h32.58.321,empathy_intonation_perc,2024.1.4,Win32,60.0240096,,,,,,,,,,,,,,74,ala,,,,,,268.007,269.214,0,1,0.678,,0,170,170,73,1,non_cognate,1,REAL,FALSA
,,,,,,,,,654ba95a19813f11335c3098,001,2024-06-30_04h32.58.321,empathy_intonation_perc,2024.1.4,Win32,60.0240096,,,,,,,,,,,,,,35,aurora,,,,,,269.214,270.531,0,1,0.782,,0,171,171,34,1,two_way_cognate,1,REAL,FALSA
,,,,,,,,,654ba95a19813f11335c3098,001,2024-06-30_04h32.58.321,empathy_intonation_perc,2024.1.4,Win32,60.0240096,,,,,,,,,,,,,,58,colcha,,,,,,270.534,271.73,0,1,0.658,,0,172,172,57,1,non_cognate,1,REAL,FALSA
,,,,,,,,,654ba95a19813f11335c3098,001,2024-06-30_04h32.58.321,empathy_intonation_perc,2024.1.4,Win32,60.0240096,,,,,,,,,,,,,,124,lobe,,,,,,271.736,272.813,0,1,0.536,,0,173,173,123,1,pseudoword,0,REAL,FALSA
,,,,,,,,,654ba95a19813f11335c3098,001,2024-06-30_04h32.58.321,empathy_intonation_perc,2024.1.4,Win32,60.0240096,,,,,,,,,,,,,,186,rizate,,,,,,272.815,273.864,0,1,0.528,,0,174,174,185,1,pseudoword,0,REAL,FALSA
,,,,,,,,,654ba95a19813f11335c3098,001,2024-06-30_04h32.58.321,empathy_intonation_perc,2024.1.4,Win32,60.0240096,,,,,,,,,,,,,,156,ozoso,,,,,,273.865,274.827,0,1,0.422,,0,175,175,155,1,pseudoword,0,REAL,FALSA
,,,,,,,,,654ba95a19813f11335c3098,001,2024-06-30_04h32.58.321,empathy_intonation_perc,2024.1.4,Win32,60.0240096,,,,,,,,,,,,,,82,brillo,,,,,,274.828,276.011,0,1,0.65,,0,176,176,81,1,non_cognate,1,REAL,FALSA
,,,,,,,,,654ba95a19813f11335c3098,001,2024-06-30_04h32.58.321,empathy_intonation_perc,2024.1.4,Win32,60.0240096,,,,,,,,,,,,,,69,tiza,,,,,,276.011,277.127,0,1,0.576,,0,177,177,68,1,non_cognate,1,REAL,FALSA
,,,,,,,,,654ba95a19813f11335c3098,001,2024-06-30_04h32.58.321,empathy_intonation_perc,2024.1.4,Win32,60.0240096,,,,,,,,,,,,,,179,suelet,,,,,,277.128,278.685,0,1,1.014,,0,178,178,178,1,pseudoword,0,REAL,FALSA
,,,,,,,,,654ba95a19813f11335c3098,001,2024-06-30_04h32.58.321,empathy_intonation_perc,2024.1.4,Win32,60.0240096,,,,,,,,,,,,,,109,laras,,,,,,278.687,279.796,0,1,0.565,,0,179,179,108,1,pseudoword,0,REAL,FALSA
,,,,,,,,,654ba95a19813f11335c3098,001,2024-06-30_04h32.58.321,empathy_intonation_perc,2024.1.4,Win32,60.0240096,,,,,,,,,,,,,,81,sacar,,,,,,279.796,280.808,0,1,0.477,,0,180,180,80,1,non_cognate,1,REAL,FALSA
,,,,,,,,,654ba95a19813f11335c3098,001,2024-06-30_04h32.58.321,empathy_intonation_perc,2024.1.4,Win32,60.0240096,,,,,,,,,,,,,,89,muñeca,,,,,,280.809,282.391,0,1,1.041,,0,181,181,88,1,non_cognate,1,REAL,FALSA
,,,,,,,,,654ba95a19813f11335c3098,001,2024-06-30_04h32.58.321,empathy_intonation_perc,2024.1.4,Win32,60.0240096,,,,,,,,,,,,,,48,pelvis,,,,,,282.392,283.535,0,1,0.613,,0,182,182,47,1,two_way_cognate,1,REAL,FALSA
,,,,,,,,,654ba95a19813f11335c3098,001,2024-06-30_04h32.58.321,empathy_intonation_perc,2024.1.4,Win32,60.0240096,,,,,,,,,,,,,,1,moral,,,,,,283.536,284.857,1,0,0.8,,0,183,183,0,1,three_way_cognate,1,REAL,FALSA
,,,,,,,,,654ba95a19813f11335c3098,001,2024-06-30_04h32.58.321,empathy_intonation_perc,2024.1.4,Win32,60.0240096,,,,,,,,,,,,,,187,nomata,,,,,,284.858,286.146,0,1,0.767,,0,184,184,186,1,pseudoword,0,REAL,FALSA
,,,,,,,,,654ba95a19813f11335c3098,001,2024-06-30_04h32.58.321,empathy_intonation_perc,2024.1.4,Win32,60.0240096,,,,,,,,,,,,,,15,test,,,,,,286.148,287.46,1,0,0.784,,0,185,185,14,1,three_way_cognate,1,REAL,FALSA
,,,,,,,,,654ba95a19813f11335c3098,001,2024-06-30_04h32.58.321,empathy_intonation_perc,2024.1.4,Win32,60.0240096,,,,,,,,,,,,,,169,pitis,,,,,,287.461,288.896,0,1,0.899,,0,186,186,168,1,pseudoword,0,REAL,FALSA
,,,,,,,,,654ba95a19813f11335c3098,001,2024-06-30_04h32.58.321,empathy_intonation_perc,2024.1.4,Win32,60.0240096,,,,,,,,,,,,,,139,sasos,,,,,,288.896,289.954,0,1,0.532,,0,187,187,138,1,pseudoword,0,REAL,FALSA
,,,,,,,,,654ba95a19813f11335c3098,001,2024-06-30_04h32.58.321,empathy_intonation_perc,2024.1.4,Win32,60.0240096,,,,,,,,,,,,,,99,bugor,,,,,,289.955,291.903,0,1,1.41,,0,188,188,98,1,pseudoword,0,REAL,FALSA
,,,,,,,,,654ba95a19813f11335c3098,001,2024-06-30_04h32.58.321,empathy_intonation_perc,2024.1.4,Win32,60.0240096,,,,,,,,,,,,,,64,rizado,,,,,,291.904,293.02,0,1,0.578,,0,189,189,63,1,non_cognate,1,REAL,FALSA
,,,,,,,,,654ba95a19813f11335c3098,001,2024-06-30_04h32.58.321,empathy_intonation_perc,2024.1.4,Win32,60.0240096,,,,,,,,,,,,,,145,rúo,,,,,,293.021,294.202,0,1,0.643,,0,190,190,144,1,pseudoword,0,REAL,FALSA
,,,,,,,,,654ba95a19813f11335c3098,001,2024-06-30_04h32.58.321,empathy_intonation_perc,2024.1.4,Win32,60.0240096,,,,,,,,,,,,,,98,martir,,,,,,294.203,295.756,0,1,1.032,,0,191,191,97,1,pseudoword,0,REAL,FALSA
