lextale_instructions.started,lextale_instructions.stopped,lextale_instructions_loop.thisRepN,lextale_instructions_loop.thisTrialN,lextale_instructions_loop.thisN,lextale_instructions_loop.thisIndex,lextale_instructions_loop.ran,instructions_text,continue_text,participant,session,date,expName,psychopyVersion,OS,frameRate,lextale_practice.started,lextale_practice.stopped,key_resp_lextale_practice.keys,key_resp_lextale_practice.corr,key_resp_lextale_practice.rt,key_resp_lextale_practice.duration,lextale_practice_feedback.started,lextale_practice_feedback.stopped,lextale_practice_trials.thisRepN,lextale_practice_trials.thisTrialN,lextale_practice_trials.thisN,lextale_practice_trials.thisIndex,lextale_practice_trials.ran,stim,word,correct_response,prac_button_real,prac_button_false,lextale_check.started,lextale_check.stopped,lextale_trial.started,lextale_trial.stopped,key_resp_lextale_trial.keys,key_resp_lextale_trial.corr,key_resp_lextale_trial.rt,key_resp_lextale_trial.duration,lextail_trials.thisRepN,lextail_trials.thisTrialN,lextail_trials.thisN,lextail_trials.thisIndex,lextail_trials.ran,type,correct_reponse,button_real,button_false
0.003,360.595,0,0,0,0,1,"Este es un test de vocabulario en español. 
  
  A continuación vas a ver 90 secuencias de letras que parecen 'españolas'.
  
  Solo algunas de ellas son palabras de verdad.",(presiona la barra espaciadora para continuar),6566679308980069340e80b8,001,2024-06-30_04h12.54.678,empathy_intonation_perc,2024.1.4,Win32,60.0240096,,,,,,,,,,,,,,,,,,,,,,,,,,,,,,,,,,,
360.602,361.639,0,1,1,1,1,"Por favor, señala las palabras que tú conoces (aquellas que estás convencido que son palabras españolas, incluso aunque no seas capaz de dar el significado preciso).",(presiona la barra espaciadora para continuar),6566679308980069340e80b8,001,2024-06-30_04h12.54.678,empathy_intonation_perc,2024.1.4,Win32,60.0240096,,,,,,,,,,,,,,,,,,,,,,,,,,,,,,,,,,,
361.642,362.338,0,2,2,2,1,Pero cuidado: los errores se penalizan. Por eso no tiene sentido tratar de incrementar tu puntuación marcando como reales palabras que nunca has visto.,(presiona la barra espaciadora para continuar),6566679308980069340e80b8,001,2024-06-30_04h12.54.678,empathy_intonation_perc,2024.1.4,Win32,60.0240096,,,,,,,,,,,,,,,,,,,,,,,,,,,,,,,,,,,
362.339,363.128,0,3,3,3,1,"Presiona la tecla 1 si piensas que es una palabra real y la tecla 
  0 si piensas que es una palabra falsa. 
  
  Vamos a practicar un poco...",(presiona la barra espaciadora para continuar),6566679308980069340e80b8,001,2024-06-30_04h12.54.678,empathy_intonation_perc,2024.1.4,Win32,60.0240096,,,,,,,,,,,,,,,,,,,,,,,,,,,,,,,,,,,
,,,,,,,,,6566679308980069340e80b8,001,2024-06-30_04h12.54.678,empathy_intonation_perc,2024.1.4,Win32,60.0240096,363.137,366.321,0,1,2.638,,366.321,367.32,0,0,0,0,1,0,depiste,0,REAL,FALSA,,,,,,,,,,,,,,,,,
,,,,,,,,,6566679308980069340e80b8,001,2024-06-30_04h12.54.678,empathy_intonation_perc,2024.1.4,Win32,60.0240096,367.321,368.685,0,0,0.82,,368.685,369.685,0,1,1,1,1,0,sí,1,REAL,FALSA,,,,,,,,,,,,,,,,,
,,,,,,,,,6566679308980069340e80b8,001,2024-06-30_04h12.54.678,empathy_intonation_perc,2024.1.4,Win32,60.0240096,369.687,371.367,1,0,1.147,,371.367,372.369,0,2,2,2,1,0,coné,0,REAL,FALSA,,,,,,,,,,,,,,,,,
,,,,,,,,,6566679308980069340e80b8,001,2024-06-30_04h12.54.678,empathy_intonation_perc,2024.1.4,Win32,60.0240096,372.374,373.526,0,1,0.626,,373.527,374.516,0,3,3,3,1,0,calpar,0,REAL,FALSA,,,,,,,,,,,,,,,,,
,,,,,,,,,6566679308980069340e80b8,001,2024-06-30_04h12.54.678,empathy_intonation_perc,2024.1.4,Win32,60.0240096,374.517,376.057,1,0,1.009,,376.058,377.049,0,4,4,4,1,0,joten,0,REAL,FALSA,,,,,,,,,,,,,,,,,
,,,,,,,,,6566679308980069340e80b8,001,2024-06-30_04h12.54.678,empathy_intonation_perc,2024.1.4,Win32,60.0240096,377.053,379.153,1,1,1.563,,379.154,380.147,0,5,5,5,1,0,sacapuntas,1,REAL,FALSA,,,,,,,,,,,,,,,,,
,,,,,,,,,6566679308980069340e80b8,001,2024-06-30_04h12.54.678,empathy_intonation_perc,2024.1.4,Win32,60.0240096,380.148,381.413,0,1,0.73,,381.413,382.414,0,6,6,6,1,0,priba,0,REAL,FALSA,,,,,,,,,,,,,,,,,
,,,,,,,,,6566679308980069340e80b8,001,2024-06-30_04h12.54.678,empathy_intonation_perc,2024.1.4,Win32,60.0240096,382.417,383.566,0,1,0.617,,383.566,384.562,0,7,7,7,1,0,pelasula,0,REAL,FALSA,,,,,,,,,,,,,,,,,
,,,,,,,,,6566679308980069340e80b8,001,2024-06-30_04h12.54.678,empathy_intonation_perc,2024.1.4,Win32,60.0240096,384.567,386.429,1,1,1.323,,386.431,387.427,0,8,8,8,1,0,bien,1,REAL,FALSA,,,,,,,,,,,,,,,,,
,,,,,,,,,6566679308980069340e80b8,001,2024-06-30_04h12.54.678,empathy_intonation_perc,2024.1.4,Win32,60.0240096,387.428,389.009,1,1,1.048,,389.009,390.009,0,9,9,9,1,0,casa,1,REAL,FALSA,,,,,,,,,,,,,,,,,
,,,,,,,,,6566679308980069340e80b8,001,2024-06-30_04h12.54.678,empathy_intonation_perc,2024.1.4,Win32,60.0240096,390.013,391.475,0,1,0.922,,391.476,392.474,0,10,10,10,1,0,lejo,0,REAL,FALSA,,,,,,,,,,,,,,,,,
,,,,,,,,,6566679308980069340e80b8,001,2024-06-30_04h12.54.678,empathy_intonation_perc,2024.1.4,Win32,60.0240096,392.475,403.704,0,1,10.683,,403.704,404.703,0,11,11,11,1,0,pretantas,0,REAL,FALSA,,,,,,,,,,,,,,,,,
,,,,,,,,,6566679308980069340e80b8,001,2024-06-30_04h12.54.678,empathy_intonation_perc,2024.1.4,Win32,60.0240096,,,,,,,,,,,,,,,,,,,404.703,446.085,,,,,,,,,,,,,,,
,,,,,,,,,6566679308980069340e80b8,001,2024-06-30_04h12.54.678,empathy_intonation_perc,2024.1.4,Win32,60.0240096,,,,,,,,,,,,,,45,total,,,,,,446.104,449.433,1,0,2.799,,0,0,0,44,1,two_way_cognate,1,REAL,FALSA
,,,,,,,,,6566679308980069340e80b8,001,2024-06-30_04h12.54.678,empathy_intonation_perc,2024.1.4,Win32,60.0240096,,,,,,,,,,,,,,2,tumor,,,,,,449.436,450.886,1,0,0.917,,0,1,1,1,1,three_way_cognate,1,REAL,FALSA
,,,,,,,,,6566679308980069340e80b8,001,2024-06-30_04h12.54.678,empathy_intonation_perc,2024.1.4,Win32,60.0240096,,,,,,,,,,,,,,154,harvé,,,,,,450.888,452.068,0,1,0.648,,0,2,2,153,1,pseudoword,0,REAL,FALSA
,,,,,,,,,6566679308980069340e80b8,001,2024-06-30_04h12.54.678,empathy_intonation_perc,2024.1.4,Win32,60.0240096,,,,,,,,,,,,,,51,listo,,,,,,452.068,453.313,0,1,0.715,,0,3,3,50,1,non_cognate,1,REAL,FALSA
,,,,,,,,,6566679308980069340e80b8,001,2024-06-30_04h12.54.678,empathy_intonation_perc,2024.1.4,Win32,60.0240096,,,,,,,,,,,,,,153,golla,,,,,,453.316,454.412,0,1,0.566,,0,4,4,152,1,pseudoword,0,REAL,FALSA
,,,,,,,,,6566679308980069340e80b8,001,2024-06-30_04h12.54.678,empathy_intonation_perc,2024.1.4,Win32,60.0240096,,,,,,,,,,,,,,95,listo,,,,,,454.414,455.663,1,0,0.71,,0,5,5,94,1,non_cognate,1,REAL,FALSA
,,,,,,,,,6566679308980069340e80b8,001,2024-06-30_04h12.54.678,empathy_intonation_perc,2024.1.4,Win32,60.0240096,,,,,,,,,,,,,,61,aduana,,,,,,455.663,456.746,0,1,0.542,,0,6,6,60,1,non_cognate,1,REAL,FALSA
,,,,,,,,,6566679308980069340e80b8,001,2024-06-30_04h12.54.678,empathy_intonation_perc,2024.1.4,Win32,60.0240096,,,,,,,,,,,,,,35,aurora,,,,,,456.746,457.961,0,1,0.693,,0,7,7,34,1,two_way_cognate,1,REAL,FALSA
,,,,,,,,,6566679308980069340e80b8,001,2024-06-30_04h12.54.678,empathy_intonation_perc,2024.1.4,Win32,60.0240096,,,,,,,,,,,,,,168,cobén,,,,,,457.962,459.562,1,0,1.063,,0,8,8,167,1,pseudoword,0,REAL,FALSA
,,,,,,,,,6566679308980069340e80b8,001,2024-06-30_04h12.54.678,empathy_intonation_perc,2024.1.4,Win32,60.0240096,,,,,,,,,,,,,,190,asumie,,,,,,459.563,460.976,0,1,0.881,,0,9,9,189,1,pseudoword,0,REAL,FALSA
,,,,,,,,,6566679308980069340e80b8,001,2024-06-30_04h12.54.678,empathy_intonation_perc,2024.1.4,Win32,60.0240096,,,,,,,,,,,,,,184,huenos,,,,,,460.977,462.076,0,1,0.562,,0,10,10,183,1,pseudoword,0,REAL,FALSA
,,,,,,,,,6566679308980069340e80b8,001,2024-06-30_04h12.54.678,empathy_intonation_perc,2024.1.4,Win32,60.0240096,,,,,,,,,,,,,,134,molor,,,,,,462.076,463.296,0,1,0.681,,0,11,11,133,1,pseudoword,0,REAL,FALSA
,,,,,,,,,6566679308980069340e80b8,001,2024-06-30_04h12.54.678,empathy_intonation_perc,2024.1.4,Win32,60.0240096,,,,,,,,,,,,,,103,vueras,,,,,,463.299,464.376,0,1,0.54,,0,12,12,102,1,pseudoword,0,REAL,FALSA
,,,,,,,,,6566679308980069340e80b8,001,2024-06-30_04h12.54.678,empathy_intonation_perc,2024.1.4,Win32,60.0240096,,,,,,,,,,,,,,5,extra,,,,,,464.378,465.459,1,0,0.563,,0,13,13,4,1,three_way_cognate,1,REAL,FALSA
,,,,,,,,,6566679308980069340e80b8,001,2024-06-30_04h12.54.678,empathy_intonation_perc,2024.1.4,Win32,60.0240096,,,,,,,,,,,,,,172,dogue,,,,,,465.461,466.59,0,1,0.596,,0,14,14,171,1,pseudoword,0,REAL,FALSA
,,,,,,,,,6566679308980069340e80b8,001,2024-06-30_04h12.54.678,empathy_intonation_perc,2024.1.4,Win32,60.0240096,,,,,,,,,,,,,,31,civil,,,,,,466.591,467.774,1,0,0.653,,0,15,15,30,1,two_way_cognate,1,REAL,FALSA
,,,,,,,,,6566679308980069340e80b8,001,2024-06-30_04h12.54.678,empathy_intonation_perc,2024.1.4,Win32,60.0240096,,,,,,,,,,,,,,129,vinzó,,,,,,467.774,481.202,0,1,12.881,,0,16,16,128,1,pseudoword,0,REAL,FALSA
,,,,,,,,,6566679308980069340e80b8,001,2024-06-30_04h12.54.678,empathy_intonation_perc,2024.1.4,Win32,60.0240096,,,,,,,,,,,,,,136,hueas,,,,,,481.204,482.767,0,1,1.034,,0,17,17,135,1,pseudoword,0,REAL,FALSA
,,,,,,,,,6566679308980069340e80b8,001,2024-06-30_04h12.54.678,empathy_intonation_perc,2024.1.4,Win32,60.0240096,,,,,,,,,,,,,,81,sacar,,,,,,482.767,483.85,0,1,0.545,,0,18,18,80,1,non_cognate,1,REAL,FALSA
,,,,,,,,,6566679308980069340e80b8,001,2024-06-30_04h12.54.678,empathy_intonation_perc,2024.1.4,Win32,60.0240096,,,,,,,,,,,,,,125,ceme,,,,,,483.851,490.403,0,1,6.016,,0,19,19,124,1,pseudoword,0,REAL,FALSA
,,,,,,,,,6566679308980069340e80b8,001,2024-06-30_04h12.54.678,empathy_intonation_perc,2024.1.4,Win32,60.0240096,,,,,,,,,,,,,,169,pitis,,,,,,490.405,491.912,0,1,0.982,,0,20,20,168,1,pseudoword,0,REAL,FALSA
,,,,,,,,,6566679308980069340e80b8,001,2024-06-30_04h12.54.678,empathy_intonation_perc,2024.1.4,Win32,60.0240096,,,,,,,,,,,,,,42,rumor,,,,,,491.913,493.203,1,0,0.754,,0,21,21,41,1,two_way_cognate,1,REAL,FALSA
,,,,,,,,,6566679308980069340e80b8,001,2024-06-30_04h12.54.678,empathy_intonation_perc,2024.1.4,Win32,60.0240096,,,,,,,,,,,,,,155,kugis,,,,,,493.204,494.317,0,1,0.575,,0,22,22,154,1,pseudoword,0,REAL,FALSA
,,,,,,,,,6566679308980069340e80b8,001,2024-06-30_04h12.54.678,empathy_intonation_perc,2024.1.4,Win32,60.0240096,,,,,,,,,,,,,,10,drama,,,,,,494.323,495.411,0,1,0.561,,0,23,23,9,1,three_way_cognate,1,REAL,FALSA
,,,,,,,,,6566679308980069340e80b8,001,2024-06-30_04h12.54.678,empathy_intonation_perc,2024.1.4,Win32,60.0240096,,,,,,,,,,,,,,47,color,,,,,,495.413,496.594,1,0,0.648,,0,24,24,46,1,two_way_cognate,1,REAL,FALSA
,,,,,,,,,6566679308980069340e80b8,001,2024-06-30_04h12.54.678,empathy_intonation_perc,2024.1.4,Win32,60.0240096,,,,,,,,,,,,,,46,mortal,,,,,,496.595,497.811,1,0,0.67,,0,25,25,45,1,two_way_cognate,1,REAL,FALSA
,,,,,,,,,6566679308980069340e80b8,001,2024-06-30_04h12.54.678,empathy_intonation_perc,2024.1.4,Win32,60.0240096,,,,,,,,,,,,,,160,fomeó,,,,,,497.814,498.976,0,1,0.628,,0,26,26,159,1,pseudoword,0,REAL,FALSA
,,,,,,,,,6566679308980069340e80b8,001,2024-06-30_04h12.54.678,empathy_intonation_perc,2024.1.4,Win32,60.0240096,,,,,,,,,,,,,,6,horror,,,,,,498.977,500.226,1,0,0.727,,0,27,27,5,1,three_way_cognate,1,REAL,FALSA
,,,,,,,,,6566679308980069340e80b8,001,2024-06-30_04h12.54.678,empathy_intonation_perc,2024.1.4,Win32,60.0240096,,,,,,,,,,,,,,70,ánimo,,,,,,500.227,501.443,0,1,0.672,,0,28,28,69,1,non_cognate,1,REAL,FALSA
,,,,,,,,,6566679308980069340e80b8,001,2024-06-30_04h12.54.678,empathy_intonation_perc,2024.1.4,Win32,60.0240096,,,,,,,,,,,,,,185,aljizo,,,,,,501.444,502.542,0,1,0.559,,0,29,29,184,1,pseudoword,0,REAL,FALSA
,,,,,,,,,6566679308980069340e80b8,001,2024-06-30_04h12.54.678,empathy_intonation_perc,2024.1.4,Win32,60.0240096,,,,,,,,,,,,,,120,mauja,,,,,,502.543,503.741,0,1,0.658,,0,30,30,119,1,pseudoword,0,REAL,FALSA
,,,,,,,,,6566679308980069340e80b8,001,2024-06-30_04h12.54.678,empathy_intonation_perc,2024.1.4,Win32,60.0240096,,,,,,,,,,,,,,189,medium,,,,,,503.742,505.358,1,0,1.081,,0,31,31,188,1,pseudoword,0,REAL,FALSA
,,,,,,,,,6566679308980069340e80b8,001,2024-06-30_04h12.54.678,empathy_intonation_perc,2024.1.4,Win32,60.0240096,,,,,,,,,,,,,,140,chorde,,,,,,505.358,506.606,0,1,0.723,,0,32,32,139,1,pseudoword,0,REAL,FALSA
,,,,,,,,,6566679308980069340e80b8,001,2024-06-30_04h12.54.678,empathy_intonation_perc,2024.1.4,Win32,60.0240096,,,,,,,,,,,,,,64,rizado,,,,,,506.606,507.939,0,1,0.818,,0,33,33,63,1,non_cognate,1,REAL,FALSA
,,,,,,,,,6566679308980069340e80b8,001,2024-06-30_04h12.54.678,empathy_intonation_perc,2024.1.4,Win32,60.0240096,,,,,,,,,,,,,,67,llamar,,,,,,507.943,509.071,0,1,0.599,,0,34,34,66,1,non_cognate,1,REAL,FALSA
,,,,,,,,,6566679308980069340e80b8,001,2024-06-30_04h12.54.678,empathy_intonation_perc,2024.1.4,Win32,60.0240096,,,,,,,,,,,,,,33,collar,,,,,,509.073,510.504,0,1,0.9,,0,35,35,32,1,two_way_cognate,1,REAL,FALSA
,,,,,,,,,6566679308980069340e80b8,001,2024-06-30_04h12.54.678,empathy_intonation_perc,2024.1.4,Win32,60.0240096,,,,,,,,,,,,,,108,jauda,,,,,,510.505,514.923,0,1,3.831,,0,36,36,107,1,pseudoword,0,REAL,FALSA
,,,,,,,,,6566679308980069340e80b8,001,2024-06-30_04h12.54.678,empathy_intonation_perc,2024.1.4,Win32,60.0240096,,,,,,,,,,,,,,159,trcia,,,,,,514.923,516.171,0,1,0.713,,0,37,37,158,1,pseudoword,0,REAL,FALSA
,,,,,,,,,6566679308980069340e80b8,001,2024-06-30_04h12.54.678,empathy_intonation_perc,2024.1.4,Win32,60.0240096,,,,,,,,,,,,,,28,ardor,,,,,,516.173,517.254,0,1,0.544,,0,38,38,27,1,two_way_cognate,1,REAL,FALSA
,,,,,,,,,6566679308980069340e80b8,001,2024-06-30_04h12.54.678,empathy_intonation_perc,2024.1.4,Win32,60.0240096,,,,,,,,,,,,,,68,puñal,,,,,,517.255,518.285,0,1,0.487,,0,39,39,67,1,non_cognate,1,REAL,FALSA
,,,,,,,,,6566679308980069340e80b8,001,2024-06-30_04h12.54.678,empathy_intonation_perc,2024.1.4,Win32,60.0240096,,,,,,,,,,,,,,130,dubo,,,,,,518.286,519.587,0,1,0.756,,0,40,40,129,1,pseudoword,0,REAL,FALSA
,,,,,,,,,6566679308980069340e80b8,001,2024-06-30_04h12.54.678,empathy_intonation_perc,2024.1.4,Win32,60.0240096,,,,,,,,,,,,,,111,monue,,,,,,519.588,520.821,0,1,0.707,,0,41,41,110,1,pseudoword,0,REAL,FALSA
,,,,,,,,,6566679308980069340e80b8,001,2024-06-30_04h12.54.678,empathy_intonation_perc,2024.1.4,Win32,60.0240096,,,,,,,,,,,,,,107,plago,,,,,,520.822,521.872,0,1,0.535,,0,42,42,106,1,pseudoword,0,REAL,FALSA
,,,,,,,,,6566679308980069340e80b8,001,2024-06-30_04h12.54.678,empathy_intonation_perc,2024.1.4,Win32,60.0240096,,,,,,,,,,,,,,26,enigma,,,,,,521.872,523.004,0,1,0.596,,0,43,43,25,1,two_way_cognate,1,REAL,FALSA
,,,,,,,,,6566679308980069340e80b8,001,2024-06-30_04h12.54.678,empathy_intonation_perc,2024.1.4,Win32,60.0240096,,,,,,,,,,,,,,124,lobe,,,,,,523.004,524.054,0,1,0.518,,0,44,44,123,1,pseudoword,0,REAL,FALSA
,,,,,,,,,6566679308980069340e80b8,001,2024-06-30_04h12.54.678,empathy_intonation_perc,2024.1.4,Win32,60.0240096,,,,,,,,,,,,,,104,estulo,,,,,,524.054,525.137,0,1,0.55,,0,45,45,103,1,pseudoword,0,REAL,FALSA
,,,,,,,,,6566679308980069340e80b8,001,2024-06-30_04h12.54.678,empathy_intonation_perc,2024.1.4,Win32,60.0240096,,,,,,,,,,,,,,85,enorme,,,,,,525.137,526.23,0,1,0.563,,0,46,46,84,1,non_cognate,1,REAL,FALSA
,,,,,,,,,6566679308980069340e80b8,001,2024-06-30_04h12.54.678,empathy_intonation_perc,2024.1.4,Win32,60.0240096,,,,,,,,,,,,,,41,pasta,,,,,,526.231,527.414,0,1,0.65,,0,47,47,40,1,two_way_cognate,1,REAL,FALSA
,,,,,,,,,6566679308980069340e80b8,001,2024-06-30_04h12.54.678,empathy_intonation_perc,2024.1.4,Win32,60.0240096,,,,,,,,,,,,,,106,diebro,,,,,,527.418,528.596,0,1,0.643,,0,48,48,105,1,pseudoword,0,REAL,FALSA
,,,,,,,,,6566679308980069340e80b8,001,2024-06-30_04h12.54.678,empathy_intonation_perc,2024.1.4,Win32,60.0240096,,,,,,,,,,,,,,173,mibro,,,,,,528.6,529.598,0,1,0.466,,0,49,49,172,1,pseudoword,0,REAL,FALSA
,,,,,,,,,6566679308980069340e80b8,001,2024-06-30_04h12.54.678,empathy_intonation_perc,2024.1.4,Win32,60.0240096,,,,,,,,,,,,,,150,cricó,,,,,,529.599,530.745,0,1,0.612,,0,50,50,149,1,pseudoword,0,REAL,FALSA
,,,,,,,,,6566679308980069340e80b8,001,2024-06-30_04h12.54.678,empathy_intonation_perc,2024.1.4,Win32,60.0240096,,,,,,,,,,,,,,49,teñir,,,,,,530.746,531.728,0,1,0.441,,0,51,51,48,1,non_cognate,1,REAL,FALSA
,,,,,,,,,6566679308980069340e80b8,001,2024-06-30_04h12.54.678,empathy_intonation_perc,2024.1.4,Win32,60.0240096,,,,,,,,,,,,,,109,laras,,,,,,531.732,532.777,0,1,0.518,,0,52,52,108,1,pseudoword,0,REAL,FALSA
,,,,,,,,,6566679308980069340e80b8,001,2024-06-30_04h12.54.678,empathy_intonation_perc,2024.1.4,Win32,60.0240096,,,,,,,,,,,,,,72,rostro,,,,,,532.779,534.394,0,1,1.069,,0,53,53,71,1,non_cognate,1,REAL,FALSA
,,,,,,,,,6566679308980069340e80b8,001,2024-06-30_04h12.54.678,empathy_intonation_perc,2024.1.4,Win32,60.0240096,,,,,,,,,,,,,,32,animal,,,,,,534.394,535.543,1,0,0.613,,0,54,54,31,1,two_way_cognate,1,REAL,FALSA
,,,,,,,,,6566679308980069340e80b8,001,2024-06-30_04h12.54.678,empathy_intonation_perc,2024.1.4,Win32,60.0240096,,,,,,,,,,,,,,180,pupica,,,,,,535.545,536.676,0,1,0.598,,0,55,55,179,1,pseudoword,0,REAL,FALSA
,,,,,,,,,6566679308980069340e80b8,001,2024-06-30_04h12.54.678,empathy_intonation_perc,2024.1.4,Win32,60.0240096,,,,,,,,,,,,,,48,pelvis,,,,,,536.677,537.86,1,0,0.647,,0,56,56,47,1,two_way_cognate,1,REAL,FALSA
,,,,,,,,,6566679308980069340e80b8,001,2024-06-30_04h12.54.678,empathy_intonation_perc,2024.1.4,Win32,60.0240096,,,,,,,,,,,,,,174,pabea,,,,,,537.861,539.092,0,1,0.698,,0,57,57,173,1,pseudoword,0,REAL,FALSA
,,,,,,,,,6566679308980069340e80b8,001,2024-06-30_04h12.54.678,empathy_intonation_perc,2024.1.4,Win32,60.0240096,,,,,,,,,,,,,,17,clan,,,,,,539.092,540.492,1,0,0.867,,0,58,58,16,1,three_way_cognate,1,REAL,FALSA
,,,,,,,,,6566679308980069340e80b8,001,2024-06-30_04h12.54.678,empathy_intonation_perc,2024.1.4,Win32,60.0240096,,,,,,,,,,,,,,158,babrá,,,,,,540.493,541.798,0,1,0.776,,0,59,59,157,1,pseudoword,0,REAL,FALSA
,,,,,,,,,6566679308980069340e80b8,001,2024-06-30_04h12.54.678,empathy_intonation_perc,2024.1.4,Win32,60.0240096,,,,,,,,,,,,,,69,tiza,,,,,,541.8,543.041,0,1,0.709,,0,60,60,68,1,non_cognate,1,REAL,FALSA
,,,,,,,,,6566679308980069340e80b8,001,2024-06-30_04h12.54.678,empathy_intonation_perc,2024.1.4,Win32,60.0240096,,,,,,,,,,,,,,88,percha,,,,,,543.044,544.106,0,1,0.531,,0,61,61,87,1,non_cognate,1,REAL,FALSA
,,,,,,,,,6566679308980069340e80b8,001,2024-06-30_04h12.54.678,empathy_intonation_perc,2024.1.4,Win32,60.0240096,,,,,,,,,,,,,,20,trauma,,,,,,544.106,547.121,1,0,2.497,,0,62,62,19,1,three_way_cognate,1,REAL,FALSA
,,,,,,,,,6566679308980069340e80b8,001,2024-06-30_04h12.54.678,empathy_intonation_perc,2024.1.4,Win32,60.0240096,,,,,,,,,,,,,,183,edioso,,,,,,547.122,548.57,0,1,0.91,,0,63,63,182,1,pseudoword,0,REAL,FALSA
,,,,,,,,,6566679308980069340e80b8,001,2024-06-30_04h12.54.678,empathy_intonation_perc,2024.1.4,Win32,60.0240096,,,,,,,,,,,,,,156,ozoso,,,,,,548.571,550.054,0,1,0.96,,0,64,64,155,1,pseudoword,0,REAL,FALSA
,,,,,,,,,6566679308980069340e80b8,001,2024-06-30_04h12.54.678,empathy_intonation_perc,2024.1.4,Win32,60.0240096,,,,,,,,,,,,,,115,lidena,,,,,,550.056,551.036,0,1,0.443,,0,65,65,114,1,pseudoword,0,REAL,FALSA
,,,,,,,,,6566679308980069340e80b8,001,2024-06-30_04h12.54.678,empathy_intonation_perc,2024.1.4,Win32,60.0240096,,,,,,,,,,,,,,71,torta,,,,,,551.036,552.302,0,1,0.732,,0,66,66,70,1,non_cognate,1,REAL,FALSA
,,,,,,,,,6566679308980069340e80b8,001,2024-06-30_04h12.54.678,empathy_intonation_perc,2024.1.4,Win32,60.0240096,,,,,,,,,,,,,,192,próces,,,,,,552.303,553.339,0,1,0.503,,0,67,67,191,1,pseudoword,0,REAL,FALSA
,,,,,,,,,6566679308980069340e80b8,001,2024-06-30_04h12.54.678,empathy_intonation_perc,2024.1.4,Win32,60.0240096,,,,,,,,,,,,,,77,suave,,,,,,553.34,554.501,0,1,0.631,,0,68,68,76,1,non_cognate,1,REAL,FALSA
,,,,,,,,,6566679308980069340e80b8,001,2024-06-30_04h12.54.678,empathy_intonation_perc,2024.1.4,Win32,60.0240096,,,,,,,,,,,,,,65,guerra,,,,,,554.502,555.553,0,1,0.514,,0,69,69,64,1,non_cognate,1,REAL,FALSA
,,,,,,,,,6566679308980069340e80b8,001,2024-06-30_04h12.54.678,empathy_intonation_perc,2024.1.4,Win32,60.0240096,,,,,,,,,,,,,,53,punta,,,,,,555.555,556.653,0,1,0.562,,0,70,70,52,1,non_cognate,1,REAL,FALSA
,,,,,,,,,6566679308980069340e80b8,001,2024-06-30_04h12.54.678,empathy_intonation_perc,2024.1.4,Win32,60.0240096,,,,,,,,,,,,,,93,tapa,,,,,,556.655,557.783,0,1,0.599,,0,71,71,92,1,non_cognate,1,REAL,FALSA
,,,,,,,,,6566679308980069340e80b8,001,2024-06-30_04h12.54.678,empathy_intonation_perc,2024.1.4,Win32,60.0240096,,,,,,,,,,,,,,145,rúo,,,,,,557.784,558.787,0,1,0.451,,0,72,72,144,1,pseudoword,0,REAL,FALSA
,,,,,,,,,6566679308980069340e80b8,001,2024-06-30_04h12.54.678,empathy_intonation_perc,2024.1.4,Win32,60.0240096,,,,,,,,,,,,,,110,densó,,,,,,558.796,560.104,0,1,0.785,,0,73,73,109,1,pseudoword,0,REAL,FALSA
,,,,,,,,,6566679308980069340e80b8,001,2024-06-30_04h12.54.678,empathy_intonation_perc,2024.1.4,Win32,60.0240096,,,,,,,,,,,,,,182,desaro,,,,,,560.107,561.322,0,1,0.689,,0,74,74,181,1,pseudoword,0,REAL,FALSA
,,,,,,,,,6566679308980069340e80b8,001,2024-06-30_04h12.54.678,empathy_intonation_perc,2024.1.4,Win32,60.0240096,,,,,,,,,,,,,,14,aura,,,,,,561.323,562.45,0,1,0.603,,0,75,75,13,1,three_way_cognate,1,REAL,FALSA
,,,,,,,,,6566679308980069340e80b8,001,2024-06-30_04h12.54.678,empathy_intonation_perc,2024.1.4,Win32,60.0240096,,,,,,,,,,,,,,170,diabo,,,,,,562.453,563.447,0,1,0.464,,0,76,76,169,1,pseudoword,0,REAL,FALSA
,,,,,,,,,6566679308980069340e80b8,001,2024-06-30_04h12.54.678,empathy_intonation_perc,2024.1.4,Win32,60.0240096,,,,,,,,,,,,,,105,leniz,,,,,,563.448,564.546,0,1,0.555,,0,77,77,104,1,pseudoword,0,REAL,FALSA
,,,,,,,,,6566679308980069340e80b8,001,2024-06-30_04h12.54.678,empathy_intonation_perc,2024.1.4,Win32,60.0240096,,,,,,,,,,,,,,112,samón,,,,,,564.547,568.277,0,1,3.194,,0,78,78,111,1,pseudoword,0,REAL,FALSA
,,,,,,,,,6566679308980069340e80b8,001,2024-06-30_04h12.54.678,empathy_intonation_perc,2024.1.4,Win32,60.0240096,,,,,,,,,,,,,,22,mango,,,,,,568.278,571.461,1,0,2.652,,0,79,79,21,1,three_way_cognate,1,REAL,FALSA
,,,,,,,,,6566679308980069340e80b8,001,2024-06-30_04h12.54.678,empathy_intonation_perc,2024.1.4,Win32,60.0240096,,,,,,,,,,,,,,188,amplir,,,,,,571.464,572.682,0,1,0.682,,0,80,80,187,1,pseudoword,0,REAL,FALSA
,,,,,,,,,6566679308980069340e80b8,001,2024-06-30_04h12.54.678,empathy_intonation_perc,2024.1.4,Win32,60.0240096,,,,,,,,,,,,,,78,rendir,,,,,,572.682,573.847,0,1,0.638,,0,81,81,77,1,non_cognate,1,REAL,FALSA
,,,,,,,,,6566679308980069340e80b8,001,2024-06-30_04h12.54.678,empathy_intonation_perc,2024.1.4,Win32,60.0240096,,,,,,,,,,,,,,171,gotro,,,,,,573.848,575.008,0,1,0.624,,0,82,82,170,1,pseudoword,0,REAL,FALSA
,,,,,,,,,6566679308980069340e80b8,001,2024-06-30_04h12.54.678,empathy_intonation_perc,2024.1.4,Win32,60.0240096,,,,,,,,,,,,,,90,venado,,,,,,575.012,576.841,0,1,1.294,,0,83,83,89,1,non_cognate,1,REAL,FALSA
,,,,,,,,,6566679308980069340e80b8,001,2024-06-30_04h12.54.678,empathy_intonation_perc,2024.1.4,Win32,60.0240096,,,,,,,,,,,,,,54,tapón,,,,,,576.842,589.535,0,1,12.162,,0,84,84,53,1,non_cognate,1,REAL,FALSA
,,,,,,,,,6566679308980069340e80b8,001,2024-06-30_04h12.54.678,empathy_intonation_perc,2024.1.4,Win32,60.0240096,,,,,,,,,,,,,,29,clamor,,,,,,589.536,590.69,0,1,0.615,,0,85,85,28,1,two_way_cognate,1,REAL,FALSA
,,,,,,,,,6566679308980069340e80b8,001,2024-06-30_04h12.54.678,empathy_intonation_perc,2024.1.4,Win32,60.0240096,,,,,,,,,,,,,,59,feo,,,,,,590.693,591.801,0,1,0.578,,0,86,86,58,1,non_cognate,1,REAL,FALSA
,,,,,,,,,6566679308980069340e80b8,001,2024-06-30_04h12.54.678,empathy_intonation_perc,2024.1.4,Win32,60.0240096,,,,,,,,,,,,,,27,piano,,,,,,591.803,594.104,1,0,1.779,,0,87,87,26,1,two_way_cognate,1,REAL,FALSA
,,,,,,,,,6566679308980069340e80b8,001,2024-06-30_04h12.54.678,empathy_intonation_perc,2024.1.4,Win32,60.0240096,,,,,,,,,,,,,,142,parre,,,,,,594.104,603.897,0,1,9.262,,0,88,88,141,1,pseudoword,0,REAL,FALSA
,,,,,,,,,6566679308980069340e80b8,001,2024-06-30_04h12.54.678,empathy_intonation_perc,2024.1.4,Win32,60.0240096,,,,,,,,,,,,,,19,mafia,,,,,,603.901,605.011,0,1,0.578,,0,89,89,18,1,three_way_cognate,1,REAL,FALSA
,,,,,,,,,6566679308980069340e80b8,001,2024-06-30_04h12.54.678,empathy_intonation_perc,2024.1.4,Win32,60.0240096,,,,,,,,,,,,,,100,épinas,,,,,,605.011,606.111,0,1,0.579,,0,90,90,99,1,pseudoword,0,REAL,FALSA
,,,,,,,,,6566679308980069340e80b8,001,2024-06-30_04h12.54.678,empathy_intonation_perc,2024.1.4,Win32,60.0240096,,,,,,,,,,,,,,176,gripar,,,,,,606.111,607.277,0,1,0.623,,0,91,91,175,1,pseudoword,0,REAL,FALSA
,,,,,,,,,6566679308980069340e80b8,001,2024-06-30_04h12.54.678,empathy_intonation_perc,2024.1.4,Win32,60.0240096,,,,,,,,,,,,,,101,losco,,,,,,607.277,608.481,0,1,0.67,,0,92,92,100,1,pseudoword,0,REAL,FALSA
,,,,,,,,,6566679308980069340e80b8,001,2024-06-30_04h12.54.678,empathy_intonation_perc,2024.1.4,Win32,60.0240096,,,,,,,,,,,,,,38,halo,,,,,,608.482,609.81,0,1,0.797,,0,93,93,37,1,two_way_cognate,1,REAL,FALSA
,,,,,,,,,6566679308980069340e80b8,001,2024-06-30_04h12.54.678,empathy_intonation_perc,2024.1.4,Win32,60.0240096,,,,,,,,,,,,,,66,aleta,,,,,,609.811,610.775,0,1,0.429,,0,94,94,65,1,non_cognate,1,REAL,FALSA
,,,,,,,,,6566679308980069340e80b8,001,2024-06-30_04h12.54.678,empathy_intonation_perc,2024.1.4,Win32,60.0240096,,,,,,,,,,,,,,92,flecha,,,,,,610.775,611.897,0,1,0.6,,0,95,95,91,1,non_cognate,1,REAL,FALSA
,,,,,,,,,6566679308980069340e80b8,001,2024-06-30_04h12.54.678,empathy_intonation_perc,2024.1.4,Win32,60.0240096,,,,,,,,,,,,,,16,chat,,,,,,611.9,614.258,1,0,1.827,,0,96,96,15,1,three_way_cognate,1,REAL,FALSA
,,,,,,,,,6566679308980069340e80b8,001,2024-06-30_04h12.54.678,empathy_intonation_perc,2024.1.4,Win32,60.0240096,,,,,,,,,,,,,,149,emén,,,,,,614.261,615.256,0,1,0.467,,0,97,97,148,1,pseudoword,0,REAL,FALSA
,,,,,,,,,6566679308980069340e80b8,001,2024-06-30_04h12.54.678,empathy_intonation_perc,2024.1.4,Win32,60.0240096,,,,,,,,,,,,,,137,trugo,,,,,,615.257,616.306,0,1,0.517,,0,98,98,136,1,pseudoword,0,REAL,FALSA
,,,,,,,,,6566679308980069340e80b8,001,2024-06-30_04h12.54.678,empathy_intonation_perc,2024.1.4,Win32,60.0240096,,,,,,,,,,,,,,57,regalo,,,,,,616.306,617.49,0,1,0.667,,0,99,99,56,1,non_cognate,1,REAL,FALSA
,,,,,,,,,6566679308980069340e80b8,001,2024-06-30_04h12.54.678,empathy_intonation_perc,2024.1.4,Win32,60.0240096,,,,,,,,,,,,,,147,alla,,,,,,617.492,618.488,0,1,0.462,,0,100,100,146,1,pseudoword,0,REAL,FALSA
,,,,,,,,,6566679308980069340e80b8,001,2024-06-30_04h12.54.678,empathy_intonation_perc,2024.1.4,Win32,60.0240096,,,,,,,,,,,,,,178,inichó,,,,,,618.489,619.721,0,1,0.697,,0,101,101,177,1,pseudoword,0,REAL,FALSA
,,,,,,,,,6566679308980069340e80b8,001,2024-06-30_04h12.54.678,empathy_intonation_perc,2024.1.4,Win32,60.0240096,,,,,,,,,,,,,,126,tobre,,,,,,619.721,620.677,0,1,0.418,,0,102,102,125,1,pseudoword,0,REAL,FALSA
,,,,,,,,,6566679308980069340e80b8,001,2024-06-30_04h12.54.678,empathy_intonation_perc,2024.1.4,Win32,60.0240096,,,,,,,,,,,,,,181,gravés,,,,,,620.684,633.651,0,1,12.44,,0,103,103,180,1,pseudoword,0,REAL,FALSA
,,,,,,,,,6566679308980069340e80b8,001,2024-06-30_04h12.54.678,empathy_intonation_perc,2024.1.4,Win32,60.0240096,,,,,,,,,,,,,,9,portal,,,,,,633.655,635.548,1,0,1.356,,0,104,104,8,1,three_way_cognate,1,REAL,FALSA
,,,,,,,,,6566679308980069340e80b8,001,2024-06-30_04h12.54.678,empathy_intonation_perc,2024.1.4,Win32,60.0240096,,,,,,,,,,,,,,3,disco,,,,,,635.55,637.082,1,0,0.994,,0,105,105,2,1,three_way_cognate,1,REAL,FALSA
,,,,,,,,,6566679308980069340e80b8,001,2024-06-30_04h12.54.678,empathy_intonation_perc,2024.1.4,Win32,60.0240096,,,,,,,,,,,,,,56,pico,,,,,,637.083,638.296,0,1,0.674,,0,106,106,55,1,non_cognate,1,REAL,FALSA
,,,,,,,,,6566679308980069340e80b8,001,2024-06-30_04h12.54.678,empathy_intonation_perc,2024.1.4,Win32,60.0240096,,,,,,,,,,,,,,143,hurcos,,,,,,638.297,639.353,0,1,0.516,,0,107,107,142,1,pseudoword,0,REAL,FALSA
,,,,,,,,,6566679308980069340e80b8,001,2024-06-30_04h12.54.678,empathy_intonation_perc,2024.1.4,Win32,60.0240096,,,,,,,,,,,,,,44,editor,,,,,,639.357,640.578,1,0,0.697,,0,108,108,43,1,two_way_cognate,1,REAL,FALSA
,,,,,,,,,6566679308980069340e80b8,001,2024-06-30_04h12.54.678,empathy_intonation_perc,2024.1.4,Win32,60.0240096,,,,,,,,,,,,,,138,tator,,,,,,640.581,641.828,0,1,0.715,,0,109,109,137,1,pseudoword,0,REAL,FALSA
,,,,,,,,,6566679308980069340e80b8,001,2024-06-30_04h12.54.678,empathy_intonation_perc,2024.1.4,Win32,60.0240096,,,,,,,,,,,,,,74,ala,,,,,,641.828,642.86,0,1,0.515,,0,110,110,73,1,non_cognate,1,REAL,FALSA
,,,,,,,,,6566679308980069340e80b8,001,2024-06-30_04h12.54.678,empathy_intonation_perc,2024.1.4,Win32,60.0240096,,,,,,,,,,,,,,91,equipo,,,,,,642.861,643.893,0,1,0.478,,0,111,111,90,1,non_cognate,1,REAL,FALSA
,,,,,,,,,6566679308980069340e80b8,001,2024-06-30_04h12.54.678,empathy_intonation_perc,2024.1.4,Win32,60.0240096,,,,,,,,,,,,,,50,sierra,,,,,,643.894,644.895,0,1,0.466,,0,112,112,49,1,non_cognate,1,REAL,FALSA
,,,,,,,,,6566679308980069340e80b8,001,2024-06-30_04h12.54.678,empathy_intonation_perc,2024.1.4,Win32,60.0240096,,,,,,,,,,,,,,58,colcha,,,,,,644.897,645.976,0,1,0.542,,0,113,113,57,1,non_cognate,1,REAL,FALSA
,,,,,,,,,6566679308980069340e80b8,001,2024-06-30_04h12.54.678,empathy_intonation_perc,2024.1.4,Win32,60.0240096,,,,,,,,,,,,,,152,prave,,,,,,645.976,646.892,0,1,0.4,,0,114,114,151,1,pseudoword,0,REAL,FALSA
,,,,,,,,,6566679308980069340e80b8,001,2024-06-30_04h12.54.678,empathy_intonation_perc,2024.1.4,Win32,60.0240096,,,,,,,,,,,,,,119,esís,,,,,,646.892,647.858,0,1,0.443,,0,115,115,118,1,pseudoword,0,REAL,FALSA
,,,,,,,,,6566679308980069340e80b8,001,2024-06-30_04h12.54.678,empathy_intonation_perc,2024.1.4,Win32,60.0240096,,,,,,,,,,,,,,1,moral,,,,,,647.859,648.794,0,1,0.399,,0,116,116,0,1,three_way_cognate,1,REAL,FALSA
,,,,,,,,,6566679308980069340e80b8,001,2024-06-30_04h12.54.678,empathy_intonation_perc,2024.1.4,Win32,60.0240096,,,,,,,,,,,,,,131,fuar,,,,,,648.796,650.009,0,1,0.678,,0,117,117,130,1,pseudoword,0,REAL,FALSA
,,,,,,,,,6566679308980069340e80b8,001,2024-06-30_04h12.54.678,empathy_intonation_perc,2024.1.4,Win32,60.0240096,,,,,,,,,,,,,,97,nocita,,,,,,650.012,650.991,0,1,0.442,,0,118,118,96,1,pseudoword,0,REAL,FALSA
,,,,,,,,,6566679308980069340e80b8,001,2024-06-30_04h12.54.678,empathy_intonation_perc,2024.1.4,Win32,60.0240096,,,,,,,,,,,,,,122,boñaz,,,,,,650.991,652.141,0,1,0.602,,0,119,119,121,1,pseudoword,0,REAL,FALSA
,,,,,,,,,6566679308980069340e80b8,001,2024-06-30_04h12.54.678,empathy_intonation_perc,2024.1.4,Win32,60.0240096,,,,,,,,,,,,,,116,grigir,,,,,,652.145,653.36,0,1,0.682,,0,120,120,115,1,pseudoword,0,REAL,FALSA
,,,,,,,,,6566679308980069340e80b8,001,2024-06-30_04h12.54.678,empathy_intonation_perc,2024.1.4,Win32,60.0240096,,,,,,,,,,,,,,89,muñeca,,,,,,653.36,654.488,0,1,0.59,,0,121,121,88,1,non_cognate,1,REAL,FALSA
,,,,,,,,,6566679308980069340e80b8,001,2024-06-30_04h12.54.678,empathy_intonation_perc,2024.1.4,Win32,60.0240096,,,,,,,,,,,,,,118,bará,,,,,,654.489,656.238,0,1,1.225,,0,122,122,117,1,pseudoword,0,REAL,FALSA
,,,,,,,,,6566679308980069340e80b8,001,2024-06-30_04h12.54.678,empathy_intonation_perc,2024.1.4,Win32,60.0240096,,,,,,,,,,,,,,23,plural,,,,,,656.244,657.721,1,0,0.94,,0,123,123,22,1,three_way_cognate,1,REAL,FALSA
,,,,,,,,,6566679308980069340e80b8,001,2024-06-30_04h12.54.678,empathy_intonation_perc,2024.1.4,Win32,60.0240096,,,,,,,,,,,,,,87,muleta,,,,,,657.723,658.853,0,1,0.609,,0,124,124,86,1,non_cognate,1,REAL,FALSA
,,,,,,,,,6566679308980069340e80b8,001,2024-06-30_04h12.54.678,empathy_intonation_perc,2024.1.4,Win32,60.0240096,,,,,,,,,,,,,,113,nasce,,,,,,658.854,659.886,0,1,0.506,,0,125,125,112,1,pseudoword,0,REAL,FALSA
,,,,,,,,,6566679308980069340e80b8,001,2024-06-30_04h12.54.678,empathy_intonation_perc,2024.1.4,Win32,60.0240096,,,,,,,,,,,,,,25,vigor,,,,,,659.887,661.26,1,0,0.837,,0,126,126,24,1,two_way_cognate,1,REAL,FALSA
,,,,,,,,,6566679308980069340e80b8,001,2024-06-30_04h12.54.678,empathy_intonation_perc,2024.1.4,Win32,60.0240096,,,,,,,,,,,,,,60,siglo,,,,,,661.261,662.402,0,1,0.607,,0,127,127,59,1,non_cognate,1,REAL,FALSA
,,,,,,,,,6566679308980069340e80b8,001,2024-06-30_04h12.54.678,empathy_intonation_perc,2024.1.4,Win32,60.0240096,,,,,,,,,,,,,,187,nomata,,,,,,662.402,663.486,0,1,0.565,,0,128,128,186,1,pseudoword,0,REAL,FALSA
,,,,,,,,,6566679308980069340e80b8,001,2024-06-30_04h12.54.678,empathy_intonation_perc,2024.1.4,Win32,60.0240096,,,,,,,,,,,,,,75,patada,,,,,,663.488,664.701,0,1,0.679,,0,129,129,74,1,non_cognate,1,REAL,FALSA
,,,,,,,,,6566679308980069340e80b8,001,2024-06-30_04h12.54.678,empathy_intonation_perc,2024.1.4,Win32,60.0240096,,,,,,,,,,,,,,123,arane,,,,,,664.702,666.435,0,1,1.217,,0,130,130,122,1,pseudoword,0,REAL,FALSA
,,,,,,,,,6566679308980069340e80b8,001,2024-06-30_04h12.54.678,empathy_intonation_perc,2024.1.4,Win32,60.0240096,,,,,,,,,,,,,,8,kilo,,,,,,666.437,669.682,1,0,2.713,,0,131,131,7,1,three_way_cognate,1,REAL,FALSA
,,,,,,,,,6566679308980069340e80b8,001,2024-06-30_04h12.54.678,empathy_intonation_perc,2024.1.4,Win32,60.0240096,,,,,,,,,,,,,,21,hotel,,,,,,669.682,670.752,1,0,0.542,,0,132,132,20,1,three_way_cognate,1,REAL,FALSA
,,,,,,,,,6566679308980069340e80b8,001,2024-06-30_04h12.54.678,empathy_intonation_perc,2024.1.4,Win32,60.0240096,,,,,,,,,,,,,,62,pegar,,,,,,670.753,671.898,0,1,0.607,,0,133,133,61,1,non_cognate,1,REAL,FALSA
,,,,,,,,,6566679308980069340e80b8,001,2024-06-30_04h12.54.678,empathy_intonation_perc,2024.1.4,Win32,60.0240096,,,,,,,,,,,,,,82,brillo,,,,,,671.898,673.091,0,1,0.652,,0,134,134,81,1,non_cognate,1,REAL,FALSA
,,,,,,,,,6566679308980069340e80b8,001,2024-06-30_04h12.54.678,empathy_intonation_perc,2024.1.4,Win32,60.0240096,,,,,,,,,,,,,,191,frasis,,,,,,673.091,674.313,0,1,0.697,,0,135,135,190,1,pseudoword,0,REAL,FALSA
,,,,,,,,,6566679308980069340e80b8,001,2024-06-30_04h12.54.678,empathy_intonation_perc,2024.1.4,Win32,60.0240096,,,,,,,,,,,,,,121,barbs,,,,,,674.313,675.296,0,1,0.449,,0,136,136,120,1,pseudoword,0,REAL,FALSA
,,,,,,,,,6566679308980069340e80b8,001,2024-06-30_04h12.54.678,empathy_intonation_perc,2024.1.4,Win32,60.0240096,,,,,,,,,,,,,,132,nocó,,,,,,675.297,676.346,0,1,0.509,,0,137,137,131,1,pseudoword,0,REAL,FALSA
,,,,,,,,,6566679308980069340e80b8,001,2024-06-30_04h12.54.678,empathy_intonation_perc,2024.1.4,Win32,60.0240096,,,,,,,,,,,,,,98,martir,,,,,,676.348,677.328,0,1,0.449,,0,138,138,97,1,pseudoword,0,REAL,FALSA
,,,,,,,,,6566679308980069340e80b8,001,2024-06-30_04h12.54.678,empathy_intonation_perc,2024.1.4,Win32,60.0240096,,,,,,,,,,,,,,86,cuenco,,,,,,677.336,678.461,0,1,0.593,,0,139,139,85,1,non_cognate,1,REAL,FALSA
,,,,,,,,,6566679308980069340e80b8,001,2024-06-30_04h12.54.678,empathy_intonation_perc,2024.1.4,Win32,60.0240096,,,,,,,,,,,,,,79,suelo,,,,,,678.461,679.494,0,1,0.51,,0,140,140,78,1,non_cognate,1,REAL,FALSA
,,,,,,,,,6566679308980069340e80b8,001,2024-06-30_04h12.54.678,empathy_intonation_perc,2024.1.4,Win32,60.0240096,,,,,,,,,,,,,,133,conso,,,,,,679.494,680.361,0,1,0.35,,0,141,141,132,1,pseudoword,0,REAL,FALSA
,,,,,,,,,6566679308980069340e80b8,001,2024-06-30_04h12.54.678,empathy_intonation_perc,2024.1.4,Win32,60.0240096,,,,,,,,,,,,,,39,casual,,,,,,680.362,693.392,1,0,12.486,,0,142,142,38,1,two_way_cognate,1,REAL,FALSA
,,,,,,,,,6566679308980069340e80b8,001,2024-06-30_04h12.54.678,empathy_intonation_perc,2024.1.4,Win32,60.0240096,,,,,,,,,,,,,,52,blando,,,,,,693.395,695.486,0,1,1.551,,0,143,143,51,1,non_cognate,1,REAL,FALSA
,,,,,,,,,6566679308980069340e80b8,001,2024-06-30_04h12.54.678,empathy_intonation_perc,2024.1.4,Win32,60.0240096,,,,,,,,,,,,,,84,aviso,,,,,,695.487,696.87,0,1,0.863,,0,144,144,83,1,non_cognate,1,REAL,FALSA
,,,,,,,,,6566679308980069340e80b8,001,2024-06-30_04h12.54.678,empathy_intonation_perc,2024.1.4,Win32,60.0240096,,,,,,,,,,,,,,73,llevar,,,,,,696.871,697.919,0,1,0.51,,0,145,145,72,1,non_cognate,1,REAL,FALSA
,,,,,,,,,6566679308980069340e80b8,001,2024-06-30_04h12.54.678,empathy_intonation_perc,2024.1.4,Win32,60.0240096,,,,,,,,,,,,,,43,honor,,,,,,697.922,699.135,1,0,0.68,,0,146,146,42,1,two_way_cognate,1,REAL,FALSA
,,,,,,,,,6566679308980069340e80b8,001,2024-06-30_04h12.54.678,empathy_intonation_perc,2024.1.4,Win32,60.0240096,,,,,,,,,,,,,,146,gió,,,,,,699.136,700.234,0,1,0.559,,0,147,147,145,1,pseudoword,0,REAL,FALSA
,,,,,,,,,6566679308980069340e80b8,001,2024-06-30_04h12.54.678,empathy_intonation_perc,2024.1.4,Win32,60.0240096,,,,,,,,,,,,,,177,entodo,,,,,,700.235,701.517,0,1,0.758,,0,148,148,176,1,pseudoword,0,REAL,FALSA
,,,,,,,,,6566679308980069340e80b8,001,2024-06-30_04h12.54.678,empathy_intonation_perc,2024.1.4,Win32,60.0240096,,,,,,,,,,,,,,76,chocar,,,,,,701.518,704.02,0,1,1.964,,0,149,149,75,1,non_cognate,1,REAL,FALSA
,,,,,,,,,6566679308980069340e80b8,001,2024-06-30_04h12.54.678,empathy_intonation_perc,2024.1.4,Win32,60.0240096,,,,,,,,,,,,,,24,retina,,,,,,704.02,722.576,0,1,18.02,,0,150,150,23,1,three_way_cognate,1,REAL,FALSA
,,,,,,,,,6566679308980069340e80b8,001,2024-06-30_04h12.54.678,empathy_intonation_perc,2024.1.4,Win32,60.0240096,,,,,,,,,,,,,,186,rizate,,,,,,722.581,723.848,0,1,0.739,,0,151,151,185,1,pseudoword,0,REAL,FALSA
,,,,,,,,,6566679308980069340e80b8,001,2024-06-30_04h12.54.678,empathy_intonation_perc,2024.1.4,Win32,60.0240096,,,,,,,,,,,,,,99,bugor,,,,,,723.848,725.406,0,1,1.026,,0,152,152,98,1,pseudoword,0,REAL,FALSA
,,,,,,,,,6566679308980069340e80b8,001,2024-06-30_04h12.54.678,empathy_intonation_perc,2024.1.4,Win32,60.0240096,,,,,,,,,,,,,,162,cengo,,,,,,725.408,726.473,0,1,0.527,,0,153,153,161,1,pseudoword,0,REAL,FALSA
,,,,,,,,,6566679308980069340e80b8,001,2024-06-30_04h12.54.678,empathy_intonation_perc,2024.1.4,Win32,60.0240096,,,,,,,,,,,,,,40,pelvis,,,,,,726.474,727.511,0,1,0.495,,0,154,154,39,1,two_way_cognate,1,REAL,FALSA
,,,,,,,,,6566679308980069340e80b8,001,2024-06-30_04h12.54.678,empathy_intonation_perc,2024.1.4,Win32,60.0240096,,,,,,,,,,,,,,83,hálito,,,,,,727.512,728.572,0,1,0.532,,0,155,155,82,1,non_cognate,1,REAL,FALSA
,,,,,,,,,6566679308980069340e80b8,001,2024-06-30_04h12.54.678,empathy_intonation_perc,2024.1.4,Win32,60.0240096,,,,,,,,,,,,,,96,caro,,,,,,728.574,729.671,0,1,0.549,,0,156,156,95,1,non_cognate,1,REAL,FALSA
,,,,,,,,,6566679308980069340e80b8,001,2024-06-30_04h12.54.678,empathy_intonation_perc,2024.1.4,Win32,60.0240096,,,,,,,,,,,,,,157,seled,,,,,,729.671,730.688,0,1,0.491,,0,157,157,156,1,pseudoword,0,REAL,FALSA
,,,,,,,,,6566679308980069340e80b8,001,2024-06-30_04h12.54.678,empathy_intonation_perc,2024.1.4,Win32,60.0240096,,,,,,,,,,,,,,148,gino,,,,,,730.689,731.886,0,1,0.662,,0,158,158,147,1,pseudoword,0,REAL,FALSA
,,,,,,,,,6566679308980069340e80b8,001,2024-06-30_04h12.54.678,empathy_intonation_perc,2024.1.4,Win32,60.0240096,,,,,,,,,,,,,,166,anfia,,,,,,731.887,733.002,0,1,0.592,,0,159,159,165,1,pseudoword,0,REAL,FALSA
,,,,,,,,,6566679308980069340e80b8,001,2024-06-30_04h12.54.678,empathy_intonation_perc,2024.1.4,Win32,60.0240096,,,,,,,,,,,,,,37,torso,,,,,,733.003,734.519,0,1,1.001,,0,160,160,36,1,two_way_cognate,1,REAL,FALSA
,,,,,,,,,6566679308980069340e80b8,001,2024-06-30_04h12.54.678,empathy_intonation_perc,2024.1.4,Win32,60.0240096,,,,,,,,,,,,,,164,tecia,,,,,,734.52,735.735,0,1,0.67,,0,161,161,163,1,pseudoword,0,REAL,FALSA
,,,,,,,,,6566679308980069340e80b8,001,2024-06-30_04h12.54.678,empathy_intonation_perc,2024.1.4,Win32,60.0240096,,,,,,,,,,,,,,102,coyo,,,,,,735.736,736.835,0,1,0.565,,0,162,162,101,1,pseudoword,0,REAL,FALSA
,,,,,,,,,6566679308980069340e80b8,001,2024-06-30_04h12.54.678,empathy_intonation_perc,2024.1.4,Win32,60.0240096,,,,,,,,,,,,,,117,morrá,,,,,,736.836,737.941,0,1,0.573,,0,163,163,116,1,pseudoword,0,REAL,FALSA
,,,,,,,,,6566679308980069340e80b8,001,2024-06-30_04h12.54.678,empathy_intonation_perc,2024.1.4,Win32,60.0240096,,,,,,,,,,,,,,13,plan,,,,,,737.943,739.251,1,0,0.784,,0,164,164,12,1,three_way_cognate,1,REAL,FALSA
,,,,,,,,,6566679308980069340e80b8,001,2024-06-30_04h12.54.678,empathy_intonation_perc,2024.1.4,Win32,60.0240096,,,,,,,,,,,,,,18,altar,,,,,,739.252,740.583,1,0,0.803,,0,165,165,17,1,three_way_cognate,1,REAL,FALSA
,,,,,,,,,6566679308980069340e80b8,001,2024-06-30_04h12.54.678,empathy_intonation_perc,2024.1.4,Win32,60.0240096,,,,,,,,,,,,,,161,civas,,,,,,740.585,741.951,0,1,0.832,,0,166,166,160,1,pseudoword,0,REAL,FALSA
,,,,,,,,,6566679308980069340e80b8,001,2024-06-30_04h12.54.678,empathy_intonation_perc,2024.1.4,Win32,60.0240096,,,,,,,,,,,,,,139,sasos,,,,,,741.951,743.099,0,1,0.614,,0,167,167,138,1,pseudoword,0,REAL,FALSA
,,,,,,,,,6566679308980069340e80b8,001,2024-06-30_04h12.54.678,empathy_intonation_perc,2024.1.4,Win32,60.0240096,,,,,,,,,,,,,,7,albino,,,,,,743.101,744.101,0,1,0.464,,0,168,168,6,1,three_way_cognate,1,REAL,FALSA
,,,,,,,,,6566679308980069340e80b8,001,2024-06-30_04h12.54.678,empathy_intonation_perc,2024.1.4,Win32,60.0240096,,,,,,,,,,,,,,11,golf,,,,,,744.103,747.496,0,1,2.863,,0,169,169,10,1,three_way_cognate,1,REAL,FALSA
,,,,,,,,,6566679308980069340e80b8,001,2024-06-30_04h12.54.678,empathy_intonation_perc,2024.1.4,Win32,60.0240096,,,,,,,,,,,,,,127,vien,,,,,,747.497,750.282,1,0,2.241,,0,170,170,126,1,pseudoword,0,REAL,FALSA
,,,,,,,,,6566679308980069340e80b8,001,2024-06-30_04h12.54.678,empathy_intonation_perc,2024.1.4,Win32,60.0240096,,,,,,,,,,,,,,80,cuenco,,,,,,750.285,751.562,0,1,0.75,,0,171,171,79,1,non_cognate,1,REAL,FALSA
,,,,,,,,,6566679308980069340e80b8,001,2024-06-30_04h12.54.678,empathy_intonation_perc,2024.1.4,Win32,60.0240096,,,,,,,,,,,,,,30,fiscal,,,,,,751.563,753.144,1,0,1.041,,0,172,172,29,1,two_way_cognate,1,REAL,FALSA
,,,,,,,,,6566679308980069340e80b8,001,2024-06-30_04h12.54.678,empathy_intonation_perc,2024.1.4,Win32,60.0240096,,,,,,,,,,,,,,4,flora,,,,,,753.145,754.593,0,1,0.913,,0,173,173,3,1,three_way_cognate,1,REAL,FALSA
,,,,,,,,,6566679308980069340e80b8,001,2024-06-30_04h12.54.678,empathy_intonation_perc,2024.1.4,Win32,60.0240096,,,,,,,,,,,,,,167,dobbo,,,,,,754.593,756.181,1,0,1.067,,0,174,174,166,1,pseudoword,0,REAL,FALSA
,,,,,,,,,6566679308980069340e80b8,001,2024-06-30_04h12.54.678,empathy_intonation_perc,2024.1.4,Win32,60.0240096,,,,,,,,,,,,,,34,actor,,,,,,756.181,758.112,1,0,1.397,,0,175,175,33,1,two_way_cognate,1,REAL,FALSA
,,,,,,,,,6566679308980069340e80b8,001,2024-06-30_04h12.54.678,empathy_intonation_perc,2024.1.4,Win32,60.0240096,,,,,,,,,,,,,,141,virios,,,,,,758.114,761.157,0,1,2.503,,0,176,176,140,1,pseudoword,0,REAL,FALSA
,,,,,,,,,6566679308980069340e80b8,001,2024-06-30_04h12.54.678,empathy_intonation_perc,2024.1.4,Win32,60.0240096,,,,,,,,,,,,,,63,hilo,,,,,,761.158,762.656,0,1,0.961,,0,177,177,62,1,non_cognate,1,REAL,FALSA
,,,,,,,,,6566679308980069340e80b8,001,2024-06-30_04h12.54.678,empathy_intonation_perc,2024.1.4,Win32,60.0240096,,,,,,,,,,,,,,94,forro,,,,,,762.657,764.455,0,1,1.28,,0,178,178,93,1,non_cognate,1,REAL,FALSA
,,,,,,,,,6566679308980069340e80b8,001,2024-06-30_04h12.54.678,empathy_intonation_perc,2024.1.4,Win32,60.0240096,,,,,,,,,,,,,,55,maldad,,,,,,764.457,772.935,0,1,7.942,,0,179,179,54,1,non_cognate,1,REAL,FALSA
,,,,,,,,,6566679308980069340e80b8,001,2024-06-30_04h12.54.678,empathy_intonation_perc,2024.1.4,Win32,60.0240096,,,,,,,,,,,,,,175,tradía,,,,,,772.936,774.167,0,1,0.692,,0,180,180,174,1,pseudoword,0,REAL,FALSA
,,,,,,,,,6566679308980069340e80b8,001,2024-06-30_04h12.54.678,empathy_intonation_perc,2024.1.4,Win32,60.0240096,,,,,,,,,,,,,,36,viable,,,,,,774.168,775.938,1,0,1.231,,0,181,181,35,1,two_way_cognate,1,REAL,FALSA
,,,,,,,,,6566679308980069340e80b8,001,2024-06-30_04h12.54.678,empathy_intonation_perc,2024.1.4,Win32,60.0240096,,,,,,,,,,,,,,179,suelet,,,,,,775.945,777.516,0,1,1.042,,0,182,182,178,1,pseudoword,0,REAL,FALSA
,,,,,,,,,6566679308980069340e80b8,001,2024-06-30_04h12.54.678,empathy_intonation_perc,2024.1.4,Win32,60.0240096,,,,,,,,,,,,,,151,prías,,,,,,777.517,778.699,0,1,0.64,,0,183,183,150,1,pseudoword,0,REAL,FALSA
,,,,,,,,,6566679308980069340e80b8,001,2024-06-30_04h12.54.678,empathy_intonation_perc,2024.1.4,Win32,60.0240096,,,,,,,,,,,,,,144,diroco,,,,,,778.7,779.85,0,1,0.609,,0,184,184,143,1,pseudoword,0,REAL,FALSA
,,,,,,,,,6566679308980069340e80b8,001,2024-06-30_04h12.54.678,empathy_intonation_perc,2024.1.4,Win32,60.0240096,,,,,,,,,,,,,,163,olzan,,,,,,779.853,780.948,0,1,0.564,,0,185,185,162,1,pseudoword,0,REAL,FALSA
,,,,,,,,,6566679308980069340e80b8,001,2024-06-30_04h12.54.678,empathy_intonation_perc,2024.1.4,Win32,60.0240096,,,,,,,,,,,,,,165,chote,,,,,,780.948,782.053,0,1,0.559,,0,186,186,164,1,pseudoword,0,REAL,FALSA
,,,,,,,,,6566679308980069340e80b8,001,2024-06-30_04h12.54.678,empathy_intonation_perc,2024.1.4,Win32,60.0240096,,,,,,,,,,,,,,135,panté,,,,,,782.054,783.081,0,1,0.491,,0,187,187,134,1,pseudoword,0,REAL,FALSA
,,,,,,,,,6566679308980069340e80b8,001,2024-06-30_04h12.54.678,empathy_intonation_perc,2024.1.4,Win32,60.0240096,,,,,,,,,,,,,,114,dibrea,,,,,,783.082,784.163,0,1,0.548,,0,188,188,113,1,pseudoword,0,REAL,FALSA
,,,,,,,,,6566679308980069340e80b8,001,2024-06-30_04h12.54.678,empathy_intonation_perc,2024.1.4,Win32,60.0240096,,,,,,,,,,,,,,128,pelí,,,,,,784.164,785.286,0,1,0.577,,0,189,189,127,1,pseudoword,0,REAL,FALSA
,,,,,,,,,6566679308980069340e80b8,001,2024-06-30_04h12.54.678,empathy_intonation_perc,2024.1.4,Win32,60.0240096,,,,,,,,,,,,,,15,test,,,,,,785.286,787.985,0,1,2.17,,0,190,190,14,1,three_way_cognate,1,REAL,FALSA
,,,,,,,,,6566679308980069340e80b8,001,2024-06-30_04h12.54.678,empathy_intonation_perc,2024.1.4,Win32,60.0240096,,,,,,,,,,,,,,12,dogma,,,,,,787.986,791.526,0,1,3.009,,0,191,191,11,1,three_way_cognate,1,REAL,FALSA
