lextale_instructions.started,lextale_instructions.stopped,lextale_instructions_loop.thisRepN,lextale_instructions_loop.thisTrialN,lextale_instructions_loop.thisN,lextale_instructions_loop.thisIndex,lextale_instructions_loop.ran,instructions_text,continue_text,participant,session,date,expName,psychopyVersion,OS,frameRate,lextale_practice.started,lextale_practice.stopped,key_resp_lextale_practice.keys,key_resp_lextale_practice.corr,key_resp_lextale_practice.rt,key_resp_lextale_practice.duration,lextale_practice_feedback.started,lextale_practice_feedback.stopped,lextale_practice_trials.thisRepN,lextale_practice_trials.thisTrialN,lextale_practice_trials.thisN,lextale_practice_trials.thisIndex,lextale_practice_trials.ran,stim,word,correct_response,prac_button_real,prac_button_false,lextale_check.started,lextale_check.stopped,lextale_trial.started,lextale_trial.stopped,key_resp_lextale_trial.keys,key_resp_lextale_trial.corr,key_resp_lextale_trial.rt,key_resp_lextale_trial.duration,lextail_trials.thisRepN,lextail_trials.thisTrialN,lextail_trials.thisN,lextail_trials.thisIndex,lextail_trials.ran,type,correct_reponse,button_real,button_false
0.01,2.539,0,0,0,0,1,"Este es un test de vocabulario en español. 
  
  A continuación vas a ver 90 secuencias de letras que parecen 'españolas'.
  
  Solo algunas de ellas son palabras de verdad.",(presiona la barra espaciadora para continuar),659595b3c61f611de029a25b,001,2024-06-30_04h13.13.511,empathy_intonation_perc,2024.1.4,Win32,60.0240096,,,,,,,,,,,,,,,,,,,,,,,,,,,,,,,,,,,
2.539,3.403,0,1,1,1,1,"Por favor, señala las palabras que tú conoces (aquellas que estás convencido que son palabras españolas, incluso aunque no seas capaz de dar el significado preciso).",(presiona la barra espaciadora para continuar),659595b3c61f611de029a25b,001,2024-06-30_04h13.13.511,empathy_intonation_perc,2024.1.4,Win32,60.0240096,,,,,,,,,,,,,,,,,,,,,,,,,,,,,,,,,,,
3.404,3.969,0,2,2,2,1,Pero cuidado: los errores se penalizan. Por eso no tiene sentido tratar de incrementar tu puntuación marcando como reales palabras que nunca has visto.,(presiona la barra espaciadora para continuar),659595b3c61f611de029a25b,001,2024-06-30_04h13.13.511,empathy_intonation_perc,2024.1.4,Win32,60.0240096,,,,,,,,,,,,,,,,,,,,,,,,,,,,,,,,,,,
3.97,4.464,0,3,3,3,1,"Presiona la tecla 1 si piensas que es una palabra real y la tecla 
  0 si piensas que es una palabra falsa. 
  
  Vamos a practicar un poco...",(presiona la barra espaciadora para continuar),659595b3c61f611de029a25b,001,2024-06-30_04h13.13.511,empathy_intonation_perc,2024.1.4,Win32,60.0240096,,,,,,,,,,,,,,,,,,,,,,,,,,,,,,,,,,,
,,,,,,,,,659595b3c61f611de029a25b,001,2024-06-30_04h13.13.511,empathy_intonation_perc,2024.1.4,Win32,60.0240096,4.47,7.651,1,0,2.647,,7.651,8.648,0,0,0,0,1,0,depiste,0,REAL,FALSA,,,,,,,,,,,,,,,,,
,,,,,,,,,659595b3c61f611de029a25b,001,2024-06-30_04h13.13.511,empathy_intonation_perc,2024.1.4,Win32,60.0240096,8.65,9.564,0,0,0.379,,9.565,10.562,0,1,1,1,1,0,sí,1,REAL,FALSA,,,,,,,,,,,,,,,,,
,,,,,,,,,659595b3c61f611de029a25b,001,2024-06-30_04h13.13.511,empathy_intonation_perc,2024.1.4,Win32,60.0240096,10.562,11.5,1,0,0.418,,11.501,12.495,0,2,2,2,1,0,coné,0,REAL,FALSA,,,,,,,,,,,,,,,,,
,,,,,,,,,659595b3c61f611de029a25b,001,2024-06-30_04h13.13.511,empathy_intonation_perc,2024.1.4,Win32,60.0240096,12.496,13.933,0,1,0.905,,13.934,14.928,0,3,3,3,1,0,calpar,0,REAL,FALSA,,,,,,,,,,,,,,,,,
,,,,,,,,,659595b3c61f611de029a25b,001,2024-06-30_04h13.13.511,empathy_intonation_perc,2024.1.4,Win32,60.0240096,14.942,16.127,0,1,0.649,,16.127,17.126,0,4,4,4,1,0,joten,0,REAL,FALSA,,,,,,,,,,,,,,,,,
,,,,,,,,,659595b3c61f611de029a25b,001,2024-06-30_04h13.13.511,empathy_intonation_perc,2024.1.4,Win32,60.0240096,17.126,18.397,0,0,0.735,,18.397,19.392,0,5,5,5,1,0,sacapuntas,1,REAL,FALSA,,,,,,,,,,,,,,,,,
,,,,,,,,,659595b3c61f611de029a25b,001,2024-06-30_04h13.13.511,empathy_intonation_perc,2024.1.4,Win32,60.0240096,19.396,20.758,0,1,0.827,,20.758,21.757,0,6,6,6,1,0,priba,0,REAL,FALSA,,,,,,,,,,,,,,,,,
,,,,,,,,,659595b3c61f611de029a25b,001,2024-06-30_04h13.13.511,empathy_intonation_perc,2024.1.4,Win32,60.0240096,21.761,23.04,0,1,0.728,,23.04,24.039,0,7,7,7,1,0,pelasula,0,REAL,FALSA,,,,,,,,,,,,,,,,,
,,,,,,,,,659595b3c61f611de029a25b,001,2024-06-30_04h13.13.511,empathy_intonation_perc,2024.1.4,Win32,60.0240096,24.041,25.605,1,1,1.028,,25.605,26.604,0,8,8,8,1,0,bien,1,REAL,FALSA,,,,,,,,,,,,,,,,,
,,,,,,,,,659595b3c61f611de029a25b,001,2024-06-30_04h13.13.511,empathy_intonation_perc,2024.1.4,Win32,60.0240096,26.609,28.17,1,1,1.031,,28.17,29.17,0,9,9,9,1,0,casa,1,REAL,FALSA,,,,,,,,,,,,,,,,,
,,,,,,,,,659595b3c61f611de029a25b,001,2024-06-30_04h13.13.511,empathy_intonation_perc,2024.1.4,Win32,60.0240096,29.172,30.438,0,1,0.718,,30.439,31.44,0,10,10,10,1,0,lejo,0,REAL,FALSA,,,,,,,,,,,,,,,,,
,,,,,,,,,659595b3c61f611de029a25b,001,2024-06-30_04h13.13.511,empathy_intonation_perc,2024.1.4,Win32,60.0240096,31.441,33.453,0,1,1.48,,33.453,34.451,0,11,11,11,1,0,pretantas,0,REAL,FALSA,,,,,,,,,,,,,,,,,
,,,,,,,,,659595b3c61f611de029a25b,001,2024-06-30_04h13.13.511,empathy_intonation_perc,2024.1.4,Win32,60.0240096,,,,,,,,,,,,,,,,,,,34.451,37.316,,,,,,,,,,,,,,,
,,,,,,,,,659595b3c61f611de029a25b,001,2024-06-30_04h13.13.511,empathy_intonation_perc,2024.1.4,Win32,60.0240096,,,,,,,,,,,,,,189,medium,,,,,,37.334,40.199,1,0,2.346,,0,0,0,188,1,pseudoword,0,REAL,FALSA
,,,,,,,,,659595b3c61f611de029a25b,001,2024-06-30_04h13.13.511,empathy_intonation_perc,2024.1.4,Win32,60.0240096,,,,,,,,,,,,,,178,inichó,,,,,,40.202,42.997,0,1,2.25,,0,1,1,177,1,pseudoword,0,REAL,FALSA
,,,,,,,,,659595b3c61f611de029a25b,001,2024-06-30_04h13.13.511,empathy_intonation_perc,2024.1.4,Win32,60.0240096,,,,,,,,,,,,,,83,hálito,,,,,,42.997,44.373,0,1,0.856,,0,2,2,82,1,non_cognate,1,REAL,FALSA
,,,,,,,,,659595b3c61f611de029a25b,001,2024-06-30_04h13.13.511,empathy_intonation_perc,2024.1.4,Win32,60.0240096,,,,,,,,,,,,,,67,llamar,,,,,,44.378,45.497,0,1,0.592,,0,3,3,66,1,non_cognate,1,REAL,FALSA
,,,,,,,,,659595b3c61f611de029a25b,001,2024-06-30_04h13.13.511,empathy_intonation_perc,2024.1.4,Win32,60.0240096,,,,,,,,,,,,,,4,flora,,,,,,45.497,46.846,1,0,0.803,,0,4,4,3,1,three_way_cognate,1,REAL,FALSA
,,,,,,,,,659595b3c61f611de029a25b,001,2024-06-30_04h13.13.511,empathy_intonation_perc,2024.1.4,Win32,60.0240096,,,,,,,,,,,,,,22,mango,,,,,,46.848,48.061,1,0,0.691,,0,5,5,21,1,three_way_cognate,1,REAL,FALSA
,,,,,,,,,659595b3c61f611de029a25b,001,2024-06-30_04h13.13.511,empathy_intonation_perc,2024.1.4,Win32,60.0240096,,,,,,,,,,,,,,111,monue,,,,,,48.062,49.312,0,1,0.715,,0,6,6,110,1,pseudoword,0,REAL,FALSA
,,,,,,,,,659595b3c61f611de029a25b,001,2024-06-30_04h13.13.511,empathy_intonation_perc,2024.1.4,Win32,60.0240096,,,,,,,,,,,,,,132,nocó,,,,,,49.315,50.394,0,1,0.54,,0,7,7,131,1,pseudoword,0,REAL,FALSA
,,,,,,,,,659595b3c61f611de029a25b,001,2024-06-30_04h13.13.511,empathy_intonation_perc,2024.1.4,Win32,60.0240096,,,,,,,,,,,,,,125,ceme,,,,,,50.395,51.543,0,1,0.613,,0,8,8,124,1,pseudoword,0,REAL,FALSA
,,,,,,,,,659595b3c61f611de029a25b,001,2024-06-30_04h13.13.511,empathy_intonation_perc,2024.1.4,Win32,60.0240096,,,,,,,,,,,,,,35,aurora,,,,,,51.544,52.66,0,1,0.571,,0,9,9,34,1,two_way_cognate,1,REAL,FALSA
,,,,,,,,,659595b3c61f611de029a25b,001,2024-06-30_04h13.13.511,empathy_intonation_perc,2024.1.4,Win32,60.0240096,,,,,,,,,,,,,,49,teñir,,,,,,52.661,53.799,0,1,0.603,,0,10,10,48,1,non_cognate,1,REAL,FALSA
,,,,,,,,,659595b3c61f611de029a25b,001,2024-06-30_04h13.13.511,empathy_intonation_perc,2024.1.4,Win32,60.0240096,,,,,,,,,,,,,,185,aljizo,,,,,,53.799,55.025,0,1,0.698,,0,11,11,184,1,pseudoword,0,REAL,FALSA
,,,,,,,,,659595b3c61f611de029a25b,001,2024-06-30_04h13.13.511,empathy_intonation_perc,2024.1.4,Win32,60.0240096,,,,,,,,,,,,,,176,gripar,,,,,,55.028,56.141,0,1,0.582,,0,12,12,175,1,pseudoword,0,REAL,FALSA
,,,,,,,,,659595b3c61f611de029a25b,001,2024-06-30_04h13.13.511,empathy_intonation_perc,2024.1.4,Win32,60.0240096,,,,,,,,,,,,,,19,mafia,,,,,,56.142,57.391,0,1,0.713,,0,13,13,18,1,three_way_cognate,1,REAL,FALSA
,,,,,,,,,659595b3c61f611de029a25b,001,2024-06-30_04h13.13.511,empathy_intonation_perc,2024.1.4,Win32,60.0240096,,,,,,,,,,,,,,112,samón,,,,,,57.391,58.625,0,1,0.702,,0,14,14,111,1,pseudoword,0,REAL,FALSA
,,,,,,,,,659595b3c61f611de029a25b,001,2024-06-30_04h13.13.511,empathy_intonation_perc,2024.1.4,Win32,60.0240096,,,,,,,,,,,,,,37,torso,,,,,,58.625,59.658,0,1,0.503,,0,15,15,36,1,two_way_cognate,1,REAL,FALSA
,,,,,,,,,659595b3c61f611de029a25b,001,2024-06-30_04h13.13.511,empathy_intonation_perc,2024.1.4,Win32,60.0240096,,,,,,,,,,,,,,157,seled,,,,,,59.658,60.772,0,1,0.577,,0,16,16,156,1,pseudoword,0,REAL,FALSA
,,,,,,,,,659595b3c61f611de029a25b,001,2024-06-30_04h13.13.511,empathy_intonation_perc,2024.1.4,Win32,60.0240096,,,,,,,,,,,,,,6,horror,,,,,,60.772,62.039,1,0,0.748,,0,17,17,5,1,three_way_cognate,1,REAL,FALSA
,,,,,,,,,659595b3c61f611de029a25b,001,2024-06-30_04h13.13.511,empathy_intonation_perc,2024.1.4,Win32,60.0240096,,,,,,,,,,,,,,92,flecha,,,,,,62.039,63.154,0,1,0.567,,0,18,18,91,1,non_cognate,1,REAL,FALSA
,,,,,,,,,659595b3c61f611de029a25b,001,2024-06-30_04h13.13.511,empathy_intonation_perc,2024.1.4,Win32,60.0240096,,,,,,,,,,,,,,139,sasos,,,,,,63.155,64.204,0,1,0.529,,0,19,19,138,1,pseudoword,0,REAL,FALSA
,,,,,,,,,659595b3c61f611de029a25b,001,2024-06-30_04h13.13.511,empathy_intonation_perc,2024.1.4,Win32,60.0240096,,,,,,,,,,,,,,186,rizate,,,,,,64.205,65.304,0,1,0.566,,0,20,20,185,1,pseudoword,0,REAL,FALSA
,,,,,,,,,659595b3c61f611de029a25b,001,2024-06-30_04h13.13.511,empathy_intonation_perc,2024.1.4,Win32,60.0240096,,,,,,,,,,,,,,147,alla,,,,,,65.304,66.538,0,1,0.714,,0,21,21,146,1,pseudoword,0,REAL,FALSA
,,,,,,,,,659595b3c61f611de029a25b,001,2024-06-30_04h13.13.511,empathy_intonation_perc,2024.1.4,Win32,60.0240096,,,,,,,,,,,,,,46,mortal,,,,,,66.539,69.893,1,0,2.821,,0,22,22,45,1,two_way_cognate,1,REAL,FALSA
,,,,,,,,,659595b3c61f611de029a25b,001,2024-06-30_04h13.13.511,empathy_intonation_perc,2024.1.4,Win32,60.0240096,,,,,,,,,,,,,,43,honor,,,,,,69.894,80.569,1,0,10.138,,0,23,23,42,1,two_way_cognate,1,REAL,FALSA
,,,,,,,,,659595b3c61f611de029a25b,001,2024-06-30_04h13.13.511,empathy_intonation_perc,2024.1.4,Win32,60.0240096,,,,,,,,,,,,,,5,extra,,,,,,80.576,81.797,1,0,0.695,,0,24,24,4,1,three_way_cognate,1,REAL,FALSA
,,,,,,,,,659595b3c61f611de029a25b,001,2024-06-30_04h13.13.511,empathy_intonation_perc,2024.1.4,Win32,60.0240096,,,,,,,,,,,,,,94,forro,,,,,,81.799,83.712,0,1,1.38,,0,25,25,93,1,non_cognate,1,REAL,FALSA
,,,,,,,,,659595b3c61f611de029a25b,001,2024-06-30_04h13.13.511,empathy_intonation_perc,2024.1.4,Win32,60.0240096,,,,,,,,,,,,,,76,chocar,,,,,,83.717,84.945,0,1,0.694,,0,26,26,75,1,non_cognate,1,REAL,FALSA
,,,,,,,,,659595b3c61f611de029a25b,001,2024-06-30_04h13.13.511,empathy_intonation_perc,2024.1.4,Win32,60.0240096,,,,,,,,,,,,,,12,dogma,,,,,,84.945,85.985,0,1,0.517,,0,27,27,11,1,three_way_cognate,1,REAL,FALSA
,,,,,,,,,659595b3c61f611de029a25b,001,2024-06-30_04h13.13.511,empathy_intonation_perc,2024.1.4,Win32,60.0240096,,,,,,,,,,,,,,13,plan,,,,,,85.987,87.178,1,0,0.661,,0,28,28,12,1,three_way_cognate,1,REAL,FALSA
,,,,,,,,,659595b3c61f611de029a25b,001,2024-06-30_04h13.13.511,empathy_intonation_perc,2024.1.4,Win32,60.0240096,,,,,,,,,,,,,,36,viable,,,,,,87.18,88.378,1,0,0.663,,0,29,29,35,1,two_way_cognate,1,REAL,FALSA
,,,,,,,,,659595b3c61f611de029a25b,001,2024-06-30_04h13.13.511,empathy_intonation_perc,2024.1.4,Win32,60.0240096,,,,,,,,,,,,,,123,arane,,,,,,88.382,89.6,0,1,0.679,,0,30,30,122,1,pseudoword,0,REAL,FALSA
,,,,,,,,,659595b3c61f611de029a25b,001,2024-06-30_04h13.13.511,empathy_intonation_perc,2024.1.4,Win32,60.0240096,,,,,,,,,,,,,,47,color,,,,,,89.602,90.743,1,0,0.619,,0,31,31,46,1,two_way_cognate,1,REAL,FALSA
,,,,,,,,,659595b3c61f611de029a25b,001,2024-06-30_04h13.13.511,empathy_intonation_perc,2024.1.4,Win32,60.0240096,,,,,,,,,,,,,,14,aura,,,,,,90.744,91.875,0,1,0.599,,0,32,32,13,1,three_way_cognate,1,REAL,FALSA
,,,,,,,,,659595b3c61f611de029a25b,001,2024-06-30_04h13.13.511,empathy_intonation_perc,2024.1.4,Win32,60.0240096,,,,,,,,,,,,,,187,nomata,,,,,,91.876,93.028,0,1,0.604,,0,33,33,186,1,pseudoword,0,REAL,FALSA
,,,,,,,,,659595b3c61f611de029a25b,001,2024-06-30_04h13.13.511,empathy_intonation_perc,2024.1.4,Win32,60.0240096,,,,,,,,,,,,,,84,aviso,,,,,,93.029,93.924,0,1,0.367,,0,34,34,83,1,non_cognate,1,REAL,FALSA
,,,,,,,,,659595b3c61f611de029a25b,001,2024-06-30_04h13.13.511,empathy_intonation_perc,2024.1.4,Win32,60.0240096,,,,,,,,,,,,,,179,suelet,,,,,,93.924,94.775,0,1,0.324,,0,35,35,178,1,pseudoword,0,REAL,FALSA
,,,,,,,,,659595b3c61f611de029a25b,001,2024-06-30_04h13.13.511,empathy_intonation_perc,2024.1.4,Win32,60.0240096,,,,,,,,,,,,,,127,vien,,,,,,94.775,95.674,0,1,0.36,,0,36,36,126,1,pseudoword,0,REAL,FALSA
,,,,,,,,,659595b3c61f611de029a25b,001,2024-06-30_04h13.13.511,empathy_intonation_perc,2024.1.4,Win32,60.0240096,,,,,,,,,,,,,,41,pasta,,,,,,95.674,96.923,1,0,0.714,,0,37,37,40,1,two_way_cognate,1,REAL,FALSA
,,,,,,,,,659595b3c61f611de029a25b,001,2024-06-30_04h13.13.511,empathy_intonation_perc,2024.1.4,Win32,60.0240096,,,,,,,,,,,,,,72,rostro,,,,,,96.924,97.988,0,1,0.529,,0,38,38,71,1,non_cognate,1,REAL,FALSA
,,,,,,,,,659595b3c61f611de029a25b,001,2024-06-30_04h13.13.511,empathy_intonation_perc,2024.1.4,Win32,60.0240096,,,,,,,,,,,,,,183,edioso,,,,,,97.99,99.105,0,1,0.576,,0,39,39,182,1,pseudoword,0,REAL,FALSA
,,,,,,,,,659595b3c61f611de029a25b,001,2024-06-30_04h13.13.511,empathy_intonation_perc,2024.1.4,Win32,60.0240096,,,,,,,,,,,,,,57,regalo,,,,,,99.108,100.238,0,1,0.596,,0,40,40,56,1,non_cognate,1,REAL,FALSA
,,,,,,,,,659595b3c61f611de029a25b,001,2024-06-30_04h13.13.511,empathy_intonation_perc,2024.1.4,Win32,60.0240096,,,,,,,,,,,,,,192,próces,,,,,,100.239,106.756,0,1,5.974,,0,41,41,191,1,pseudoword,0,REAL,FALSA
,,,,,,,,,659595b3c61f611de029a25b,001,2024-06-30_04h13.13.511,empathy_intonation_perc,2024.1.4,Win32,60.0240096,,,,,,,,,,,,,,48,pelvis,,,,,,106.764,108.801,1,0,1.501,,0,42,42,47,1,two_way_cognate,1,REAL,FALSA
,,,,,,,,,659595b3c61f611de029a25b,001,2024-06-30_04h13.13.511,empathy_intonation_perc,2024.1.4,Win32,60.0240096,,,,,,,,,,,,,,33,collar,,,,,,108.802,109.9,1,0,0.574,,0,43,43,32,1,two_way_cognate,1,REAL,FALSA
,,,,,,,,,659595b3c61f611de029a25b,001,2024-06-30_04h13.13.511,empathy_intonation_perc,2024.1.4,Win32,60.0240096,,,,,,,,,,,,,,162,cengo,,,,,,109.902,110.983,0,1,0.548,,0,44,44,161,1,pseudoword,0,REAL,FALSA
,,,,,,,,,659595b3c61f611de029a25b,001,2024-06-30_04h13.13.511,empathy_intonation_perc,2024.1.4,Win32,60.0240096,,,,,,,,,,,,,,70,ánimo,,,,,,110.984,111.966,0,1,0.448,,0,45,45,69,1,non_cognate,1,REAL,FALSA
,,,,,,,,,659595b3c61f611de029a25b,001,2024-06-30_04h13.13.511,empathy_intonation_perc,2024.1.4,Win32,60.0240096,,,,,,,,,,,,,,75,patada,,,,,,111.967,113.115,0,1,0.612,,0,46,46,74,1,non_cognate,1,REAL,FALSA
,,,,,,,,,659595b3c61f611de029a25b,001,2024-06-30_04h13.13.511,empathy_intonation_perc,2024.1.4,Win32,60.0240096,,,,,,,,,,,,,,30,fiscal,,,,,,113.115,114.332,1,0,0.694,,0,47,47,29,1,two_way_cognate,1,REAL,FALSA
,,,,,,,,,659595b3c61f611de029a25b,001,2024-06-30_04h13.13.511,empathy_intonation_perc,2024.1.4,Win32,60.0240096,,,,,,,,,,,,,,40,pelvis,,,,,,114.333,115.236,0,1,0.371,,0,48,48,39,1,two_way_cognate,1,REAL,FALSA
,,,,,,,,,659595b3c61f611de029a25b,001,2024-06-30_04h13.13.511,empathy_intonation_perc,2024.1.4,Win32,60.0240096,,,,,,,,,,,,,,146,gió,,,,,,115.238,116.265,0,1,0.496,,0,49,49,145,1,pseudoword,0,REAL,FALSA
,,,,,,,,,659595b3c61f611de029a25b,001,2024-06-30_04h13.13.511,empathy_intonation_perc,2024.1.4,Win32,60.0240096,,,,,,,,,,,,,,163,olzan,,,,,,116.267,117.249,0,1,0.441,,0,50,50,162,1,pseudoword,0,REAL,FALSA
,,,,,,,,,659595b3c61f611de029a25b,001,2024-06-30_04h13.13.511,empathy_intonation_perc,2024.1.4,Win32,60.0240096,,,,,,,,,,,,,,23,plural,,,,,,117.25,118.448,1,0,0.666,,0,51,51,22,1,three_way_cognate,1,REAL,FALSA
,,,,,,,,,659595b3c61f611de029a25b,001,2024-06-30_04h13.13.511,empathy_intonation_perc,2024.1.4,Win32,60.0240096,,,,,,,,,,,,,,68,puñal,,,,,,118.449,119.662,0,1,0.681,,0,52,52,67,1,non_cognate,1,REAL,FALSA
,,,,,,,,,659595b3c61f611de029a25b,001,2024-06-30_04h13.13.511,empathy_intonation_perc,2024.1.4,Win32,60.0240096,,,,,,,,,,,,,,103,vueras,,,,,,119.663,120.678,0,1,0.481,,0,53,53,102,1,pseudoword,0,REAL,FALSA
,,,,,,,,,659595b3c61f611de029a25b,001,2024-06-30_04h13.13.511,empathy_intonation_perc,2024.1.4,Win32,60.0240096,,,,,,,,,,,,,,150,cricó,,,,,,120.678,121.933,0,1,0.737,,0,54,54,149,1,pseudoword,0,REAL,FALSA
,,,,,,,,,659595b3c61f611de029a25b,001,2024-06-30_04h13.13.511,empathy_intonation_perc,2024.1.4,Win32,60.0240096,,,,,,,,,,,,,,124,lobe,,,,,,121.933,123.001,0,1,0.542,,0,55,55,123,1,pseudoword,0,REAL,FALSA
,,,,,,,,,659595b3c61f611de029a25b,001,2024-06-30_04h13.13.511,empathy_intonation_perc,2024.1.4,Win32,60.0240096,,,,,,,,,,,,,,153,golla,,,,,,123.002,124.111,0,1,0.58,,0,56,56,152,1,pseudoword,0,REAL,FALSA
,,,,,,,,,659595b3c61f611de029a25b,001,2024-06-30_04h13.13.511,empathy_intonation_perc,2024.1.4,Win32,60.0240096,,,,,,,,,,,,,,50,sierra,,,,,,124.112,125.111,0,1,0.461,,0,57,57,49,1,non_cognate,1,REAL,FALSA
,,,,,,,,,659595b3c61f611de029a25b,001,2024-06-30_04h13.13.511,empathy_intonation_perc,2024.1.4,Win32,60.0240096,,,,,,,,,,,,,,190,asumie,,,,,,125.112,126.626,0,1,0.984,,0,58,58,189,1,pseudoword,0,REAL,FALSA
,,,,,,,,,659595b3c61f611de029a25b,001,2024-06-30_04h13.13.511,empathy_intonation_perc,2024.1.4,Win32,60.0240096,,,,,,,,,,,,,,152,prave,,,,,,126.631,127.828,1,0,0.669,,0,59,59,151,1,pseudoword,0,REAL,FALSA
,,,,,,,,,659595b3c61f611de029a25b,001,2024-06-30_04h13.13.511,empathy_intonation_perc,2024.1.4,Win32,60.0240096,,,,,,,,,,,,,,133,conso,,,,,,127.83,129.215,0,1,0.86,,0,60,60,132,1,pseudoword,0,REAL,FALSA
,,,,,,,,,659595b3c61f611de029a25b,001,2024-06-30_04h13.13.511,empathy_intonation_perc,2024.1.4,Win32,60.0240096,,,,,,,,,,,,,,149,emén,,,,,,129.215,130.473,0,1,0.731,,0,61,61,148,1,pseudoword,0,REAL,FALSA
,,,,,,,,,659595b3c61f611de029a25b,001,2024-06-30_04h13.13.511,empathy_intonation_perc,2024.1.4,Win32,60.0240096,,,,,,,,,,,,,,155,kugis,,,,,,130.474,131.491,0,1,0.498,,0,62,62,154,1,pseudoword,0,REAL,FALSA
,,,,,,,,,659595b3c61f611de029a25b,001,2024-06-30_04h13.13.511,empathy_intonation_perc,2024.1.4,Win32,60.0240096,,,,,,,,,,,,,,26,enigma,,,,,,131.492,132.74,0,1,0.704,,0,63,63,25,1,two_way_cognate,1,REAL,FALSA
,,,,,,,,,659595b3c61f611de029a25b,001,2024-06-30_04h13.13.511,empathy_intonation_perc,2024.1.4,Win32,60.0240096,,,,,,,,,,,,,,34,actor,,,,,,132.74,133.889,1,0,0.614,,0,64,64,33,1,two_way_cognate,1,REAL,FALSA
,,,,,,,,,659595b3c61f611de029a25b,001,2024-06-30_04h13.13.511,empathy_intonation_perc,2024.1.4,Win32,60.0240096,,,,,,,,,,,,,,126,tobre,,,,,,133.89,135.906,0,1,1.487,,0,65,65,125,1,pseudoword,0,REAL,FALSA
,,,,,,,,,659595b3c61f611de029a25b,001,2024-06-30_04h13.13.511,empathy_intonation_perc,2024.1.4,Win32,60.0240096,,,,,,,,,,,,,,3,disco,,,,,,135.909,137.043,0,1,0.596,,0,66,66,2,1,three_way_cognate,1,REAL,FALSA
,,,,,,,,,659595b3c61f611de029a25b,001,2024-06-30_04h13.13.511,empathy_intonation_perc,2024.1.4,Win32,60.0240096,,,,,,,,,,,,,,61,aduana,,,,,,137.049,138.209,0,1,0.637,,0,67,67,60,1,non_cognate,1,REAL,FALSA
,,,,,,,,,659595b3c61f611de029a25b,001,2024-06-30_04h13.13.511,empathy_intonation_perc,2024.1.4,Win32,60.0240096,,,,,,,,,,,,,,130,dubo,,,,,,138.211,139.37,0,1,0.617,,0,68,68,129,1,pseudoword,0,REAL,FALSA
,,,,,,,,,659595b3c61f611de029a25b,001,2024-06-30_04h13.13.511,empathy_intonation_perc,2024.1.4,Win32,60.0240096,,,,,,,,,,,,,,141,virios,,,,,,139.371,140.536,0,1,0.63,,0,69,69,140,1,pseudoword,0,REAL,FALSA
,,,,,,,,,659595b3c61f611de029a25b,001,2024-06-30_04h13.13.511,empathy_intonation_perc,2024.1.4,Win32,60.0240096,,,,,,,,,,,,,,106,diebro,,,,,,140.537,141.769,0,1,0.705,,0,70,70,105,1,pseudoword,0,REAL,FALSA
,,,,,,,,,659595b3c61f611de029a25b,001,2024-06-30_04h13.13.511,empathy_intonation_perc,2024.1.4,Win32,60.0240096,,,,,,,,,,,,,,110,densó,,,,,,141.77,142.918,0,1,0.613,,0,71,71,109,1,pseudoword,0,REAL,FALSA
,,,,,,,,,659595b3c61f611de029a25b,001,2024-06-30_04h13.13.511,empathy_intonation_perc,2024.1.4,Win32,60.0240096,,,,,,,,,,,,,,98,martir,,,,,,142.919,144.069,0,1,0.61,,0,72,72,97,1,pseudoword,0,REAL,FALSA
,,,,,,,,,659595b3c61f611de029a25b,001,2024-06-30_04h13.13.511,empathy_intonation_perc,2024.1.4,Win32,60.0240096,,,,,,,,,,,,,,113,nasce,,,,,,144.071,145.25,0,1,0.638,,0,73,73,112,1,pseudoword,0,REAL,FALSA
,,,,,,,,,659595b3c61f611de029a25b,001,2024-06-30_04h13.13.511,empathy_intonation_perc,2024.1.4,Win32,60.0240096,,,,,,,,,,,,,,109,laras,,,,,,145.251,147.433,0,1,1.648,,0,74,74,108,1,pseudoword,0,REAL,FALSA
,,,,,,,,,659595b3c61f611de029a25b,001,2024-06-30_04h13.13.511,empathy_intonation_perc,2024.1.4,Win32,60.0240096,,,,,,,,,,,,,,161,civas,,,,,,147.434,149.049,0,1,1.084,,0,75,75,160,1,pseudoword,0,REAL,FALSA
,,,,,,,,,659595b3c61f611de029a25b,001,2024-06-30_04h13.13.511,empathy_intonation_perc,2024.1.4,Win32,60.0240096,,,,,,,,,,,,,,38,halo,,,,,,149.05,151.932,1,0,2.337,,0,76,76,37,1,two_way_cognate,1,REAL,FALSA
,,,,,,,,,659595b3c61f611de029a25b,001,2024-06-30_04h13.13.511,empathy_intonation_perc,2024.1.4,Win32,60.0240096,,,,,,,,,,,,,,95,listo,,,,,,151.934,153.455,0,1,0.991,,0,77,77,94,1,non_cognate,1,REAL,FALSA
,,,,,,,,,659595b3c61f611de029a25b,001,2024-06-30_04h13.13.511,empathy_intonation_perc,2024.1.4,Win32,60.0240096,,,,,,,,,,,,,,71,torta,,,,,,153.456,154.612,0,1,0.624,,0,78,78,70,1,non_cognate,1,REAL,FALSA
,,,,,,,,,659595b3c61f611de029a25b,001,2024-06-30_04h13.13.511,empathy_intonation_perc,2024.1.4,Win32,60.0240096,,,,,,,,,,,,,,174,pabea,,,,,,154.613,155.696,0,1,0.561,,0,79,79,173,1,pseudoword,0,REAL,FALSA
,,,,,,,,,659595b3c61f611de029a25b,001,2024-06-30_04h13.13.511,empathy_intonation_perc,2024.1.4,Win32,60.0240096,,,,,,,,,,,,,,80,cuenco,,,,,,155.697,156.796,0,1,0.556,,0,80,80,79,1,non_cognate,1,REAL,FALSA
,,,,,,,,,659595b3c61f611de029a25b,001,2024-06-30_04h13.13.511,empathy_intonation_perc,2024.1.4,Win32,60.0240096,,,,,,,,,,,,,,116,grigir,,,,,,156.797,157.848,0,1,0.509,,0,81,81,115,1,pseudoword,0,REAL,FALSA
,,,,,,,,,659595b3c61f611de029a25b,001,2024-06-30_04h13.13.511,empathy_intonation_perc,2024.1.4,Win32,60.0240096,,,,,,,,,,,,,,119,esís,,,,,,157.849,158.86,0,1,0.477,,0,82,82,118,1,pseudoword,0,REAL,FALSA
,,,,,,,,,659595b3c61f611de029a25b,001,2024-06-30_04h13.13.511,empathy_intonation_perc,2024.1.4,Win32,60.0240096,,,,,,,,,,,,,,100,épinas,,,,,,158.861,159.912,0,1,0.532,,0,83,83,99,1,pseudoword,0,REAL,FALSA
,,,,,,,,,659595b3c61f611de029a25b,001,2024-06-30_04h13.13.511,empathy_intonation_perc,2024.1.4,Win32,60.0240096,,,,,,,,,,,,,,9,portal,,,,,,159.913,161.227,1,0,0.779,,0,84,84,8,1,three_way_cognate,1,REAL,FALSA
,,,,,,,,,659595b3c61f611de029a25b,001,2024-06-30_04h13.13.511,empathy_intonation_perc,2024.1.4,Win32,60.0240096,,,,,,,,,,,,,,18,altar,,,,,,161.227,162.376,0,1,0.607,,0,85,85,17,1,three_way_cognate,1,REAL,FALSA
,,,,,,,,,659595b3c61f611de029a25b,001,2024-06-30_04h13.13.511,empathy_intonation_perc,2024.1.4,Win32,60.0240096,,,,,,,,,,,,,,128,pelí,,,,,,162.378,163.442,0,1,0.535,,0,86,86,127,1,pseudoword,0,REAL,FALSA
,,,,,,,,,659595b3c61f611de029a25b,001,2024-06-30_04h13.13.511,empathy_intonation_perc,2024.1.4,Win32,60.0240096,,,,,,,,,,,,,,65,guerra,,,,,,163.443,164.542,0,1,0.582,,0,87,87,64,1,non_cognate,1,REAL,FALSA
,,,,,,,,,659595b3c61f611de029a25b,001,2024-06-30_04h13.13.511,empathy_intonation_perc,2024.1.4,Win32,60.0240096,,,,,,,,,,,,,,129,vinzó,,,,,,164.543,165.491,0,1,0.412,,0,88,88,128,1,pseudoword,0,REAL,FALSA
,,,,,,,,,659595b3c61f611de029a25b,001,2024-06-30_04h13.13.511,empathy_intonation_perc,2024.1.4,Win32,60.0240096,,,,,,,,,,,,,,79,suelo,,,,,,165.492,166.707,0,1,0.677,,0,89,89,78,1,non_cognate,1,REAL,FALSA
,,,,,,,,,659595b3c61f611de029a25b,001,2024-06-30_04h13.13.511,empathy_intonation_perc,2024.1.4,Win32,60.0240096,,,,,,,,,,,,,,81,sacar,,,,,,166.708,167.861,0,1,0.606,,0,90,90,80,1,non_cognate,1,REAL,FALSA
,,,,,,,,,659595b3c61f611de029a25b,001,2024-06-30_04h13.13.511,empathy_intonation_perc,2024.1.4,Win32,60.0240096,,,,,,,,,,,,,,158,babrá,,,,,,167.863,168.94,0,1,0.549,,0,91,91,157,1,pseudoword,0,REAL,FALSA
,,,,,,,,,659595b3c61f611de029a25b,001,2024-06-30_04h13.13.511,empathy_intonation_perc,2024.1.4,Win32,60.0240096,,,,,,,,,,,,,,143,hurcos,,,,,,168.941,170.006,0,1,0.544,,0,92,92,142,1,pseudoword,0,REAL,FALSA
,,,,,,,,,659595b3c61f611de029a25b,001,2024-06-30_04h13.13.511,empathy_intonation_perc,2024.1.4,Win32,60.0240096,,,,,,,,,,,,,,78,rendir,,,,,,170.008,171.122,0,1,0.582,,0,93,93,77,1,non_cognate,1,REAL,FALSA
,,,,,,,,,659595b3c61f611de029a25b,001,2024-06-30_04h13.13.511,empathy_intonation_perc,2024.1.4,Win32,60.0240096,,,,,,,,,,,,,,17,clan,,,,,,171.124,172.255,1,0,0.591,,0,94,94,16,1,three_way_cognate,1,REAL,FALSA
,,,,,,,,,659595b3c61f611de029a25b,001,2024-06-30_04h13.13.511,empathy_intonation_perc,2024.1.4,Win32,60.0240096,,,,,,,,,,,,,,86,cuenco,,,,,,172.256,173.405,0,1,0.61,,0,95,95,85,1,non_cognate,1,REAL,FALSA
,,,,,,,,,659595b3c61f611de029a25b,001,2024-06-30_04h13.13.511,empathy_intonation_perc,2024.1.4,Win32,60.0240096,,,,,,,,,,,,,,66,aleta,,,,,,173.409,174.454,0,1,0.514,,0,96,96,65,1,non_cognate,1,REAL,FALSA
,,,,,,,,,659595b3c61f611de029a25b,001,2024-06-30_04h13.13.511,empathy_intonation_perc,2024.1.4,Win32,60.0240096,,,,,,,,,,,,,,172,dogue,,,,,,174.455,175.624,0,1,0.628,,0,97,97,171,1,pseudoword,0,REAL,FALSA
,,,,,,,,,659595b3c61f611de029a25b,001,2024-06-30_04h13.13.511,empathy_intonation_perc,2024.1.4,Win32,60.0240096,,,,,,,,,,,,,,151,prías,,,,,,175.625,180.651,0,1,4.496,,0,98,98,150,1,pseudoword,0,REAL,FALSA
,,,,,,,,,659595b3c61f611de029a25b,001,2024-06-30_04h13.13.511,empathy_intonation_perc,2024.1.4,Win32,60.0240096,,,,,,,,,,,,,,54,tapón,,,,,,180.652,181.734,0,1,0.557,,0,99,99,53,1,non_cognate,1,REAL,FALSA
,,,,,,,,,659595b3c61f611de029a25b,001,2024-06-30_04h13.13.511,empathy_intonation_perc,2024.1.4,Win32,60.0240096,,,,,,,,,,,,,,108,jauda,,,,,,181.737,182.884,0,1,0.612,,0,100,100,107,1,pseudoword,0,REAL,FALSA
,,,,,,,,,659595b3c61f611de029a25b,001,2024-06-30_04h13.13.511,empathy_intonation_perc,2024.1.4,Win32,60.0240096,,,,,,,,,,,,,,107,plago,,,,,,182.887,183.954,0,1,0.524,,0,101,101,106,1,pseudoword,0,REAL,FALSA
,,,,,,,,,659595b3c61f611de029a25b,001,2024-06-30_04h13.13.511,empathy_intonation_perc,2024.1.4,Win32,60.0240096,,,,,,,,,,,,,,184,huenos,,,,,,183.954,184.974,0,1,0.485,,0,102,102,183,1,pseudoword,0,REAL,FALSA
,,,,,,,,,659595b3c61f611de029a25b,001,2024-06-30_04h13.13.511,empathy_intonation_perc,2024.1.4,Win32,60.0240096,,,,,,,,,,,,,,87,muleta,,,,,,184.974,186.016,0,1,0.513,,0,103,103,86,1,non_cognate,1,REAL,FALSA
,,,,,,,,,659595b3c61f611de029a25b,001,2024-06-30_04h13.13.511,empathy_intonation_perc,2024.1.4,Win32,60.0240096,,,,,,,,,,,,,,63,hilo,,,,,,186.017,187.265,0,1,0.714,,0,104,104,62,1,non_cognate,1,REAL,FALSA
,,,,,,,,,659595b3c61f611de029a25b,001,2024-06-30_04h13.13.511,empathy_intonation_perc,2024.1.4,Win32,60.0240096,,,,,,,,,,,,,,117,morrá,,,,,,187.268,188.264,0,1,0.465,,0,105,105,116,1,pseudoword,0,REAL,FALSA
,,,,,,,,,659595b3c61f611de029a25b,001,2024-06-30_04h13.13.511,empathy_intonation_perc,2024.1.4,Win32,60.0240096,,,,,,,,,,,,,,60,siglo,,,,,,188.266,189.499,0,1,0.687,,0,106,106,59,1,non_cognate,1,REAL,FALSA
,,,,,,,,,659595b3c61f611de029a25b,001,2024-06-30_04h13.13.511,empathy_intonation_perc,2024.1.4,Win32,60.0240096,,,,,,,,,,,,,,89,muñeca,,,,,,189.5,190.529,0,1,0.499,,0,107,107,88,1,non_cognate,1,REAL,FALSA
,,,,,,,,,659595b3c61f611de029a25b,001,2024-06-30_04h13.13.511,empathy_intonation_perc,2024.1.4,Win32,60.0240096,,,,,,,,,,,,,,20,trauma,,,,,,190.53,191.53,0,1,0.476,,0,108,108,19,1,three_way_cognate,1,REAL,FALSA
,,,,,,,,,659595b3c61f611de029a25b,001,2024-06-30_04h13.13.511,empathy_intonation_perc,2024.1.4,Win32,60.0240096,,,,,,,,,,,,,,180,pupica,,,,,,191.53,192.646,0,1,0.57,,0,109,109,179,1,pseudoword,0,REAL,FALSA
,,,,,,,,,659595b3c61f611de029a25b,001,2024-06-30_04h13.13.511,empathy_intonation_perc,2024.1.4,Win32,60.0240096,,,,,,,,,,,,,,77,suave,,,,,,192.646,193.853,0,1,0.695,,0,110,110,76,1,non_cognate,1,REAL,FALSA
,,,,,,,,,659595b3c61f611de029a25b,001,2024-06-30_04h13.13.511,empathy_intonation_perc,2024.1.4,Win32,60.0240096,,,,,,,,,,,,,,21,hotel,,,,,,193.854,195.018,1,0,0.63,,0,111,111,20,1,three_way_cognate,1,REAL,FALSA
,,,,,,,,,659595b3c61f611de029a25b,001,2024-06-30_04h13.13.511,empathy_intonation_perc,2024.1.4,Win32,60.0240096,,,,,,,,,,,,,,82,brillo,,,,,,195.02,196.344,0,1,0.8,,0,112,112,81,1,non_cognate,1,REAL,FALSA
,,,,,,,,,659595b3c61f611de029a25b,001,2024-06-30_04h13.13.511,empathy_intonation_perc,2024.1.4,Win32,60.0240096,,,,,,,,,,,,,,167,dobbo,,,,,,196.344,198.514,0,1,1.634,,0,113,113,166,1,pseudoword,0,REAL,FALSA
,,,,,,,,,659595b3c61f611de029a25b,001,2024-06-30_04h13.13.511,empathy_intonation_perc,2024.1.4,Win32,60.0240096,,,,,,,,,,,,,,73,llevar,,,,,,198.521,199.627,0,1,0.583,,0,114,114,72,1,non_cognate,1,REAL,FALSA
,,,,,,,,,659595b3c61f611de029a25b,001,2024-06-30_04h13.13.511,empathy_intonation_perc,2024.1.4,Win32,60.0240096,,,,,,,,,,,,,,114,dibrea,,,,,,199.628,200.899,0,1,0.739,,0,115,115,113,1,pseudoword,0,REAL,FALSA
,,,,,,,,,659595b3c61f611de029a25b,001,2024-06-30_04h13.13.511,empathy_intonation_perc,2024.1.4,Win32,60.0240096,,,,,,,,,,,,,,159,trcia,,,,,,200.899,202.042,0,1,0.612,,0,116,116,158,1,pseudoword,0,REAL,FALSA
,,,,,,,,,659595b3c61f611de029a25b,001,2024-06-30_04h13.13.511,empathy_intonation_perc,2024.1.4,Win32,60.0240096,,,,,,,,,,,,,,28,ardor,,,,,,202.042,203.124,0,1,0.537,,0,117,117,27,1,two_way_cognate,1,REAL,FALSA
,,,,,,,,,659595b3c61f611de029a25b,001,2024-06-30_04h13.13.511,empathy_intonation_perc,2024.1.4,Win32,60.0240096,,,,,,,,,,,,,,164,tecia,,,,,,203.126,205.24,0,1,1.576,,0,118,118,163,1,pseudoword,0,REAL,FALSA
,,,,,,,,,659595b3c61f611de029a25b,001,2024-06-30_04h13.13.511,empathy_intonation_perc,2024.1.4,Win32,60.0240096,,,,,,,,,,,,,,32,animal,,,,,,205.242,206.432,1,0,0.661,,0,119,119,31,1,two_way_cognate,1,REAL,FALSA
,,,,,,,,,659595b3c61f611de029a25b,001,2024-06-30_04h13.13.511,empathy_intonation_perc,2024.1.4,Win32,60.0240096,,,,,,,,,,,,,,166,anfia,,,,,,206.433,207.439,0,1,0.477,,0,120,120,165,1,pseudoword,0,REAL,FALSA
,,,,,,,,,659595b3c61f611de029a25b,001,2024-06-30_04h13.13.511,empathy_intonation_perc,2024.1.4,Win32,60.0240096,,,,,,,,,,,,,,7,albino,,,,,,207.442,208.606,0,1,0.635,,0,121,121,6,1,three_way_cognate,1,REAL,FALSA
,,,,,,,,,659595b3c61f611de029a25b,001,2024-06-30_04h13.13.511,empathy_intonation_perc,2024.1.4,Win32,60.0240096,,,,,,,,,,,,,,27,piano,,,,,,208.607,210.005,1,0,0.862,,0,122,122,26,1,two_way_cognate,1,REAL,FALSA
,,,,,,,,,659595b3c61f611de029a25b,001,2024-06-30_04h13.13.511,empathy_intonation_perc,2024.1.4,Win32,60.0240096,,,,,,,,,,,,,,104,estulo,,,,,,210.006,211.188,0,1,0.649,,0,123,123,103,1,pseudoword,0,REAL,FALSA
,,,,,,,,,659595b3c61f611de029a25b,001,2024-06-30_04h13.13.511,empathy_intonation_perc,2024.1.4,Win32,60.0240096,,,,,,,,,,,,,,170,diabo,,,,,,211.19,212.309,0,1,0.589,,0,124,124,169,1,pseudoword,0,REAL,FALSA
,,,,,,,,,659595b3c61f611de029a25b,001,2024-06-30_04h13.13.511,empathy_intonation_perc,2024.1.4,Win32,60.0240096,,,,,,,,,,,,,,15,test,,,,,,212.309,213.469,1,0,0.624,,0,125,125,14,1,three_way_cognate,1,REAL,FALSA
,,,,,,,,,659595b3c61f611de029a25b,001,2024-06-30_04h13.13.511,empathy_intonation_perc,2024.1.4,Win32,60.0240096,,,,,,,,,,,,,,8,kilo,,,,,,213.47,214.669,1,0,0.67,,0,126,126,7,1,three_way_cognate,1,REAL,FALSA
,,,,,,,,,659595b3c61f611de029a25b,001,2024-06-30_04h13.13.511,empathy_intonation_perc,2024.1.4,Win32,60.0240096,,,,,,,,,,,,,,115,lidena,,,,,,214.67,215.753,0,1,0.553,,0,127,127,114,1,pseudoword,0,REAL,FALSA
,,,,,,,,,659595b3c61f611de029a25b,001,2024-06-30_04h13.13.511,empathy_intonation_perc,2024.1.4,Win32,60.0240096,,,,,,,,,,,,,,45,total,,,,,,215.754,216.901,1,0,0.615,,0,128,128,44,1,two_way_cognate,1,REAL,FALSA
,,,,,,,,,659595b3c61f611de029a25b,001,2024-06-30_04h13.13.511,empathy_intonation_perc,2024.1.4,Win32,60.0240096,,,,,,,,,,,,,,134,molor,,,,,,216.902,218.267,0,1,0.833,,0,129,129,133,1,pseudoword,0,REAL,FALSA
,,,,,,,,,659595b3c61f611de029a25b,001,2024-06-30_04h13.13.511,empathy_intonation_perc,2024.1.4,Win32,60.0240096,,,,,,,,,,,,,,58,colcha,,,,,,218.267,219.367,0,1,0.579,,0,130,130,57,1,non_cognate,1,REAL,FALSA
,,,,,,,,,659595b3c61f611de029a25b,001,2024-06-30_04h13.13.511,empathy_intonation_perc,2024.1.4,Win32,60.0240096,,,,,,,,,,,,,,96,caro,,,,,,219.367,220.666,0,1,0.783,,0,131,131,95,1,non_cognate,1,REAL,FALSA
,,,,,,,,,659595b3c61f611de029a25b,001,2024-06-30_04h13.13.511,empathy_intonation_perc,2024.1.4,Win32,60.0240096,,,,,,,,,,,,,,2,tumor,,,,,,220.667,222.832,1,0,1.64,,0,132,132,1,1,three_way_cognate,1,REAL,FALSA
,,,,,,,,,659595b3c61f611de029a25b,001,2024-06-30_04h13.13.511,empathy_intonation_perc,2024.1.4,Win32,60.0240096,,,,,,,,,,,,,,120,mauja,,,,,,222.832,224.016,0,1,0.657,,0,133,133,119,1,pseudoword,0,REAL,FALSA
,,,,,,,,,659595b3c61f611de029a25b,001,2024-06-30_04h13.13.511,empathy_intonation_perc,2024.1.4,Win32,60.0240096,,,,,,,,,,,,,,97,nocita,,,,,,224.02,225.214,0,1,0.662,,0,134,134,96,1,pseudoword,0,REAL,FALSA
,,,,,,,,,659595b3c61f611de029a25b,001,2024-06-30_04h13.13.511,empathy_intonation_perc,2024.1.4,Win32,60.0240096,,,,,,,,,,,,,,1,moral,,,,,,225.215,226.397,1,0,0.645,,0,135,135,0,1,three_way_cognate,1,REAL,FALSA
,,,,,,,,,659595b3c61f611de029a25b,001,2024-06-30_04h13.13.511,empathy_intonation_perc,2024.1.4,Win32,60.0240096,,,,,,,,,,,,,,136,hueas,,,,,,226.397,227.455,0,1,0.515,,0,136,136,135,1,pseudoword,0,REAL,FALSA
,,,,,,,,,659595b3c61f611de029a25b,001,2024-06-30_04h13.13.511,empathy_intonation_perc,2024.1.4,Win32,60.0240096,,,,,,,,,,,,,,122,boñaz,,,,,,227.455,228.581,0,1,0.601,,0,137,137,121,1,pseudoword,0,REAL,FALSA
,,,,,,,,,659595b3c61f611de029a25b,001,2024-06-30_04h13.13.511,empathy_intonation_perc,2024.1.4,Win32,60.0240096,,,,,,,,,,,,,,69,tiza,,,,,,228.582,230.282,0,1,1.154,,0,138,138,68,1,non_cognate,1,REAL,FALSA
,,,,,,,,,659595b3c61f611de029a25b,001,2024-06-30_04h13.13.511,empathy_intonation_perc,2024.1.4,Win32,60.0240096,,,,,,,,,,,,,,16,chat,,,,,,230.295,231.481,1,0,0.638,,0,139,139,15,1,three_way_cognate,1,REAL,FALSA
,,,,,,,,,659595b3c61f611de029a25b,001,2024-06-30_04h13.13.511,empathy_intonation_perc,2024.1.4,Win32,60.0240096,,,,,,,,,,,,,,142,parre,,,,,,231.482,232.498,0,1,0.49,,0,140,140,141,1,pseudoword,0,REAL,FALSA
,,,,,,,,,659595b3c61f611de029a25b,001,2024-06-30_04h13.13.511,empathy_intonation_perc,2024.1.4,Win32,60.0240096,,,,,,,,,,,,,,188,amplir,,,,,,232.499,233.71,0,1,0.681,,0,141,141,187,1,pseudoword,0,REAL,FALSA
,,,,,,,,,659595b3c61f611de029a25b,001,2024-06-30_04h13.13.511,empathy_intonation_perc,2024.1.4,Win32,60.0240096,,,,,,,,,,,,,,177,entodo,,,,,,233.712,234.695,0,1,0.449,,0,142,142,176,1,pseudoword,0,REAL,FALSA
,,,,,,,,,659595b3c61f611de029a25b,001,2024-06-30_04h13.13.511,empathy_intonation_perc,2024.1.4,Win32,60.0240096,,,,,,,,,,,,,,25,vigor,,,,,,234.697,235.797,0,1,0.568,,0,143,143,24,1,two_way_cognate,1,REAL,FALSA
,,,,,,,,,659595b3c61f611de029a25b,001,2024-06-30_04h13.13.511,empathy_intonation_perc,2024.1.4,Win32,60.0240096,,,,,,,,,,,,,,29,clamor,,,,,,235.798,236.863,0,1,0.535,,0,144,144,28,1,two_way_cognate,1,REAL,FALSA
,,,,,,,,,659595b3c61f611de029a25b,001,2024-06-30_04h13.13.511,empathy_intonation_perc,2024.1.4,Win32,60.0240096,,,,,,,,,,,,,,121,barbs,,,,,,236.864,237.926,0,1,0.522,,0,145,145,120,1,pseudoword,0,REAL,FALSA
,,,,,,,,,659595b3c61f611de029a25b,001,2024-06-30_04h13.13.511,empathy_intonation_perc,2024.1.4,Win32,60.0240096,,,,,,,,,,,,,,90,venado,,,,,,237.929,238.924,0,1,0.463,,0,146,146,89,1,non_cognate,1,REAL,FALSA
,,,,,,,,,659595b3c61f611de029a25b,001,2024-06-30_04h13.13.511,empathy_intonation_perc,2024.1.4,Win32,60.0240096,,,,,,,,,,,,,,53,punta,,,,,,238.925,239.976,0,1,0.515,,0,147,147,52,1,non_cognate,1,REAL,FALSA
,,,,,,,,,659595b3c61f611de029a25b,001,2024-06-30_04h13.13.511,empathy_intonation_perc,2024.1.4,Win32,60.0240096,,,,,,,,,,,,,,175,tradía,,,,,,239.978,241.14,0,1,0.623,,0,148,148,174,1,pseudoword,0,REAL,FALSA
,,,,,,,,,659595b3c61f611de029a25b,001,2024-06-30_04h13.13.511,empathy_intonation_perc,2024.1.4,Win32,60.0240096,,,,,,,,,,,,,,93,tapa,,,,,,241.141,242.291,0,1,0.613,,0,149,149,92,1,non_cognate,1,REAL,FALSA
,,,,,,,,,659595b3c61f611de029a25b,001,2024-06-30_04h13.13.511,empathy_intonation_perc,2024.1.4,Win32,60.0240096,,,,,,,,,,,,,,105,leniz,,,,,,242.295,243.307,0,1,0.477,,0,150,150,104,1,pseudoword,0,REAL,FALSA
,,,,,,,,,659595b3c61f611de029a25b,001,2024-06-30_04h13.13.511,empathy_intonation_perc,2024.1.4,Win32,60.0240096,,,,,,,,,,,,,,165,chote,,,,,,243.308,244.522,0,1,0.691,,0,151,151,164,1,pseudoword,0,REAL,FALSA
,,,,,,,,,659595b3c61f611de029a25b,001,2024-06-30_04h13.13.511,empathy_intonation_perc,2024.1.4,Win32,60.0240096,,,,,,,,,,,,,,168,cobén,,,,,,244.522,245.639,0,1,0.58,,0,152,152,167,1,pseudoword,0,REAL,FALSA
,,,,,,,,,659595b3c61f611de029a25b,001,2024-06-30_04h13.13.511,empathy_intonation_perc,2024.1.4,Win32,60.0240096,,,,,,,,,,,,,,62,pegar,,,,,,245.642,246.954,0,1,0.774,,0,153,153,61,1,non_cognate,1,REAL,FALSA
,,,,,,,,,659595b3c61f611de029a25b,001,2024-06-30_04h13.13.511,empathy_intonation_perc,2024.1.4,Win32,60.0240096,,,,,,,,,,,,,,42,rumor,,,,,,246.955,247.954,0,1,0.463,,0,154,154,41,1,two_way_cognate,1,REAL,FALSA
,,,,,,,,,659595b3c61f611de029a25b,001,2024-06-30_04h13.13.511,empathy_intonation_perc,2024.1.4,Win32,60.0240096,,,,,,,,,,,,,,137,trugo,,,,,,247.955,249.038,0,1,0.545,,0,155,155,136,1,pseudoword,0,REAL,FALSA
,,,,,,,,,659595b3c61f611de029a25b,001,2024-06-30_04h13.13.511,empathy_intonation_perc,2024.1.4,Win32,60.0240096,,,,,,,,,,,,,,91,equipo,,,,,,249.038,250.286,0,1,0.716,,0,156,156,90,1,non_cognate,1,REAL,FALSA
,,,,,,,,,659595b3c61f611de029a25b,001,2024-06-30_04h13.13.511,empathy_intonation_perc,2024.1.4,Win32,60.0240096,,,,,,,,,,,,,,182,desaro,,,,,,250.286,251.388,0,1,0.584,,0,157,157,181,1,pseudoword,0,REAL,FALSA
,,,,,,,,,659595b3c61f611de029a25b,001,2024-06-30_04h13.13.511,empathy_intonation_perc,2024.1.4,Win32,60.0240096,,,,,,,,,,,,,,56,pico,,,,,,251.389,252.454,0,1,0.527,,0,158,158,55,1,non_cognate,1,REAL,FALSA
,,,,,,,,,659595b3c61f611de029a25b,001,2024-06-30_04h13.13.511,empathy_intonation_perc,2024.1.4,Win32,60.0240096,,,,,,,,,,,,,,156,ozoso,,,,,,252.457,253.518,0,1,0.531,,0,159,159,155,1,pseudoword,0,REAL,FALSA
,,,,,,,,,659595b3c61f611de029a25b,001,2024-06-30_04h13.13.511,empathy_intonation_perc,2024.1.4,Win32,60.0240096,,,,,,,,,,,,,,191,frasis,,,,,,253.519,254.568,0,1,0.529,,0,160,160,190,1,pseudoword,0,REAL,FALSA
,,,,,,,,,659595b3c61f611de029a25b,001,2024-06-30_04h13.13.511,empathy_intonation_perc,2024.1.4,Win32,60.0240096,,,,,,,,,,,,,,140,chorde,,,,,,254.568,255.654,0,1,0.553,,0,161,161,139,1,pseudoword,0,REAL,FALSA
,,,,,,,,,659595b3c61f611de029a25b,001,2024-06-30_04h13.13.511,empathy_intonation_perc,2024.1.4,Win32,60.0240096,,,,,,,,,,,,,,154,harvé,,,,,,255.655,256.95,0,1,0.764,,0,162,162,153,1,pseudoword,0,REAL,FALSA
,,,,,,,,,659595b3c61f611de029a25b,001,2024-06-30_04h13.13.511,empathy_intonation_perc,2024.1.4,Win32,60.0240096,,,,,,,,,,,,,,10,drama,,,,,,256.95,258.268,1,0,0.797,,0,163,163,9,1,three_way_cognate,1,REAL,FALSA
,,,,,,,,,659595b3c61f611de029a25b,001,2024-06-30_04h13.13.511,empathy_intonation_perc,2024.1.4,Win32,60.0240096,,,,,,,,,,,,,,88,percha,,,,,,258.27,259.534,0,1,0.733,,0,164,164,87,1,non_cognate,1,REAL,FALSA
,,,,,,,,,659595b3c61f611de029a25b,001,2024-06-30_04h13.13.511,empathy_intonation_perc,2024.1.4,Win32,60.0240096,,,,,,,,,,,,,,148,gino,,,,,,259.537,260.818,0,1,0.744,,0,165,165,147,1,pseudoword,0,REAL,FALSA
,,,,,,,,,659595b3c61f611de029a25b,001,2024-06-30_04h13.13.511,empathy_intonation_perc,2024.1.4,Win32,60.0240096,,,,,,,,,,,,,,118,bará,,,,,,260.819,261.864,0,1,0.514,,0,166,166,117,1,pseudoword,0,REAL,FALSA
,,,,,,,,,659595b3c61f611de029a25b,001,2024-06-30_04h13.13.511,empathy_intonation_perc,2024.1.4,Win32,60.0240096,,,,,,,,,,,,,,44,editor,,,,,,261.867,263.101,1,0,0.694,,0,167,167,43,1,two_way_cognate,1,REAL,FALSA
,,,,,,,,,659595b3c61f611de029a25b,001,2024-06-30_04h13.13.511,empathy_intonation_perc,2024.1.4,Win32,60.0240096,,,,,,,,,,,,,,173,mibro,,,,,,263.102,264.913,0,1,1.268,,0,168,168,172,1,pseudoword,0,REAL,FALSA
,,,,,,,,,659595b3c61f611de029a25b,001,2024-06-30_04h13.13.511,empathy_intonation_perc,2024.1.4,Win32,60.0240096,,,,,,,,,,,,,,101,losco,,,,,,264.914,266.779,0,1,1.328,,0,169,169,100,1,pseudoword,0,REAL,FALSA
,,,,,,,,,659595b3c61f611de029a25b,001,2024-06-30_04h13.13.511,empathy_intonation_perc,2024.1.4,Win32,60.0240096,,,,,,,,,,,,,,52,blando,,,,,,266.779,267.862,0,1,0.529,,0,170,170,51,1,non_cognate,1,REAL,FALSA
,,,,,,,,,659595b3c61f611de029a25b,001,2024-06-30_04h13.13.511,empathy_intonation_perc,2024.1.4,Win32,60.0240096,,,,,,,,,,,,,,171,gotro,,,,,,267.865,268.977,0,1,0.583,,0,171,171,170,1,pseudoword,0,REAL,FALSA
,,,,,,,,,659595b3c61f611de029a25b,001,2024-06-30_04h13.13.511,empathy_intonation_perc,2024.1.4,Win32,60.0240096,,,,,,,,,,,,,,99,bugor,,,,,,268.978,270.114,0,1,0.605,,0,172,172,98,1,pseudoword,0,REAL,FALSA
,,,,,,,,,659595b3c61f611de029a25b,001,2024-06-30_04h13.13.511,empathy_intonation_perc,2024.1.4,Win32,60.0240096,,,,,,,,,,,,,,181,gravés,,,,,,270.115,271.227,0,1,0.576,,0,173,173,180,1,pseudoword,0,REAL,FALSA
,,,,,,,,,659595b3c61f611de029a25b,001,2024-06-30_04h13.13.511,empathy_intonation_perc,2024.1.4,Win32,60.0240096,,,,,,,,,,,,,,145,rúo,,,,,,271.227,272.313,0,1,0.561,,0,174,174,144,1,pseudoword,0,REAL,FALSA
,,,,,,,,,659595b3c61f611de029a25b,001,2024-06-30_04h13.13.511,empathy_intonation_perc,2024.1.4,Win32,60.0240096,,,,,,,,,,,,,,64,rizado,,,,,,272.315,273.447,0,1,0.597,,0,175,175,63,1,non_cognate,1,REAL,FALSA
,,,,,,,,,659595b3c61f611de029a25b,001,2024-06-30_04h13.13.511,empathy_intonation_perc,2024.1.4,Win32,60.0240096,,,,,,,,,,,,,,144,diroco,,,,,,273.448,274.509,0,1,0.532,,0,176,176,143,1,pseudoword,0,REAL,FALSA
,,,,,,,,,659595b3c61f611de029a25b,001,2024-06-30_04h13.13.511,empathy_intonation_perc,2024.1.4,Win32,60.0240096,,,,,,,,,,,,,,24,retina,,,,,,274.509,275.575,0,1,0.529,,0,177,177,23,1,three_way_cognate,1,REAL,FALSA
,,,,,,,,,659595b3c61f611de029a25b,001,2024-06-30_04h13.13.511,empathy_intonation_perc,2024.1.4,Win32,60.0240096,,,,,,,,,,,,,,131,fuar,,,,,,275.577,276.857,0,1,0.749,,0,178,178,130,1,pseudoword,0,REAL,FALSA
,,,,,,,,,659595b3c61f611de029a25b,001,2024-06-30_04h13.13.511,empathy_intonation_perc,2024.1.4,Win32,60.0240096,,,,,,,,,,,,,,39,casual,,,,,,276.857,278.092,1,0,0.714,,0,179,179,38,1,two_way_cognate,1,REAL,FALSA
,,,,,,,,,659595b3c61f611de029a25b,001,2024-06-30_04h13.13.511,empathy_intonation_perc,2024.1.4,Win32,60.0240096,,,,,,,,,,,,,,102,coyo,,,,,,278.093,279.325,0,1,0.698,,0,180,180,101,1,pseudoword,0,REAL,FALSA
,,,,,,,,,659595b3c61f611de029a25b,001,2024-06-30_04h13.13.511,empathy_intonation_perc,2024.1.4,Win32,60.0240096,,,,,,,,,,,,,,160,fomeó,,,,,,279.326,280.356,1,0,0.486,,0,181,181,159,1,pseudoword,0,REAL,FALSA
,,,,,,,,,659595b3c61f611de029a25b,001,2024-06-30_04h13.13.511,empathy_intonation_perc,2024.1.4,Win32,60.0240096,,,,,,,,,,,,,,11,golf,,,,,,280.356,281.539,1,0,0.657,,0,182,182,10,1,three_way_cognate,1,REAL,FALSA
,,,,,,,,,659595b3c61f611de029a25b,001,2024-06-30_04h13.13.511,empathy_intonation_perc,2024.1.4,Win32,60.0240096,,,,,,,,,,,,,,31,civil,,,,,,281.54,283.121,1,0,1.036,,0,183,183,30,1,two_way_cognate,1,REAL,FALSA
,,,,,,,,,659595b3c61f611de029a25b,001,2024-06-30_04h13.13.511,empathy_intonation_perc,2024.1.4,Win32,60.0240096,,,,,,,,,,,,,,59,feo,,,,,,283.122,284.289,0,1,0.634,,0,184,184,58,1,non_cognate,1,REAL,FALSA
,,,,,,,,,659595b3c61f611de029a25b,001,2024-06-30_04h13.13.511,empathy_intonation_perc,2024.1.4,Win32,60.0240096,,,,,,,,,,,,,,55,maldad,,,,,,284.292,285.47,1,0,0.646,,0,185,185,54,1,non_cognate,1,REAL,FALSA
,,,,,,,,,659595b3c61f611de029a25b,001,2024-06-30_04h13.13.511,empathy_intonation_perc,2024.1.4,Win32,60.0240096,,,,,,,,,,,,,,51,listo,,,,,,285.47,288.276,0,1,2.288,,0,186,186,50,1,non_cognate,1,REAL,FALSA
,,,,,,,,,659595b3c61f611de029a25b,001,2024-06-30_04h13.13.511,empathy_intonation_perc,2024.1.4,Win32,60.0240096,,,,,,,,,,,,,,138,tator,,,,,,288.277,289.521,0,1,0.704,,0,187,187,137,1,pseudoword,0,REAL,FALSA
,,,,,,,,,659595b3c61f611de029a25b,001,2024-06-30_04h13.13.511,empathy_intonation_perc,2024.1.4,Win32,60.0240096,,,,,,,,,,,,,,74,ala,,,,,,289.522,290.67,0,1,0.617,,0,188,188,73,1,non_cognate,1,REAL,FALSA
,,,,,,,,,659595b3c61f611de029a25b,001,2024-06-30_04h13.13.511,empathy_intonation_perc,2024.1.4,Win32,60.0240096,,,,,,,,,,,,,,135,panté,,,,,,290.673,291.817,0,1,0.616,,0,189,189,134,1,pseudoword,0,REAL,FALSA
,,,,,,,,,659595b3c61f611de029a25b,001,2024-06-30_04h13.13.511,empathy_intonation_perc,2024.1.4,Win32,60.0240096,,,,,,,,,,,,,,169,pitis,,,,,,291.818,294.066,0,1,1.727,,0,190,190,168,1,pseudoword,0,REAL,FALSA
,,,,,,,,,659595b3c61f611de029a25b,001,2024-06-30_04h13.13.511,empathy_intonation_perc,2024.1.4,Win32,60.0240096,,,,,,,,,,,,,,85,enorme,,,,,,294.067,295.232,0,1,0.647,,0,191,191,84,1,non_cognate,1,REAL,FALSA
