lextale_instructions.started,lextale_instructions.stopped,lextale_instructions_loop.thisRepN,lextale_instructions_loop.thisTrialN,lextale_instructions_loop.thisN,lextale_instructions_loop.thisIndex,lextale_instructions_loop.ran,instructions_text,continue_text,participant,session,date,expName,psychopyVersion,OS,frameRate,lextale_practice.started,lextale_practice.stopped,key_resp_lextale_practice.keys,key_resp_lextale_practice.corr,key_resp_lextale_practice.rt,key_resp_lextale_practice.duration,lextale_practice_feedback.started,lextale_practice_feedback.stopped,lextale_practice_trials.thisRepN,lextale_practice_trials.thisTrialN,lextale_practice_trials.thisN,lextale_practice_trials.thisIndex,lextale_practice_trials.ran,stim,word,correct_response,prac_button_real,prac_button_false,lextale_check.started,lextale_check.stopped,lextale_trial.started,lextale_trial.stopped,key_resp_lextale_trial.keys,key_resp_lextale_trial.corr,key_resp_lextale_trial.rt,key_resp_lextale_trial.duration,lextail_trials.thisRepN,lextail_trials.thisTrialN,lextail_trials.thisN,lextail_trials.thisIndex,lextail_trials.ran,type,correct_reponse,button_real,button_false
0.0034,7.1469,0,0,0,0,1,"Este es un test de vocabulario en español. 
  
  A continuación vas a ver 90 secuencias de letras que parecen 'españolas'.
  
  Solo algunas de ellas son palabras de verdad.",(presiona la barra espaciadora para continuar),664439645a9a29be43d5bf5a,001,2024-06-30_05h27.53.543,empathy_intonation_perc,2024.1.4,Win32,60.24096386,,,,,,,,,,,,,,,,,,,,,,,,,,,,,,,,,,,
7.1472,11.9185,0,1,1,1,1,"Por favor, señala las palabras que tú conoces (aquellas que estás convencido que son palabras españolas, incluso aunque no seas capaz de dar el significado preciso).",(presiona la barra espaciadora para continuar),664439645a9a29be43d5bf5a,001,2024-06-30_05h27.53.543,empathy_intonation_perc,2024.1.4,Win32,60.24096386,,,,,,,,,,,,,,,,,,,,,,,,,,,,,,,,,,,
11.9187,16.1057,0,2,2,2,1,Pero cuidado: los errores se penalizan. Por eso no tiene sentido tratar de incrementar tu puntuación marcando como reales palabras que nunca has visto.,(presiona la barra espaciadora para continuar),664439645a9a29be43d5bf5a,001,2024-06-30_05h27.53.543,empathy_intonation_perc,2024.1.4,Win32,60.24096386,,,,,,,,,,,,,,,,,,,,,,,,,,,,,,,,,,,
16.1059,19.9428,0,3,3,3,1,"Presiona la tecla 1 si piensas que es una palabra real y la tecla 
  0 si piensas que es una palabra falsa. 
  
  Vamos a practicar un poco...",(presiona la barra espaciadora para continuar),664439645a9a29be43d5bf5a,001,2024-06-30_05h27.53.543,empathy_intonation_perc,2024.1.4,Win32,60.24096386,,,,,,,,,,,,,,,,,,,,,,,,,,,,,,,,,,,
,,,,,,,,,664439645a9a29be43d5bf5a,001,2024-06-30_05h27.53.543,empathy_intonation_perc,2024.1.4,Win32,60.24096386,19.9447,30.5034,1,0,10.0357,,30.5035,31.5044,0,0,0,0,1,0,depiste,0,REAL,FALSA,,,,,,,,,,,,,,,,,
,,,,,,,,,664439645a9a29be43d5bf5a,001,2024-06-30_05h27.53.543,empathy_intonation_perc,2024.1.4,Win32,60.24096386,31.5049,33.8564,1,1,1.8265,,33.8565,34.8575,0,1,1,1,1,0,sí,1,REAL,FALSA,,,,,,,,,,,,,,,,,
,,,,,,,,,664439645a9a29be43d5bf5a,001,2024-06-30_05h27.53.543,empathy_intonation_perc,2024.1.4,Win32,60.24096386,34.8577,41.3807,0,1,6.0046,,41.3808,42.3818,0,2,2,2,1,0,coné,0,REAL,FALSA,,,,,,,,,,,,,,,,,
,,,,,,,,,664439645a9a29be43d5bf5a,001,2024-06-30_05h27.53.543,empathy_intonation_perc,2024.1.4,Win32,60.24096386,42.3821,44.6007,1,0,1.7094,,44.6007,45.6018,0,3,3,3,1,0,calpar,0,REAL,FALSA,,,,,,,,,,,,,,,,,
,,,,,,,,,664439645a9a29be43d5bf5a,001,2024-06-30_05h27.53.543,empathy_intonation_perc,2024.1.4,Win32,60.24096386,45.6084,48.1877,0,1,2.0498,,48.1877,49.1885,0,4,4,4,1,0,joten,0,REAL,FALSA,,,,,,,,,,,,,,,,,
,,,,,,,,,664439645a9a29be43d5bf5a,001,2024-06-30_05h27.53.543,empathy_intonation_perc,2024.1.4,Win32,60.24096386,49.1954,52.9757,1,1,3.263,,52.9757,53.9767,0,5,5,5,1,0,sacapuntas,1,REAL,FALSA,,,,,,,,,,,,,,,,,
,,,,,,,,,664439645a9a29be43d5bf5a,001,2024-06-30_05h27.53.543,empathy_intonation_perc,2024.1.4,Win32,60.24096386,53.9832,55.9119,0,1,1.4099,,55.912,56.9129,0,6,6,6,1,0,priba,0,REAL,FALSA,,,,,,,,,,,,,,,,,
,,,,,,,,,664439645a9a29be43d5bf5a,001,2024-06-30_05h27.53.543,empathy_intonation_perc,2024.1.4,Win32,60.24096386,56.9132,59.6989,1,0,2.2744,,59.699,60.7002,0,7,7,7,1,0,pelasula,0,REAL,FALSA,,,,,,,,,,,,,,,,,
,,,,,,,,,664439645a9a29be43d5bf5a,001,2024-06-30_05h27.53.543,empathy_intonation_perc,2024.1.4,Win32,60.24096386,60.7069,62.5685,1,1,1.3441,,62.5685,63.5697,0,8,8,8,1,0,bien,1,REAL,FALSA,,,,,,,,,,,,,,,,,
,,,,,,,,,664439645a9a29be43d5bf5a,001,2024-06-30_05h27.53.543,empathy_intonation_perc,2024.1.4,Win32,60.24096386,63.5768,64.9709,1,1,0.8748,,64.971,65.9721,0,9,9,9,1,0,casa,1,REAL,FALSA,,,,,,,,,,,,,,,,,
,,,,,,,,,664439645a9a29be43d5bf5a,001,2024-06-30_05h27.53.543,empathy_intonation_perc,2024.1.4,Win32,60.24096386,65.9724,67.9074,0,1,1.4079,,67.9074,68.9081,0,10,10,10,1,0,lejo,0,REAL,FALSA,,,,,,,,,,,,,,,,,
,,,,,,,,,664439645a9a29be43d5bf5a,001,2024-06-30_05h27.53.543,empathy_intonation_perc,2024.1.4,Win32,60.24096386,68.9082,71.1439,0,1,1.7199,,71.1439,72.1448,0,11,11,11,1,0,pretantas,0,REAL,FALSA,,,,,,,,,,,,,,,,,
,,,,,,,,,664439645a9a29be43d5bf5a,001,2024-06-30_05h27.53.543,empathy_intonation_perc,2024.1.4,Win32,60.24096386,,,,,,,,,,,,,,,,,,,72.1451,75.5821,,,,,,,,,,,,,,,
,,,,,,,,,664439645a9a29be43d5bf5a,001,2024-06-30_05h27.53.543,empathy_intonation_perc,2024.1.4,Win32,60.24096386,,,,,,,,,,,,,,86,cuenco,,,,,,75.5944,78.2511,0,1,2.1425,,0,0,0,85,1,non_cognate,1,REAL,FALSA
,,,,,,,,,664439645a9a29be43d5bf5a,001,2024-06-30_05h27.53.543,empathy_intonation_perc,2024.1.4,Win32,60.24096386,,,,,,,,,,,,,,159,trcia,,,,,,78.2515,80.9704,0,1,2.1839,,0,1,1,158,1,pseudoword,0,REAL,FALSA
,,,,,,,,,664439645a9a29be43d5bf5a,001,2024-06-30_05h27.53.543,empathy_intonation_perc,2024.1.4,Win32,60.24096386,,,,,,,,,,,,,,142,parre,,,,,,80.9707,85.9419,1,0,4.4539,,0,2,2,141,1,pseudoword,0,REAL,FALSA
,,,,,,,,,664439645a9a29be43d5bf5a,001,2024-06-30_05h27.53.543,empathy_intonation_perc,2024.1.4,Win32,60.24096386,,,,,,,,,,,,,,173,mibro,,,,,,85.9486,87.6771,0,1,1.2054,,0,3,3,172,1,pseudoword,0,REAL,FALSA
,,,,,,,,,664439645a9a29be43d5bf5a,001,2024-06-30_05h27.53.543,empathy_intonation_perc,2024.1.4,Win32,60.24096386,,,,,,,,,,,,,,60,siglo,,,,,,87.6772,89.8791,0,1,1.6953,,0,4,4,59,1,non_cognate,1,REAL,FALSA
,,,,,,,,,664439645a9a29be43d5bf5a,001,2024-06-30_05h27.53.543,empathy_intonation_perc,2024.1.4,Win32,60.24096386,,,,,,,,,,,,,,24,retina,,,,,,89.8793,92.0815,1,0,1.6927,,0,5,5,23,1,three_way_cognate,1,REAL,FALSA
,,,,,,,,,664439645a9a29be43d5bf5a,001,2024-06-30_05h27.53.543,empathy_intonation_perc,2024.1.4,Win32,60.24096386,,,,,,,,,,,,,,45,total,,,,,,92.0817,94.834,0,1,2.2425,,0,6,6,44,1,two_way_cognate,1,REAL,FALSA
,,,,,,,,,664439645a9a29be43d5bf5a,001,2024-06-30_05h27.53.543,empathy_intonation_perc,2024.1.4,Win32,60.24096386,,,,,,,,,,,,,,50,sierra,,,,,,94.8342,96.736,1,0,1.3861,,0,7,7,49,1,non_cognate,1,REAL,FALSA
,,,,,,,,,664439645a9a29be43d5bf5a,001,2024-06-30_05h27.53.543,empathy_intonation_perc,2024.1.4,Win32,60.24096386,,,,,,,,,,,,,,126,tobre,,,,,,96.7362,98.3543,1,0,1.1082,,0,8,8,125,1,pseudoword,0,REAL,FALSA
,,,,,,,,,664439645a9a29be43d5bf5a,001,2024-06-30_05h27.53.543,empathy_intonation_perc,2024.1.4,Win32,60.24096386,,,,,,,,,,,,,,68,puñal,,,,,,98.3545,100.1727,0,1,1.3037,,0,9,9,67,1,non_cognate,1,REAL,FALSA
,,,,,,,,,664439645a9a29be43d5bf5a,001,2024-06-30_05h27.53.543,empathy_intonation_perc,2024.1.4,Win32,60.24096386,,,,,,,,,,,,,,77,suave,,,,,,100.1729,101.6243,1,0,0.9431,,0,10,10,76,1,non_cognate,1,REAL,FALSA
,,,,,,,,,664439645a9a29be43d5bf5a,001,2024-06-30_05h27.53.543,empathy_intonation_perc,2024.1.4,Win32,60.24096386,,,,,,,,,,,,,,2,tumor,,,,,,101.6244,103.6931,1,0,1.5497,,0,11,11,1,1,three_way_cognate,1,REAL,FALSA
,,,,,,,,,664439645a9a29be43d5bf5a,001,2024-06-30_05h27.53.543,empathy_intonation_perc,2024.1.4,Win32,60.24096386,,,,,,,,,,,,,,150,cricó,,,,,,103.6933,105.5282,0,1,1.3266,,0,12,12,149,1,pseudoword,0,REAL,FALSA
,,,,,,,,,664439645a9a29be43d5bf5a,001,2024-06-30_05h27.53.543,empathy_intonation_perc,2024.1.4,Win32,60.24096386,,,,,,,,,,,,,,46,mortal,,,,,,105.5285,107.2464,1,0,1.2121,,0,13,13,45,1,two_way_cognate,1,REAL,FALSA
,,,,,,,,,664439645a9a29be43d5bf5a,001,2024-06-30_05h27.53.543,empathy_intonation_perc,2024.1.4,Win32,60.24096386,,,,,,,,,,,,,,192,próces,,,,,,107.2466,108.9649,1,0,1.2054,,0,14,14,191,1,pseudoword,0,REAL,FALSA
,,,,,,,,,664439645a9a29be43d5bf5a,001,2024-06-30_05h27.53.543,empathy_intonation_perc,2024.1.4,Win32,60.24096386,,,,,,,,,,,,,,188,amplir,,,,,,108.9651,110.9001,1,0,1.4188,,0,15,15,187,1,pseudoword,0,REAL,FALSA
,,,,,,,,,664439645a9a29be43d5bf5a,001,2024-06-30_05h27.53.543,empathy_intonation_perc,2024.1.4,Win32,60.24096386,,,,,,,,,,,,,,28,ardor,,,,,,110.9002,112.5684,1,0,1.1516,,0,16,16,27,1,two_way_cognate,1,REAL,FALSA
,,,,,,,,,664439645a9a29be43d5bf5a,001,2024-06-30_05h27.53.543,empathy_intonation_perc,2024.1.4,Win32,60.24096386,,,,,,,,,,,,,,186,rizate,,,,,,112.5686,114.0366,0,1,0.9494,,0,17,17,185,1,pseudoword,0,REAL,FALSA
,,,,,,,,,664439645a9a29be43d5bf5a,001,2024-06-30_05h27.53.543,empathy_intonation_perc,2024.1.4,Win32,60.24096386,,,,,,,,,,,,,,44,editor,,,,,,114.0369,116.8393,1,0,2.2953,,0,18,18,43,1,two_way_cognate,1,REAL,FALSA
,,,,,,,,,664439645a9a29be43d5bf5a,001,2024-06-30_05h27.53.543,empathy_intonation_perc,2024.1.4,Win32,60.24096386,,,,,,,,,,,,,,53,punta,,,,,,116.8395,118.6077,1,0,1.2602,,0,19,19,52,1,non_cognate,1,REAL,FALSA
,,,,,,,,,664439645a9a29be43d5bf5a,001,2024-06-30_05h27.53.543,empathy_intonation_perc,2024.1.4,Win32,60.24096386,,,,,,,,,,,,,,144,diroco,,,,,,118.6079,119.9759,0,1,0.8605,,0,20,20,143,1,pseudoword,0,REAL,FALSA
,,,,,,,,,664439645a9a29be43d5bf5a,001,2024-06-30_05h27.53.543,empathy_intonation_perc,2024.1.4,Win32,60.24096386,,,,,,,,,,,,,,26,enigma,,,,,,119.9761,121.9946,0,1,1.4995,,0,21,21,25,1,two_way_cognate,1,REAL,FALSA
,,,,,,,,,664439645a9a29be43d5bf5a,001,2024-06-30_05h27.53.543,empathy_intonation_perc,2024.1.4,Win32,60.24096386,,,,,,,,,,,,,,141,virios,,,,,,121.9949,124.1133,0,1,1.6093,,0,22,22,140,1,pseudoword,0,REAL,FALSA
,,,,,,,,,664439645a9a29be43d5bf5a,001,2024-06-30_05h27.53.543,empathy_intonation_perc,2024.1.4,Win32,60.24096386,,,,,,,,,,,,,,181,gravés,,,,,,124.1136,125.5647,1,0,0.9328,,0,23,23,180,1,pseudoword,0,REAL,FALSA
,,,,,,,,,664439645a9a29be43d5bf5a,001,2024-06-30_05h27.53.543,empathy_intonation_perc,2024.1.4,Win32,60.24096386,,,,,,,,,,,,,,57,regalo,,,,,,125.5651,126.9496,1,0,0.8663,,0,24,24,56,1,non_cognate,1,REAL,FALSA
,,,,,,,,,664439645a9a29be43d5bf5a,001,2024-06-30_05h27.53.543,empathy_intonation_perc,2024.1.4,Win32,60.24096386,,,,,,,,,,,,,,179,suelet,,,,,,126.9498,128.6514,0,1,1.183,,0,25,25,178,1,pseudoword,0,REAL,FALSA
,,,,,,,,,664439645a9a29be43d5bf5a,001,2024-06-30_05h27.53.543,empathy_intonation_perc,2024.1.4,Win32,60.24096386,,,,,,,,,,,,,,160,fomeó,,,,,,128.6515,130.5863,0,1,1.4239,,0,26,26,159,1,pseudoword,0,REAL,FALSA
,,,,,,,,,664439645a9a29be43d5bf5a,001,2024-06-30_05h27.53.543,empathy_intonation_perc,2024.1.4,Win32,60.24096386,,,,,,,,,,,,,,74,ala,,,,,,130.5867,131.9878,1,0,0.8889,,0,27,27,73,1,non_cognate,1,REAL,FALSA
,,,,,,,,,664439645a9a29be43d5bf5a,001,2024-06-30_05h27.53.543,empathy_intonation_perc,2024.1.4,Win32,60.24096386,,,,,,,,,,,,,,90,venado,,,,,,131.9881,133.673,1,0,1.1758,,0,28,28,89,1,non_cognate,1,REAL,FALSA
,,,,,,,,,664439645a9a29be43d5bf5a,001,2024-06-30_05h27.53.543,empathy_intonation_perc,2024.1.4,Win32,60.24096386,,,,,,,,,,,,,,145,rúo,,,,,,133.6732,134.9909,0,1,0.8,,0,29,29,144,1,pseudoword,0,REAL,FALSA
,,,,,,,,,664439645a9a29be43d5bf5a,001,2024-06-30_05h27.53.543,empathy_intonation_perc,2024.1.4,Win32,60.24096386,,,,,,,,,,,,,,167,dobbo,,,,,,134.9911,136.5256,0,1,1.017,,0,30,30,166,1,pseudoword,0,REAL,FALSA
,,,,,,,,,664439645a9a29be43d5bf5a,001,2024-06-30_05h27.53.543,empathy_intonation_perc,2024.1.4,Win32,60.24096386,,,,,,,,,,,,,,177,entodo,,,,,,136.5258,138.3108,1,0,1.2709,,0,31,31,176,1,pseudoword,0,REAL,FALSA
,,,,,,,,,664439645a9a29be43d5bf5a,001,2024-06-30_05h27.53.543,empathy_intonation_perc,2024.1.4,Win32,60.24096386,,,,,,,,,,,,,,147,alla,,,,,,138.3111,140.7298,1,0,1.9089,,0,32,32,146,1,pseudoword,0,REAL,FALSA
,,,,,,,,,664439645a9a29be43d5bf5a,001,2024-06-30_05h27.53.543,empathy_intonation_perc,2024.1.4,Win32,60.24096386,,,,,,,,,,,,,,130,dubo,,,,,,140.73,142.098,0,1,0.8579,,0,33,33,129,1,pseudoword,0,REAL,FALSA
,,,,,,,,,664439645a9a29be43d5bf5a,001,2024-06-30_05h27.53.543,empathy_intonation_perc,2024.1.4,Win32,60.24096386,,,,,,,,,,,,,,71,torta,,,,,,142.0983,143.4159,1,0,0.8024,,0,34,34,70,1,non_cognate,1,REAL,FALSA
,,,,,,,,,664439645a9a29be43d5bf5a,001,2024-06-30_05h27.53.543,empathy_intonation_perc,2024.1.4,Win32,60.24096386,,,,,,,,,,,,,,10,drama,,,,,,143.416,145.4013,1,0,1.4766,,0,35,35,9,1,three_way_cognate,1,REAL,FALSA
,,,,,,,,,664439645a9a29be43d5bf5a,001,2024-06-30_05h27.53.543,empathy_intonation_perc,2024.1.4,Win32,60.24096386,,,,,,,,,,,,,,79,suelo,,,,,,145.4015,147.8537,1,0,1.9385,,0,36,36,78,1,non_cognate,1,REAL,FALSA
,,,,,,,,,664439645a9a29be43d5bf5a,001,2024-06-30_05h27.53.543,empathy_intonation_perc,2024.1.4,Win32,60.24096386,,,,,,,,,,,,,,156,ozoso,,,,,,147.854,149.4383,0,1,1.078,,0,37,37,155,1,pseudoword,0,REAL,FALSA
,,,,,,,,,664439645a9a29be43d5bf5a,001,2024-06-30_05h27.53.543,empathy_intonation_perc,2024.1.4,Win32,60.24096386,,,,,,,,,,,,,,32,animal,,,,,,149.4385,152.7087,1,0,2.7577,,0,38,38,31,1,two_way_cognate,1,REAL,FALSA
,,,,,,,,,664439645a9a29be43d5bf5a,001,2024-06-30_05h27.53.543,empathy_intonation_perc,2024.1.4,Win32,60.24096386,,,,,,,,,,,,,,131,fuar,,,,,,152.7089,154.1598,0,1,0.9433,,0,39,39,130,1,pseudoword,0,REAL,FALSA
,,,,,,,,,664439645a9a29be43d5bf5a,001,2024-06-30_05h27.53.543,empathy_intonation_perc,2024.1.4,Win32,60.24096386,,,,,,,,,,,,,,125,ceme,,,,,,154.16,155.7783,0,1,1.1006,,0,40,40,124,1,pseudoword,0,REAL,FALSA
,,,,,,,,,664439645a9a29be43d5bf5a,001,2024-06-30_05h27.53.543,empathy_intonation_perc,2024.1.4,Win32,60.24096386,,,,,,,,,,,,,,73,llevar,,,,,,155.7785,157.0629,1,0,0.7774,,0,41,41,72,1,non_cognate,1,REAL,FALSA
,,,,,,,,,664439645a9a29be43d5bf5a,001,2024-06-30_05h27.53.543,empathy_intonation_perc,2024.1.4,Win32,60.24096386,,,,,,,,,,,,,,166,anfia,,,,,,157.0631,158.6144,0,1,1.0453,,0,42,42,165,1,pseudoword,0,REAL,FALSA
,,,,,,,,,664439645a9a29be43d5bf5a,001,2024-06-30_05h27.53.543,empathy_intonation_perc,2024.1.4,Win32,60.24096386,,,,,,,,,,,,,,55,maldad,,,,,,158.6146,160.049,1,0,0.9257,,0,43,43,54,1,non_cognate,1,REAL,FALSA
,,,,,,,,,664439645a9a29be43d5bf5a,001,2024-06-30_05h27.53.543,empathy_intonation_perc,2024.1.4,Win32,60.24096386,,,,,,,,,,,,,,65,guerra,,,,,,160.0492,161.5005,1,0,0.9322,,0,44,44,64,1,non_cognate,1,REAL,FALSA
,,,,,,,,,664439645a9a29be43d5bf5a,001,2024-06-30_05h27.53.543,empathy_intonation_perc,2024.1.4,Win32,60.24096386,,,,,,,,,,,,,,30,fiscal,,,,,,161.5007,163.3859,1,0,1.376,,0,45,45,29,1,two_way_cognate,1,REAL,FALSA
,,,,,,,,,664439645a9a29be43d5bf5a,001,2024-06-30_05h27.53.543,empathy_intonation_perc,2024.1.4,Win32,60.24096386,,,,,,,,,,,,,,16,chat,,,,,,163.3862,165.1041,0,1,1.2015,,0,46,46,15,1,three_way_cognate,1,REAL,FALSA
,,,,,,,,,664439645a9a29be43d5bf5a,001,2024-06-30_05h27.53.543,empathy_intonation_perc,2024.1.4,Win32,60.24096386,,,,,,,,,,,,,,139,sasos,,,,,,165.1042,166.8725,0,1,1.2604,,0,47,47,138,1,pseudoword,0,REAL,FALSA
,,,,,,,,,664439645a9a29be43d5bf5a,001,2024-06-30_05h27.53.543,empathy_intonation_perc,2024.1.4,Win32,60.24096386,,,,,,,,,,,,,,175,tradía,,,,,,166.8728,168.274,1,0,0.8908,,0,48,48,174,1,pseudoword,0,REAL,FALSA
,,,,,,,,,664439645a9a29be43d5bf5a,001,2024-06-30_05h27.53.543,empathy_intonation_perc,2024.1.4,Win32,60.24096386,,,,,,,,,,,,,,143,hurcos,,,,,,168.2743,169.9588,0,1,1.1784,,0,49,49,142,1,pseudoword,0,REAL,FALSA
,,,,,,,,,664439645a9a29be43d5bf5a,001,2024-06-30_05h27.53.543,empathy_intonation_perc,2024.1.4,Win32,60.24096386,,,,,,,,,,,,,,42,rumor,,,,,,169.9592,172.9788,0,1,2.5009,,0,50,50,41,1,two_way_cognate,1,REAL,FALSA
,,,,,,,,,664439645a9a29be43d5bf5a,001,2024-06-30_05h27.53.543,empathy_intonation_perc,2024.1.4,Win32,60.24096386,,,,,,,,,,,,,,129,vinzó,,,,,,172.979,174.4635,0,1,0.9693,,0,51,51,128,1,pseudoword,0,REAL,FALSA
,,,,,,,,,664439645a9a29be43d5bf5a,001,2024-06-30_05h27.53.543,empathy_intonation_perc,2024.1.4,Win32,60.24096386,,,,,,,,,,,,,,124,lobe,,,,,,174.4636,175.9651,0,1,0.983,,0,52,52,123,1,pseudoword,0,REAL,FALSA
,,,,,,,,,664439645a9a29be43d5bf5a,001,2024-06-30_05h27.53.543,empathy_intonation_perc,2024.1.4,Win32,60.24096386,,,,,,,,,,,,,,122,boñaz,,,,,,175.9654,177.8003,0,1,1.3195,,0,53,53,121,1,pseudoword,0,REAL,FALSA
,,,,,,,,,664439645a9a29be43d5bf5a,001,2024-06-30_05h27.53.543,empathy_intonation_perc,2024.1.4,Win32,60.24096386,,,,,,,,,,,,,,11,golf,,,,,,177.8005,179.8689,1,0,1.5496,,0,54,54,10,1,three_way_cognate,1,REAL,FALSA
,,,,,,,,,664439645a9a29be43d5bf5a,001,2024-06-30_05h27.53.543,empathy_intonation_perc,2024.1.4,Win32,60.24096386,,,,,,,,,,,,,,109,laras,,,,,,179.869,181.4372,0,1,1.0552,,0,55,55,108,1,pseudoword,0,REAL,FALSA
,,,,,,,,,664439645a9a29be43d5bf5a,001,2024-06-30_05h27.53.543,empathy_intonation_perc,2024.1.4,Win32,60.24096386,,,,,,,,,,,,,,170,diabo,,,,,,181.4374,183.6894,0,1,1.7433,,0,56,56,169,1,pseudoword,0,REAL,FALSA
,,,,,,,,,664439645a9a29be43d5bf5a,001,2024-06-30_05h27.53.543,empathy_intonation_perc,2024.1.4,Win32,60.24096386,,,,,,,,,,,,,,161,civas,,,,,,183.6897,184.9741,1,0,0.7708,,0,57,57,160,1,pseudoword,0,REAL,FALSA
,,,,,,,,,664439645a9a29be43d5bf5a,001,2024-06-30_05h27.53.543,empathy_intonation_perc,2024.1.4,Win32,60.24096386,,,,,,,,,,,,,,183,edioso,,,,,,184.9744,186.3418,1,0,0.8621,,0,58,58,182,1,pseudoword,0,REAL,FALSA
,,,,,,,,,664439645a9a29be43d5bf5a,001,2024-06-30_05h27.53.543,empathy_intonation_perc,2024.1.4,Win32,60.24096386,,,,,,,,,,,,,,174,pabea,,,,,,186.342,187.71,0,1,0.8499,,0,59,59,173,1,pseudoword,0,REAL,FALSA
,,,,,,,,,664439645a9a29be43d5bf5a,001,2024-06-30_05h27.53.543,empathy_intonation_perc,2024.1.4,Win32,60.24096386,,,,,,,,,,,,,,117,morrá,,,,,,187.7102,189.0279,1,0,0.8053,,0,60,60,116,1,pseudoword,0,REAL,FALSA
,,,,,,,,,664439645a9a29be43d5bf5a,001,2024-06-30_05h27.53.543,empathy_intonation_perc,2024.1.4,Win32,60.24096386,,,,,,,,,,,,,,40,pelvis,,,,,,189.0281,190.4796,1,0,0.9363,,0,61,61,39,1,two_way_cognate,1,REAL,FALSA
,,,,,,,,,664439645a9a29be43d5bf5a,001,2024-06-30_05h27.53.543,empathy_intonation_perc,2024.1.4,Win32,60.24096386,,,,,,,,,,,,,,67,llamar,,,,,,190.4799,191.814,1,0,0.8176,,0,62,62,66,1,non_cognate,1,REAL,FALSA
,,,,,,,,,664439645a9a29be43d5bf5a,001,2024-06-30_05h27.53.543,empathy_intonation_perc,2024.1.4,Win32,60.24096386,,,,,,,,,,,,,,75,patada,,,,,,191.8143,193.3489,1,0,1.0217,,0,63,63,74,1,non_cognate,1,REAL,FALSA
,,,,,,,,,664439645a9a29be43d5bf5a,001,2024-06-30_05h27.53.543,empathy_intonation_perc,2024.1.4,Win32,60.24096386,,,,,,,,,,,,,,18,altar,,,,,,193.349,194.7336,1,0,0.8659,,0,64,64,17,1,three_way_cognate,1,REAL,FALSA
,,,,,,,,,664439645a9a29be43d5bf5a,001,2024-06-30_05h27.53.543,empathy_intonation_perc,2024.1.4,Win32,60.24096386,,,,,,,,,,,,,,23,plural,,,,,,194.7339,196.4019,1,0,1.1521,,0,65,65,22,1,three_way_cognate,1,REAL,FALSA
,,,,,,,,,664439645a9a29be43d5bf5a,001,2024-06-30_05h27.53.543,empathy_intonation_perc,2024.1.4,Win32,60.24096386,,,,,,,,,,,,,,98,martir,,,,,,196.4022,198.3873,0,1,1.4663,,0,66,66,97,1,pseudoword,0,REAL,FALSA
,,,,,,,,,664439645a9a29be43d5bf5a,001,2024-06-30_05h27.53.543,empathy_intonation_perc,2024.1.4,Win32,60.24096386,,,,,,,,,,,,,,66,aleta,,,,,,198.3874,199.9889,0,1,1.0893,,0,67,67,65,1,non_cognate,1,REAL,FALSA
,,,,,,,,,664439645a9a29be43d5bf5a,001,2024-06-30_05h27.53.543,empathy_intonation_perc,2024.1.4,Win32,60.24096386,,,,,,,,,,,,,,15,test,,,,,,199.9892,202.3246,1,0,1.8166,,0,68,68,14,1,three_way_cognate,1,REAL,FALSA
,,,,,,,,,664439645a9a29be43d5bf5a,001,2024-06-30_05h27.53.543,empathy_intonation_perc,2024.1.4,Win32,60.24096386,,,,,,,,,,,,,,116,grigir,,,,,,202.3248,203.7594,0,1,0.9283,,0,69,69,115,1,pseudoword,0,REAL,FALSA
,,,,,,,,,664439645a9a29be43d5bf5a,001,2024-06-30_05h27.53.543,empathy_intonation_perc,2024.1.4,Win32,60.24096386,,,,,,,,,,,,,,164,tecia,,,,,,203.7596,205.1774,1,0,0.9019,,0,70,70,163,1,pseudoword,0,REAL,FALSA
,,,,,,,,,664439645a9a29be43d5bf5a,001,2024-06-30_05h27.53.543,empathy_intonation_perc,2024.1.4,Win32,60.24096386,,,,,,,,,,,,,,121,barbs,,,,,,205.1776,206.8292,1,0,1.1391,,0,71,71,120,1,pseudoword,0,REAL,FALSA
,,,,,,,,,664439645a9a29be43d5bf5a,001,2024-06-30_05h27.53.543,empathy_intonation_perc,2024.1.4,Win32,60.24096386,,,,,,,,,,,,,,29,clamor,,,,,,206.8295,208.3139,1,0,0.9661,,0,72,72,28,1,two_way_cognate,1,REAL,FALSA
,,,,,,,,,664439645a9a29be43d5bf5a,001,2024-06-30_05h27.53.543,empathy_intonation_perc,2024.1.4,Win32,60.24096386,,,,,,,,,,,,,,36,viable,,,,,,208.3141,209.7487,0,1,0.9195,,0,73,73,35,1,two_way_cognate,1,REAL,FALSA
,,,,,,,,,664439645a9a29be43d5bf5a,001,2024-06-30_05h27.53.543,empathy_intonation_perc,2024.1.4,Win32,60.24096386,,,,,,,,,,,,,,34,actor,,,,,,209.7489,211.5838,0,1,1.3274,,0,74,74,33,1,two_way_cognate,1,REAL,FALSA
,,,,,,,,,664439645a9a29be43d5bf5a,001,2024-06-30_05h27.53.543,empathy_intonation_perc,2024.1.4,Win32,60.24096386,,,,,,,,,,,,,,6,horror,,,,,,211.584,213.1355,0,1,1.036,,0,75,75,5,1,three_way_cognate,1,REAL,FALSA
,,,,,,,,,664439645a9a29be43d5bf5a,001,2024-06-30_05h27.53.543,empathy_intonation_perc,2024.1.4,Win32,60.24096386,,,,,,,,,,,,,,70,ánimo,,,,,,213.1357,214.9372,1,0,1.2928,,0,76,76,69,1,non_cognate,1,REAL,FALSA
,,,,,,,,,664439645a9a29be43d5bf5a,001,2024-06-30_05h27.53.543,empathy_intonation_perc,2024.1.4,Win32,60.24096386,,,,,,,,,,,,,,134,molor,,,,,,214.9374,216.3551,1,0,0.8989,,0,77,77,133,1,pseudoword,0,REAL,FALSA
,,,,,,,,,664439645a9a29be43d5bf5a,001,2024-06-30_05h27.53.543,empathy_intonation_perc,2024.1.4,Win32,60.24096386,,,,,,,,,,,,,,171,gotro,,,,,,216.3554,217.6565,0,1,0.7841,,0,78,78,170,1,pseudoword,0,REAL,FALSA
,,,,,,,,,664439645a9a29be43d5bf5a,001,2024-06-30_05h27.53.543,empathy_intonation_perc,2024.1.4,Win32,60.24096386,,,,,,,,,,,,,,33,collar,,,,,,217.6568,219.2414,1,0,1.068,,0,79,79,32,1,two_way_cognate,1,REAL,FALSA
,,,,,,,,,664439645a9a29be43d5bf5a,001,2024-06-30_05h27.53.543,empathy_intonation_perc,2024.1.4,Win32,60.24096386,,,,,,,,,,,,,,180,pupica,,,,,,219.2416,220.6931,1,0,0.9328,,0,80,80,179,1,pseudoword,0,REAL,FALSA
,,,,,,,,,664439645a9a29be43d5bf5a,001,2024-06-30_05h27.53.543,empathy_intonation_perc,2024.1.4,Win32,60.24096386,,,,,,,,,,,,,,191,frasis,,,,,,220.6933,222.1777,1,0,0.9675,,0,81,81,190,1,pseudoword,0,REAL,FALSA
,,,,,,,,,664439645a9a29be43d5bf5a,001,2024-06-30_05h27.53.543,empathy_intonation_perc,2024.1.4,Win32,60.24096386,,,,,,,,,,,,,,123,arane,,,,,,222.1781,223.5624,0,1,0.8663,,0,82,82,122,1,pseudoword,0,REAL,FALSA
,,,,,,,,,664439645a9a29be43d5bf5a,001,2024-06-30_05h27.53.543,empathy_intonation_perc,2024.1.4,Win32,60.24096386,,,,,,,,,,,,,,111,monue,,,,,,223.5626,225.114,1,0,1.032,,0,83,83,110,1,pseudoword,0,REAL,FALSA
,,,,,,,,,664439645a9a29be43d5bf5a,001,2024-06-30_05h27.53.543,empathy_intonation_perc,2024.1.4,Win32,60.24096386,,,,,,,,,,,,,,120,mauja,,,,,,225.1141,226.432,0,1,0.8015,,0,84,84,119,1,pseudoword,0,REAL,FALSA
,,,,,,,,,664439645a9a29be43d5bf5a,001,2024-06-30_05h27.53.543,empathy_intonation_perc,2024.1.4,Win32,60.24096386,,,,,,,,,,,,,,78,rendir,,,,,,226.4322,227.917,1,0,0.9724,,0,85,85,77,1,non_cognate,1,REAL,FALSA
,,,,,,,,,664439645a9a29be43d5bf5a,001,2024-06-30_05h27.53.543,empathy_intonation_perc,2024.1.4,Win32,60.24096386,,,,,,,,,,,,,,14,aura,,,,,,227.9172,229.3016,0,1,0.8669,,0,86,86,13,1,three_way_cognate,1,REAL,FALSA
,,,,,,,,,664439645a9a29be43d5bf5a,001,2024-06-30_05h27.53.543,empathy_intonation_perc,2024.1.4,Win32,60.24096386,,,,,,,,,,,,,,7,albino,,,,,,229.3019,231.4702,0,1,1.6624,,0,87,87,6,1,three_way_cognate,1,REAL,FALSA
,,,,,,,,,664439645a9a29be43d5bf5a,001,2024-06-30_05h27.53.543,empathy_intonation_perc,2024.1.4,Win32,60.24096386,,,,,,,,,,,,,,47,color,,,,,,231.4704,233.1388,0,1,1.158,,0,88,88,46,1,two_way_cognate,1,REAL,FALSA
,,,,,,,,,664439645a9a29be43d5bf5a,001,2024-06-30_05h27.53.543,empathy_intonation_perc,2024.1.4,Win32,60.24096386,,,,,,,,,,,,,,25,vigor,,,,,,233.1389,235.0739,0,1,1.4255,,0,89,89,24,1,two_way_cognate,1,REAL,FALSA
,,,,,,,,,664439645a9a29be43d5bf5a,001,2024-06-30_05h27.53.543,empathy_intonation_perc,2024.1.4,Win32,60.24096386,,,,,,,,,,,,,,135,panté,,,,,,235.0741,236.6089,1,0,1.0259,,0,90,90,134,1,pseudoword,0,REAL,FALSA
,,,,,,,,,664439645a9a29be43d5bf5a,001,2024-06-30_05h27.53.543,empathy_intonation_perc,2024.1.4,Win32,60.24096386,,,,,,,,,,,,,,178,inichó,,,,,,236.6091,237.8934,0,1,0.772,,0,91,91,177,1,pseudoword,0,REAL,FALSA
,,,,,,,,,664439645a9a29be43d5bf5a,001,2024-06-30_05h27.53.543,empathy_intonation_perc,2024.1.4,Win32,60.24096386,,,,,,,,,,,,,,114,dibrea,,,,,,237.8937,239.4285,0,1,1.0154,,0,92,92,113,1,pseudoword,0,REAL,FALSA
,,,,,,,,,664439645a9a29be43d5bf5a,001,2024-06-30_05h27.53.543,empathy_intonation_perc,2024.1.4,Win32,60.24096386,,,,,,,,,,,,,,182,desaro,,,,,,239.4288,240.7798,1,0,0.8325,,0,93,93,181,1,pseudoword,0,REAL,FALSA
,,,,,,,,,664439645a9a29be43d5bf5a,001,2024-06-30_05h27.53.543,empathy_intonation_perc,2024.1.4,Win32,60.24096386,,,,,,,,,,,,,,49,teñir,,,,,,240.78,242.3479,1,0,1.0494,,0,94,94,48,1,non_cognate,1,REAL,FALSA
,,,,,,,,,664439645a9a29be43d5bf5a,001,2024-06-30_05h27.53.543,empathy_intonation_perc,2024.1.4,Win32,60.24096386,,,,,,,,,,,,,,184,huenos,,,,,,242.348,243.7159,1,0,0.8499,,0,95,95,183,1,pseudoword,0,REAL,FALSA
,,,,,,,,,664439645a9a29be43d5bf5a,001,2024-06-30_05h27.53.543,empathy_intonation_perc,2024.1.4,Win32,60.24096386,,,,,,,,,,,,,,96,caro,,,,,,243.716,245.1507,1,0,0.917,,0,96,96,95,1,non_cognate,1,REAL,FALSA
,,,,,,,,,664439645a9a29be43d5bf5a,001,2024-06-30_05h27.53.543,empathy_intonation_perc,2024.1.4,Win32,60.24096386,,,,,,,,,,,,,,94,forro,,,,,,245.1509,246.5688,0,1,0.9084,,0,97,97,93,1,non_cognate,1,REAL,FALSA
,,,,,,,,,664439645a9a29be43d5bf5a,001,2024-06-30_05h27.53.543,empathy_intonation_perc,2024.1.4,Win32,60.24096386,,,,,,,,,,,,,,110,densó,,,,,,246.5691,248.3373,0,1,1.2598,,0,98,98,109,1,pseudoword,0,REAL,FALSA
,,,,,,,,,664439645a9a29be43d5bf5a,001,2024-06-30_05h27.53.543,empathy_intonation_perc,2024.1.4,Win32,60.24096386,,,,,,,,,,,,,,21,hotel,,,,,,248.3376,250.5396,1,0,1.6663,,0,99,99,20,1,three_way_cognate,1,REAL,FALSA
,,,,,,,,,664439645a9a29be43d5bf5a,001,2024-06-30_05h27.53.543,empathy_intonation_perc,2024.1.4,Win32,60.24096386,,,,,,,,,,,,,,76,chocar,,,,,,250.5398,252.3581,1,0,1.3042,,0,100,100,75,1,non_cognate,1,REAL,FALSA
,,,,,,,,,664439645a9a29be43d5bf5a,001,2024-06-30_05h27.53.543,empathy_intonation_perc,2024.1.4,Win32,60.24096386,,,,,,,,,,,,,,102,coyo,,,,,,252.3583,253.926,0,1,1.0506,,0,101,101,101,1,pseudoword,0,REAL,FALSA
,,,,,,,,,664439645a9a29be43d5bf5a,001,2024-06-30_05h27.53.543,empathy_intonation_perc,2024.1.4,Win32,60.24096386,,,,,,,,,,,,,,84,aviso,,,,,,253.9262,255.2774,1,0,0.8379,,0,102,102,83,1,non_cognate,1,REAL,FALSA
,,,,,,,,,664439645a9a29be43d5bf5a,001,2024-06-30_05h27.53.543,empathy_intonation_perc,2024.1.4,Win32,60.24096386,,,,,,,,,,,,,,59,feo,,,,,,255.2776,256.5453,1,0,0.7507,,0,103,103,58,1,non_cognate,1,REAL,FALSA
,,,,,,,,,664439645a9a29be43d5bf5a,001,2024-06-30_05h27.53.543,empathy_intonation_perc,2024.1.4,Win32,60.24096386,,,,,,,,,,,,,,8,kilo,,,,,,256.5455,257.9637,1,0,0.9065,,0,104,104,7,1,three_way_cognate,1,REAL,FALSA
,,,,,,,,,664439645a9a29be43d5bf5a,001,2024-06-30_05h27.53.543,empathy_intonation_perc,2024.1.4,Win32,60.24096386,,,,,,,,,,,,,,107,plago,,,,,,257.9639,259.6817,0,1,1.2085,,0,105,105,106,1,pseudoword,0,REAL,FALSA
,,,,,,,,,664439645a9a29be43d5bf5a,001,2024-06-30_05h27.53.543,empathy_intonation_perc,2024.1.4,Win32,60.24096386,,,,,,,,,,,,,,62,pegar,,,,,,259.6819,261.3668,1,0,1.1705,,0,106,106,61,1,non_cognate,1,REAL,FALSA
,,,,,,,,,664439645a9a29be43d5bf5a,001,2024-06-30_05h27.53.543,empathy_intonation_perc,2024.1.4,Win32,60.24096386,,,,,,,,,,,,,,5,extra,,,,,,261.367,262.735,0,1,0.8523,,0,107,107,4,1,three_way_cognate,1,REAL,FALSA
,,,,,,,,,664439645a9a29be43d5bf5a,001,2024-06-30_05h27.53.543,empathy_intonation_perc,2024.1.4,Win32,60.24096386,,,,,,,,,,,,,,95,listo,,,,,,262.7353,264.1364,1,0,0.8851,,0,108,108,94,1,non_cognate,1,REAL,FALSA
,,,,,,,,,664439645a9a29be43d5bf5a,001,2024-06-30_05h27.53.543,empathy_intonation_perc,2024.1.4,Win32,60.24096386,,,,,,,,,,,,,,105,leniz,,,,,,264.1365,265.3542,0,1,0.6995,,0,109,109,104,1,pseudoword,0,REAL,FALSA
,,,,,,,,,664439645a9a29be43d5bf5a,001,2024-06-30_05h27.53.543,empathy_intonation_perc,2024.1.4,Win32,60.24096386,,,,,,,,,,,,,,4,flora,,,,,,265.3544,266.7053,1,0,0.8416,,0,110,110,3,1,three_way_cognate,1,REAL,FALSA
,,,,,,,,,664439645a9a29be43d5bf5a,001,2024-06-30_05h27.53.543,empathy_intonation_perc,2024.1.4,Win32,60.24096386,,,,,,,,,,,,,,41,pasta,,,,,,266.7055,268.3404,1,0,1.1163,,0,111,111,40,1,two_way_cognate,1,REAL,FALSA
,,,,,,,,,664439645a9a29be43d5bf5a,001,2024-06-30_05h27.53.543,empathy_intonation_perc,2024.1.4,Win32,60.24096386,,,,,,,,,,,,,,153,golla,,,,,,268.3409,269.7252,1,0,0.8716,,0,112,112,152,1,pseudoword,0,REAL,FALSA
,,,,,,,,,664439645a9a29be43d5bf5a,001,2024-06-30_05h27.53.543,empathy_intonation_perc,2024.1.4,Win32,60.24096386,,,,,,,,,,,,,,9,portal,,,,,,269.7254,271.6771,0,1,1.4383,,0,113,113,8,1,three_way_cognate,1,REAL,FALSA
,,,,,,,,,664439645a9a29be43d5bf5a,001,2024-06-30_05h27.53.543,empathy_intonation_perc,2024.1.4,Win32,60.24096386,,,,,,,,,,,,,,39,casual,,,,,,271.6773,273.0783,0,1,0.8951,,0,114,114,38,1,two_way_cognate,1,REAL,FALSA
,,,,,,,,,664439645a9a29be43d5bf5a,001,2024-06-30_05h27.53.543,empathy_intonation_perc,2024.1.4,Win32,60.24096386,,,,,,,,,,,,,,187,nomata,,,,,,273.0785,274.7134,0,1,1.1252,,0,115,115,186,1,pseudoword,0,REAL,FALSA
,,,,,,,,,664439645a9a29be43d5bf5a,001,2024-06-30_05h27.53.543,empathy_intonation_perc,2024.1.4,Win32,60.24096386,,,,,,,,,,,,,,152,prave,,,,,,274.7137,276.1983,0,1,0.9671,,0,116,116,151,1,pseudoword,0,REAL,FALSA
,,,,,,,,,664439645a9a29be43d5bf5a,001,2024-06-30_05h27.53.543,empathy_intonation_perc,2024.1.4,Win32,60.24096386,,,,,,,,,,,,,,169,pitis,,,,,,276.1985,277.7165,0,1,1.0057,,0,117,117,168,1,pseudoword,0,REAL,FALSA
,,,,,,,,,664439645a9a29be43d5bf5a,001,2024-06-30_05h27.53.543,empathy_intonation_perc,2024.1.4,Win32,60.24096386,,,,,,,,,,,,,,154,harvé,,,,,,277.7167,279.0511,0,1,0.8234,,0,118,118,153,1,pseudoword,0,REAL,FALSA
,,,,,,,,,664439645a9a29be43d5bf5a,001,2024-06-30_05h27.53.543,empathy_intonation_perc,2024.1.4,Win32,60.24096386,,,,,,,,,,,,,,3,disco,,,,,,279.0513,280.3859,1,0,0.8254,,0,119,119,2,1,three_way_cognate,1,REAL,FALSA
,,,,,,,,,664439645a9a29be43d5bf5a,001,2024-06-30_05h27.53.543,empathy_intonation_perc,2024.1.4,Win32,60.24096386,,,,,,,,,,,,,,190,asumie,,,,,,280.386,282.4378,1,0,1.5345,,0,120,120,189,1,pseudoword,0,REAL,FALSA
,,,,,,,,,664439645a9a29be43d5bf5a,001,2024-06-30_05h27.53.543,empathy_intonation_perc,2024.1.4,Win32,60.24096386,,,,,,,,,,,,,,38,halo,,,,,,282.438,283.8893,1,0,0.9341,,0,121,121,37,1,two_way_cognate,1,REAL,FALSA
,,,,,,,,,664439645a9a29be43d5bf5a,001,2024-06-30_05h27.53.543,empathy_intonation_perc,2024.1.4,Win32,60.24096386,,,,,,,,,,,,,,185,aljizo,,,,,,283.8895,285.4242,0,1,1.0189,,0,122,122,184,1,pseudoword,0,REAL,FALSA
,,,,,,,,,664439645a9a29be43d5bf5a,001,2024-06-30_05h27.53.543,empathy_intonation_perc,2024.1.4,Win32,60.24096386,,,,,,,,,,,,,,146,gió,,,,,,285.4245,287.3595,1,0,1.4283,,0,123,123,145,1,pseudoword,0,REAL,FALSA
,,,,,,,,,664439645a9a29be43d5bf5a,001,2024-06-30_05h27.53.543,empathy_intonation_perc,2024.1.4,Win32,60.24096386,,,,,,,,,,,,,,172,dogue,,,,,,287.3597,289.4116,0,1,1.5321,,0,124,124,171,1,pseudoword,0,REAL,FALSA
,,,,,,,,,664439645a9a29be43d5bf5a,001,2024-06-30_05h27.53.543,empathy_intonation_perc,2024.1.4,Win32,60.24096386,,,,,,,,,,,,,,56,pico,,,,,,289.4118,290.5792,1,0,0.6483,,0,125,125,55,1,non_cognate,1,REAL,FALSA
,,,,,,,,,664439645a9a29be43d5bf5a,001,2024-06-30_05h27.53.543,empathy_intonation_perc,2024.1.4,Win32,60.24096386,,,,,,,,,,,,,,20,trauma,,,,,,290.5794,292.1308,0,1,1.0328,,0,126,126,19,1,three_way_cognate,1,REAL,FALSA
,,,,,,,,,664439645a9a29be43d5bf5a,001,2024-06-30_05h27.53.543,empathy_intonation_perc,2024.1.4,Win32,60.24096386,,,,,,,,,,,,,,72,rostro,,,,,,292.131,293.9328,0,1,1.2895,,0,127,127,71,1,non_cognate,1,REAL,FALSA
,,,,,,,,,664439645a9a29be43d5bf5a,001,2024-06-30_05h27.53.543,empathy_intonation_perc,2024.1.4,Win32,60.24096386,,,,,,,,,,,,,,103,vueras,,,,,,293.9329,295.8678,1,0,1.4215,,0,128,128,102,1,pseudoword,0,REAL,FALSA
,,,,,,,,,664439645a9a29be43d5bf5a,001,2024-06-30_05h27.53.543,empathy_intonation_perc,2024.1.4,Win32,60.24096386,,,,,,,,,,,,,,64,rizado,,,,,,295.868,297.453,1,0,1.0724,,0,129,129,63,1,non_cognate,1,REAL,FALSA
,,,,,,,,,664439645a9a29be43d5bf5a,001,2024-06-30_05h27.53.543,empathy_intonation_perc,2024.1.4,Win32,60.24096386,,,,,,,,,,,,,,136,hueas,,,,,,297.4532,299.0211,0,1,1.0492,,0,130,130,135,1,pseudoword,0,REAL,FALSA
,,,,,,,,,664439645a9a29be43d5bf5a,001,2024-06-30_05h27.53.543,empathy_intonation_perc,2024.1.4,Win32,60.24096386,,,,,,,,,,,,,,80,cuenco,,,,,,299.0213,300.2557,1,0,0.7272,,0,131,131,79,1,non_cognate,1,REAL,FALSA
,,,,,,,,,664439645a9a29be43d5bf5a,001,2024-06-30_05h27.53.543,empathy_intonation_perc,2024.1.4,Win32,60.24096386,,,,,,,,,,,,,,12,dogma,,,,,,300.2559,301.9906,1,0,1.2204,,0,132,132,11,1,three_way_cognate,1,REAL,FALSA
,,,,,,,,,664439645a9a29be43d5bf5a,001,2024-06-30_05h27.53.543,empathy_intonation_perc,2024.1.4,Win32,60.24096386,,,,,,,,,,,,,,13,plan,,,,,,301.9908,303.3087,0,1,0.7991,,0,133,133,12,1,three_way_cognate,1,REAL,FALSA
,,,,,,,,,664439645a9a29be43d5bf5a,001,2024-06-30_05h27.53.543,empathy_intonation_perc,2024.1.4,Win32,60.24096386,,,,,,,,,,,,,,149,emén,,,,,,303.3089,304.8102,0,1,0.9918,,0,134,134,148,1,pseudoword,0,REAL,FALSA
,,,,,,,,,664439645a9a29be43d5bf5a,001,2024-06-30_05h27.53.543,empathy_intonation_perc,2024.1.4,Win32,60.24096386,,,,,,,,,,,,,,106,diebro,,,,,,304.8104,306.295,0,1,0.9702,,0,135,135,105,1,pseudoword,0,REAL,FALSA
,,,,,,,,,664439645a9a29be43d5bf5a,001,2024-06-30_05h27.53.543,empathy_intonation_perc,2024.1.4,Win32,60.24096386,,,,,,,,,,,,,,91,equipo,,,,,,306.2952,307.5126,1,0,0.7084,,0,136,136,90,1,non_cognate,1,REAL,FALSA
,,,,,,,,,664439645a9a29be43d5bf5a,001,2024-06-30_05h27.53.543,empathy_intonation_perc,2024.1.4,Win32,60.24096386,,,,,,,,,,,,,,155,kugis,,,,,,307.5129,308.7642,0,1,0.739,,0,137,137,154,1,pseudoword,0,REAL,FALSA
,,,,,,,,,664439645a9a29be43d5bf5a,001,2024-06-30_05h27.53.543,empathy_intonation_perc,2024.1.4,Win32,60.24096386,,,,,,,,,,,,,,158,babrá,,,,,,308.7644,310.8995,1,0,1.624,,0,138,138,157,1,pseudoword,0,REAL,FALSA
,,,,,,,,,664439645a9a29be43d5bf5a,001,2024-06-30_05h27.53.543,empathy_intonation_perc,2024.1.4,Win32,60.24096386,,,,,,,,,,,,,,19,mafia,,,,,,310.8998,312.4345,1,0,1.0238,,0,139,139,18,1,three_way_cognate,1,REAL,FALSA
,,,,,,,,,664439645a9a29be43d5bf5a,001,2024-06-30_05h27.53.543,empathy_intonation_perc,2024.1.4,Win32,60.24096386,,,,,,,,,,,,,,151,prías,,,,,,312.4348,313.9026,1,0,0.9611,,0,140,140,150,1,pseudoword,0,REAL,FALSA
,,,,,,,,,664439645a9a29be43d5bf5a,001,2024-06-30_05h27.53.543,empathy_intonation_perc,2024.1.4,Win32,60.24096386,,,,,,,,,,,,,,31,civil,,,,,,313.903,315.3041,0,1,0.8927,,0,141,141,30,1,two_way_cognate,1,REAL,FALSA
,,,,,,,,,664439645a9a29be43d5bf5a,001,2024-06-30_05h27.53.543,empathy_intonation_perc,2024.1.4,Win32,60.24096386,,,,,,,,,,,,,,176,gripar,,,,,,315.3043,316.9557,0,1,1.1332,,0,142,142,175,1,pseudoword,0,REAL,FALSA
,,,,,,,,,664439645a9a29be43d5bf5a,001,2024-06-30_05h27.53.543,empathy_intonation_perc,2024.1.4,Win32,60.24096386,,,,,,,,,,,,,,115,lidena,,,,,,316.9559,318.3903,0,1,0.92,,0,143,143,114,1,pseudoword,0,REAL,FALSA
,,,,,,,,,664439645a9a29be43d5bf5a,001,2024-06-30_05h27.53.543,empathy_intonation_perc,2024.1.4,Win32,60.24096386,,,,,,,,,,,,,,189,medium,,,,,,318.3906,320.4091,0,1,1.5018,,0,144,144,188,1,pseudoword,0,REAL,FALSA
,,,,,,,,,664439645a9a29be43d5bf5a,001,2024-06-30_05h27.53.543,empathy_intonation_perc,2024.1.4,Win32,60.24096386,,,,,,,,,,,,,,35,aurora,,,,,,320.4093,322.0439,1,0,1.1161,,0,145,145,34,1,two_way_cognate,1,REAL,FALSA
,,,,,,,,,664439645a9a29be43d5bf5a,001,2024-06-30_05h27.53.543,empathy_intonation_perc,2024.1.4,Win32,60.24096386,,,,,,,,,,,,,,51,listo,,,,,,322.0442,323.3454,1,0,0.7843,,0,146,146,50,1,non_cognate,1,REAL,FALSA
,,,,,,,,,664439645a9a29be43d5bf5a,001,2024-06-30_05h27.53.543,empathy_intonation_perc,2024.1.4,Win32,60.24096386,,,,,,,,,,,,,,22,mango,,,,,,323.3456,325.2639,1,0,1.4023,,0,147,147,21,1,three_way_cognate,1,REAL,FALSA
,,,,,,,,,664439645a9a29be43d5bf5a,001,2024-06-30_05h27.53.543,empathy_intonation_perc,2024.1.4,Win32,60.24096386,,,,,,,,,,,,,,148,gino,,,,,,325.2642,326.6986,1,0,0.9241,,0,148,148,147,1,pseudoword,0,REAL,FALSA
,,,,,,,,,664439645a9a29be43d5bf5a,001,2024-06-30_05h27.53.543,empathy_intonation_perc,2024.1.4,Win32,60.24096386,,,,,,,,,,,,,,93,tapa,,,,,,326.6989,328.0667,1,0,0.8486,,0,149,149,92,1,non_cognate,1,REAL,FALSA
,,,,,,,,,664439645a9a29be43d5bf5a,001,2024-06-30_05h27.53.543,empathy_intonation_perc,2024.1.4,Win32,60.24096386,,,,,,,,,,,,,,157,seled,,,,,,328.0669,329.5682,1,0,0.9933,,0,150,150,156,1,pseudoword,0,REAL,FALSA
,,,,,,,,,664439645a9a29be43d5bf5a,001,2024-06-30_05h27.53.543,empathy_intonation_perc,2024.1.4,Win32,60.24096386,,,,,,,,,,,,,,118,bará,,,,,,329.5684,331.0531,1,0,0.966,,0,151,151,117,1,pseudoword,0,REAL,FALSA
,,,,,,,,,664439645a9a29be43d5bf5a,001,2024-06-30_05h27.53.543,empathy_intonation_perc,2024.1.4,Win32,60.24096386,,,,,,,,,,,,,,112,samón,,,,,,331.0533,332.4545,1,0,0.8868,,0,152,152,111,1,pseudoword,0,REAL,FALSA
,,,,,,,,,664439645a9a29be43d5bf5a,001,2024-06-30_05h27.53.543,empathy_intonation_perc,2024.1.4,Win32,60.24096386,,,,,,,,,,,,,,128,pelí,,,,,,332.4548,333.7056,1,0,0.7417,,0,153,153,127,1,pseudoword,0,REAL,FALSA
,,,,,,,,,664439645a9a29be43d5bf5a,001,2024-06-30_05h27.53.543,empathy_intonation_perc,2024.1.4,Win32,60.24096386,,,,,,,,,,,,,,69,tiza,,,,,,333.7057,335.0069,1,0,0.7932,,0,154,154,68,1,non_cognate,1,REAL,FALSA
,,,,,,,,,664439645a9a29be43d5bf5a,001,2024-06-30_05h27.53.543,empathy_intonation_perc,2024.1.4,Win32,60.24096386,,,,,,,,,,,,,,99,bugor,,,,,,335.0071,336.6585,0,1,1.1408,,0,155,155,98,1,pseudoword,0,REAL,FALSA
,,,,,,,,,664439645a9a29be43d5bf5a,001,2024-06-30_05h27.53.543,empathy_intonation_perc,2024.1.4,Win32,60.24096386,,,,,,,,,,,,,,43,honor,,,,,,336.6587,338.1936,0,1,1.0174,,0,156,156,42,1,two_way_cognate,1,REAL,FALSA
,,,,,,,,,664439645a9a29be43d5bf5a,001,2024-06-30_05h27.53.543,empathy_intonation_perc,2024.1.4,Win32,60.24096386,,,,,,,,,,,,,,104,estulo,,,,,,338.1939,339.5614,1,0,0.8496,,0,157,157,103,1,pseudoword,0,REAL,FALSA
,,,,,,,,,664439645a9a29be43d5bf5a,001,2024-06-30_05h27.53.543,empathy_intonation_perc,2024.1.4,Win32,60.24096386,,,,,,,,,,,,,,61,aduana,,,,,,339.5616,341.113,1,0,1.0429,,0,158,158,60,1,non_cognate,1,REAL,FALSA
,,,,,,,,,664439645a9a29be43d5bf5a,001,2024-06-30_05h27.53.543,empathy_intonation_perc,2024.1.4,Win32,60.24096386,,,,,,,,,,,,,,92,flecha,,,,,,341.1133,342.8147,1,0,1.1877,,0,159,159,91,1,non_cognate,1,REAL,FALSA
,,,,,,,,,664439645a9a29be43d5bf5a,001,2024-06-30_05h27.53.543,empathy_intonation_perc,2024.1.4,Win32,60.24096386,,,,,,,,,,,,,,168,cobén,,,,,,342.815,344.2164,0,1,0.8928,,0,160,160,167,1,pseudoword,0,REAL,FALSA
,,,,,,,,,664439645a9a29be43d5bf5a,001,2024-06-30_05h27.53.543,empathy_intonation_perc,2024.1.4,Win32,60.24096386,,,,,,,,,,,,,,138,tator,,,,,,344.2165,345.5841,1,0,0.8517,,0,161,161,137,1,pseudoword,0,REAL,FALSA
,,,,,,,,,664439645a9a29be43d5bf5a,001,2024-06-30_05h27.53.543,empathy_intonation_perc,2024.1.4,Win32,60.24096386,,,,,,,,,,,,,,52,blando,,,,,,345.5843,346.8854,1,0,0.7841,,0,162,162,51,1,non_cognate,1,REAL,FALSA
,,,,,,,,,664439645a9a29be43d5bf5a,001,2024-06-30_05h27.53.543,empathy_intonation_perc,2024.1.4,Win32,60.24096386,,,,,,,,,,,,,,54,tapón,,,,,,346.8856,348.2535,1,0,0.8545,,0,163,163,53,1,non_cognate,1,REAL,FALSA
,,,,,,,,,664439645a9a29be43d5bf5a,001,2024-06-30_05h27.53.543,empathy_intonation_perc,2024.1.4,Win32,60.24096386,,,,,,,,,,,,,,133,conso,,,,,,348.2537,349.6547,1,0,0.8864,,0,164,164,132,1,pseudoword,0,REAL,FALSA
,,,,,,,,,664439645a9a29be43d5bf5a,001,2024-06-30_05h27.53.543,empathy_intonation_perc,2024.1.4,Win32,60.24096386,,,,,,,,,,,,,,140,chorde,,,,,,349.6549,351.1565,1,0,0.989,,0,165,165,139,1,pseudoword,0,REAL,FALSA
,,,,,,,,,664439645a9a29be43d5bf5a,001,2024-06-30_05h27.53.543,empathy_intonation_perc,2024.1.4,Win32,60.24096386,,,,,,,,,,,,,,63,hilo,,,,,,351.1567,352.4743,1,0,0.7833,,0,166,166,62,1,non_cognate,1,REAL,FALSA
,,,,,,,,,664439645a9a29be43d5bf5a,001,2024-06-30_05h27.53.543,empathy_intonation_perc,2024.1.4,Win32,60.24096386,,,,,,,,,,,,,,83,hálito,,,,,,352.4746,354.2595,1,0,1.2734,,0,167,167,82,1,non_cognate,1,REAL,FALSA
,,,,,,,,,664439645a9a29be43d5bf5a,001,2024-06-30_05h27.53.543,empathy_intonation_perc,2024.1.4,Win32,60.24096386,,,,,,,,,,,,,,1,moral,,,,,,354.2597,355.7609,0,1,0.984,,0,168,168,0,1,three_way_cognate,1,REAL,FALSA
,,,,,,,,,664439645a9a29be43d5bf5a,001,2024-06-30_05h27.53.543,empathy_intonation_perc,2024.1.4,Win32,60.24096386,,,,,,,,,,,,,,119,esís,,,,,,355.761,357.0623,1,0,0.787,,0,169,169,118,1,pseudoword,0,REAL,FALSA
,,,,,,,,,664439645a9a29be43d5bf5a,001,2024-06-30_05h27.53.543,empathy_intonation_perc,2024.1.4,Win32,60.24096386,,,,,,,,,,,,,,101,losco,,,,,,357.0625,358.664,0,1,1.0856,,0,170,170,100,1,pseudoword,0,REAL,FALSA
,,,,,,,,,664439645a9a29be43d5bf5a,001,2024-06-30_05h27.53.543,empathy_intonation_perc,2024.1.4,Win32,60.24096386,,,,,,,,,,,,,,113,nasce,,,,,,358.6643,359.9483,0,1,0.7648,,0,171,171,112,1,pseudoword,0,REAL,FALSA
,,,,,,,,,664439645a9a29be43d5bf5a,001,2024-06-30_05h27.53.543,empathy_intonation_perc,2024.1.4,Win32,60.24096386,,,,,,,,,,,,,,37,torso,,,,,,359.9485,362.0172,0,1,1.5596,,0,172,172,36,1,two_way_cognate,1,REAL,FALSA
,,,,,,,,,664439645a9a29be43d5bf5a,001,2024-06-30_05h27.53.543,empathy_intonation_perc,2024.1.4,Win32,60.24096386,,,,,,,,,,,,,,165,chote,,,,,,362.0174,363.5522,1,0,1.018,,0,173,173,164,1,pseudoword,0,REAL,FALSA
,,,,,,,,,664439645a9a29be43d5bf5a,001,2024-06-30_05h27.53.543,empathy_intonation_perc,2024.1.4,Win32,60.24096386,,,,,,,,,,,,,,137,trugo,,,,,,363.5524,364.9703,0,1,0.8999,,0,174,174,136,1,pseudoword,0,REAL,FALSA
,,,,,,,,,664439645a9a29be43d5bf5a,001,2024-06-30_05h27.53.543,empathy_intonation_perc,2024.1.4,Win32,60.24096386,,,,,,,,,,,,,,85,enorme,,,,,,364.9706,366.2381,1,0,0.7495,,0,175,175,84,1,non_cognate,1,REAL,FALSA
,,,,,,,,,664439645a9a29be43d5bf5a,001,2024-06-30_05h27.53.543,empathy_intonation_perc,2024.1.4,Win32,60.24096386,,,,,,,,,,,,,,82,brillo,,,,,,366.2383,367.4893,1,0,0.7335,,0,176,176,81,1,non_cognate,1,REAL,FALSA
,,,,,,,,,664439645a9a29be43d5bf5a,001,2024-06-30_05h27.53.543,empathy_intonation_perc,2024.1.4,Win32,60.24096386,,,,,,,,,,,,,,17,clan,,,,,,367.4897,369.0409,0,1,1.043,,0,177,177,16,1,three_way_cognate,1,REAL,FALSA
,,,,,,,,,664439645a9a29be43d5bf5a,001,2024-06-30_05h27.53.543,empathy_intonation_perc,2024.1.4,Win32,60.24096386,,,,,,,,,,,,,,87,muleta,,,,,,369.041,371.6435,0,1,2.084,,0,178,178,86,1,non_cognate,1,REAL,FALSA
,,,,,,,,,664439645a9a29be43d5bf5a,001,2024-06-30_05h27.53.543,empathy_intonation_perc,2024.1.4,Win32,60.24096386,,,,,,,,,,,,,,27,piano,,,,,,371.6503,373.729,1,0,1.559,,0,179,179,26,1,two_way_cognate,1,REAL,FALSA
,,,,,,,,,664439645a9a29be43d5bf5a,001,2024-06-30_05h27.53.543,empathy_intonation_perc,2024.1.4,Win32,60.24096386,,,,,,,,,,,,,,162,cengo,,,,,,373.7292,375.6476,0,1,1.4028,,0,180,180,161,1,pseudoword,0,REAL,FALSA
,,,,,,,,,664439645a9a29be43d5bf5a,001,2024-06-30_05h27.53.543,empathy_intonation_perc,2024.1.4,Win32,60.24096386,,,,,,,,,,,,,,127,vien,,,,,,375.6479,377.466,0,1,1.3003,,0,181,181,126,1,pseudoword,0,REAL,FALSA
,,,,,,,,,664439645a9a29be43d5bf5a,001,2024-06-30_05h27.53.543,empathy_intonation_perc,2024.1.4,Win32,60.24096386,,,,,,,,,,,,,,58,colcha,,,,,,377.4662,379.1342,0,1,1.1541,,0,182,182,57,1,non_cognate,1,REAL,FALSA
,,,,,,,,,664439645a9a29be43d5bf5a,001,2024-06-30_05h27.53.543,empathy_intonation_perc,2024.1.4,Win32,60.24096386,,,,,,,,,,,,,,88,percha,,,,,,379.1344,380.7192,1,0,1.0781,,0,183,183,87,1,non_cognate,1,REAL,FALSA
,,,,,,,,,664439645a9a29be43d5bf5a,001,2024-06-30_05h27.53.543,empathy_intonation_perc,2024.1.4,Win32,60.24096386,,,,,,,,,,,,,,97,nocita,,,,,,380.7194,382.1372,1,0,0.9008,,0,184,184,96,1,pseudoword,0,REAL,FALSA
,,,,,,,,,664439645a9a29be43d5bf5a,001,2024-06-30_05h27.53.543,empathy_intonation_perc,2024.1.4,Win32,60.24096386,,,,,,,,,,,,,,89,muñeca,,,,,,382.1374,383.6052,1,0,0.9509,,0,185,185,88,1,non_cognate,1,REAL,FALSA
,,,,,,,,,664439645a9a29be43d5bf5a,001,2024-06-30_05h27.53.543,empathy_intonation_perc,2024.1.4,Win32,60.24096386,,,,,,,,,,,,,,48,pelvis,,,,,,383.6054,385.1569,1,0,1.0388,,0,186,186,47,1,two_way_cognate,1,REAL,FALSA
,,,,,,,,,664439645a9a29be43d5bf5a,001,2024-06-30_05h27.53.543,empathy_intonation_perc,2024.1.4,Win32,60.24096386,,,,,,,,,,,,,,81,sacar,,,,,,385.1571,386.6082,1,0,0.9421,,0,187,187,80,1,non_cognate,1,REAL,FALSA
,,,,,,,,,664439645a9a29be43d5bf5a,001,2024-06-30_05h27.53.543,empathy_intonation_perc,2024.1.4,Win32,60.24096386,,,,,,,,,,,,,,108,jauda,,,,,,386.6084,388.01,0,1,0.8916,,0,188,188,107,1,pseudoword,0,REAL,FALSA
,,,,,,,,,664439645a9a29be43d5bf5a,001,2024-06-30_05h27.53.543,empathy_intonation_perc,2024.1.4,Win32,60.24096386,,,,,,,,,,,,,,163,olzan,,,,,,388.0101,389.6784,0,1,1.1371,,0,189,189,162,1,pseudoword,0,REAL,FALSA
,,,,,,,,,664439645a9a29be43d5bf5a,001,2024-06-30_05h27.53.543,empathy_intonation_perc,2024.1.4,Win32,60.24096386,,,,,,,,,,,,,,100,épinas,,,,,,389.6786,390.8626,1,0,0.677,,0,190,190,99,1,pseudoword,0,REAL,FALSA
,,,,,,,,,664439645a9a29be43d5bf5a,001,2024-06-30_05h27.53.543,empathy_intonation_perc,2024.1.4,Win32,60.24096386,,,,,,,,,,,,,,132,nocó,,,,,,390.8629,393.098,0,1,1.7254,,0,191,191,131,1,pseudoword,0,REAL,FALSA
