lextale_instructions.started,lextale_instructions.stopped,lextale_instructions_loop.thisRepN,lextale_instructions_loop.thisTrialN,lextale_instructions_loop.thisN,lextale_instructions_loop.thisIndex,lextale_instructions_loop.ran,instructions_text,continue_text,participant,session,date,expName,psychopyVersion,OS,frameRate,lextale_practice.started,lextale_practice.stopped,key_resp_lextale_practice.keys,key_resp_lextale_practice.corr,key_resp_lextale_practice.rt,key_resp_lextale_practice.duration,lextale_practice_feedback.started,lextale_practice_feedback.stopped,lextale_practice_trials.thisRepN,lextale_practice_trials.thisTrialN,lextale_practice_trials.thisN,lextale_practice_trials.thisIndex,lextale_practice_trials.ran,stim,word,correct_response,prac_button_real,prac_button_false,lextale_check.started,lextale_check.stopped,lextale_trial.started,lextale_trial.stopped,key_resp_lextale_trial.keys,key_resp_lextale_trial.corr,key_resp_lextale_trial.rt,key_resp_lextale_trial.duration,lextail_trials.thisRepN,lextail_trials.thisTrialN,lextail_trials.thisN,lextail_trials.thisIndex,lextail_trials.ran,type,correct_reponse,button_real,button_false
0.0128,9.8558,0,0,0,0,1,"Este es un test de vocabulario en español. 
  
  A continuación vas a ver 90 secuencias de letras que parecen 'españolas'.
  
  Solo algunas de ellas son palabras de verdad.",(presiona la barra espaciadora para continuar),664a04cfda51f0fe3594455a,001,2024-06-30_05h38.34.713,empathy_intonation_perc,2024.1.4,Linux x86_64,30.12048193,,,,,,,,,,,,,,,,,,,,,,,,,,,,,,,,,,,
9.8573,14.0965,0,1,1,1,1,"Por favor, señala las palabras que tú conoces (aquellas que estás convencido que son palabras españolas, incluso aunque no seas capaz de dar el significado preciso).",(presiona la barra espaciadora para continuar),664a04cfda51f0fe3594455a,001,2024-06-30_05h38.34.713,empathy_intonation_perc,2024.1.4,Linux x86_64,30.12048193,,,,,,,,,,,,,,,,,,,,,,,,,,,,,,,,,,,
14.0973,16.5093,0,2,2,2,1,Pero cuidado: los errores se penalizan. Por eso no tiene sentido tratar de incrementar tu puntuación marcando como reales palabras que nunca has visto.,(presiona la barra espaciadora para continuar),664a04cfda51f0fe3594455a,001,2024-06-30_05h38.34.713,empathy_intonation_perc,2024.1.4,Linux x86_64,30.12048193,,,,,,,,,,,,,,,,,,,,,,,,,,,,,,,,,,,
16.5111,18.8985,0,3,3,3,1,"Presiona la tecla 1 si piensas que es una palabra real y la tecla 
  0 si piensas que es una palabra falsa. 
  
  Vamos a practicar un poco...",(presiona la barra espaciadora para continuar),664a04cfda51f0fe3594455a,001,2024-06-30_05h38.34.713,empathy_intonation_perc,2024.1.4,Linux x86_64,30.12048193,,,,,,,,,,,,,,,,,,,,,,,,,,,,,,,,,,,
,,,,,,,,,664a04cfda51f0fe3594455a,001,2024-06-30_05h38.34.713,empathy_intonation_perc,2024.1.4,Linux x86_64,30.12048193,18.9071,25.0823,1,0,5.6429,,25.0827,26.0768,0,0,0,0,1,0,depiste,0,REAL,FALSA,,,,,,,,,,,,,,,,,
,,,,,,,,,664a04cfda51f0fe3594455a,001,2024-06-30_05h38.34.713,empathy_intonation_perc,2024.1.4,Linux x86_64,30.12048193,26.0793,29.4943,1,1,2.8734,,29.4945,30.4861,0,1,1,1,1,0,sí,1,REAL,FALSA,,,,,,,,,,,,,,,,,
,,,,,,,,,664a04cfda51f0fe3594455a,001,2024-06-30_05h38.34.713,empathy_intonation_perc,2024.1.4,Linux x86_64,30.12048193,30.4873,34.3469,0,1,3.3173,,34.3471,35.3448,0,2,2,2,1,0,coné,0,REAL,FALSA,,,,,,,,,,,,,,,,,
,,,,,,,,,664a04cfda51f0fe3594455a,001,2024-06-30_05h38.34.713,empathy_intonation_perc,2024.1.4,Linux x86_64,30.12048193,35.3455,37.7103,0,1,1.8195,,37.7105,38.7126,0,3,3,3,1,0,calpar,0,REAL,FALSA,,,,,,,,,,,,,,,,,
,,,,,,,,,664a04cfda51f0fe3594455a,001,2024-06-30_05h38.34.713,empathy_intonation_perc,2024.1.4,Linux x86_64,30.12048193,38.7134,40.3854,0,1,1.1349,,40.3856,41.3734,0,4,4,4,1,0,joten,0,REAL,FALSA,,,,,,,,,,,,,,,,,
,,,,,,,,,664a04cfda51f0fe3594455a,001,2024-06-30_05h38.34.713,empathy_intonation_perc,2024.1.4,Linux x86_64,30.12048193,41.3757,43.2815,0,0,1.3679,,43.2823,44.2799,0,5,5,5,1,0,sacapuntas,1,REAL,FALSA,,,,,,,,,,,,,,,,,
,,,,,,,,,664a04cfda51f0fe3594455a,001,2024-06-30_05h38.34.713,empathy_intonation_perc,2024.1.4,Linux x86_64,30.12048193,44.2812,47.5232,0,1,2.6949,,47.5237,48.5216,0,6,6,6,1,0,priba,0,REAL,FALSA,,,,,,,,,,,,,,,,,
,,,,,,,,,664a04cfda51f0fe3594455a,001,2024-06-30_05h38.34.713,empathy_intonation_perc,2024.1.4,Linux x86_64,30.12048193,48.523,71.3151,0,1,22.2514,,71.3152,72.3129,0,7,7,7,1,0,pelasula,0,REAL,FALSA,,,,,,,,,,,,,,,,,
,,,,,,,,,664a04cfda51f0fe3594455a,001,2024-06-30_05h38.34.713,empathy_intonation_perc,2024.1.4,Linux x86_64,30.12048193,72.3357,74.7918,1,1,1.9205,,74.7918,75.791,0,8,8,8,1,0,bien,1,REAL,FALSA,,,,,,,,,,,,,,,,,
,,,,,,,,,664a04cfda51f0fe3594455a,001,2024-06-30_05h38.34.713,empathy_intonation_perc,2024.1.4,Linux x86_64,30.12048193,75.7916,77.5704,1,1,1.2402,,77.5706,78.5686,0,9,9,9,1,0,casa,1,REAL,FALSA,,,,,,,,,,,,,,,,,
,,,,,,,,,664a04cfda51f0fe3594455a,001,2024-06-30_05h38.34.713,empathy_intonation_perc,2024.1.4,Linux x86_64,30.12048193,78.5906,80.5647,1,0,1.4357,,80.5648,81.5638,0,10,10,10,1,0,lejo,0,REAL,FALSA,,,,,,,,,,,,,,,,,
,,,,,,,,,664a04cfda51f0fe3594455a,001,2024-06-30_05h38.34.713,empathy_intonation_perc,2024.1.4,Linux x86_64,30.12048193,81.5646,112.6399,0,1,30.5315,,112.64,113.6419,0,11,11,11,1,0,pretantas,0,REAL,FALSA,,,,,,,,,,,,,,,,,
,,,,,,,,,664a04cfda51f0fe3594455a,001,2024-06-30_05h38.34.713,empathy_intonation_perc,2024.1.4,Linux x86_64,30.12048193,,,,,,,,,,,,,,,,,,,113.6432,173.9736,,,,,,,,,,,,,,,
,,,,,,,,,664a04cfda51f0fe3594455a,001,2024-06-30_05h38.34.713,empathy_intonation_perc,2024.1.4,Linux x86_64,30.12048193,,,,,,,,,,,,,,90,venado,,,,,,174.0221,192.1066,1,0,17.5428,,0,0,0,89,1,non_cognate,1,REAL,FALSA
,,,,,,,,,664a04cfda51f0fe3594455a,001,2024-06-30_05h38.34.713,empathy_intonation_perc,2024.1.4,Linux x86_64,30.12048193,,,,,,,,,,,,,,26,enigma,,,,,,192.1284,209.8937,1,0,17.2295,,0,1,1,25,1,two_way_cognate,1,REAL,FALSA
,,,,,,,,,664a04cfda51f0fe3594455a,001,2024-06-30_05h38.34.713,empathy_intonation_perc,2024.1.4,Linux x86_64,30.12048193,,,,,,,,,,,,,,80,cuenco,,,,,,209.9155,227.8112,1,0,17.3596,,0,2,2,79,1,non_cognate,1,REAL,FALSA
,,,,,,,,,664a04cfda51f0fe3594455a,001,2024-06-30_05h38.34.713,empathy_intonation_perc,2024.1.4,Linux x86_64,30.12048193,,,,,,,,,,,,,,182,desaro,,,,,,227.8314,243.22,1,0,14.8449,,0,3,3,181,1,pseudoword,0,REAL,FALSA
,,,,,,,,,664a04cfda51f0fe3594455a,001,2024-06-30_05h38.34.713,empathy_intonation_perc,2024.1.4,Linux x86_64,30.12048193,,,,,,,,,,,,,,128,pelí,,,,,,243.2487,257.2606,1,0,13.4848,,0,4,4,127,1,pseudoword,0,REAL,FALSA
,,,,,,,,,664a04cfda51f0fe3594455a,001,2024-06-30_05h38.34.713,empathy_intonation_perc,2024.1.4,Linux x86_64,30.12048193,,,,,,,,,,,,,,165,chote,,,,,,257.2816,268.8257,1,0,11.0043,,0,5,5,164,1,pseudoword,0,REAL,FALSA
,,,,,,,,,664a04cfda51f0fe3594455a,001,2024-06-30_05h38.34.713,empathy_intonation_perc,2024.1.4,Linux x86_64,30.12048193,,,,,,,,,,,,,,1,moral,,,,,,268.8539,271.9519,1,0,2.5685,,0,6,6,0,1,three_way_cognate,1,REAL,FALSA
,,,,,,,,,664a04cfda51f0fe3594455a,001,2024-06-30_05h38.34.713,empathy_intonation_perc,2024.1.4,Linux x86_64,30.12048193,,,,,,,,,,,,,,25,vigor,,,,,,271.9524,274.1982,0,1,1.7177,,0,7,7,24,1,two_way_cognate,1,REAL,FALSA
,,,,,,,,,664a04cfda51f0fe3594455a,001,2024-06-30_05h38.34.713,empathy_intonation_perc,2024.1.4,Linux x86_64,30.12048193,,,,,,,,,,,,,,122,boñaz,,,,,,274.1991,276.3271,0,1,1.5823,,0,8,8,121,1,pseudoword,0,REAL,FALSA
,,,,,,,,,664a04cfda51f0fe3594455a,001,2024-06-30_05h38.34.713,empathy_intonation_perc,2024.1.4,Linux x86_64,30.12048193,,,,,,,,,,,,,,130,dubo,,,,,,276.3283,278.1255,0,1,1.2725,,0,9,9,129,1,pseudoword,0,REAL,FALSA
,,,,,,,,,664a04cfda51f0fe3594455a,001,2024-06-30_05h38.34.713,empathy_intonation_perc,2024.1.4,Linux x86_64,30.12048193,,,,,,,,,,,,,,31,civil,,,,,,278.1261,280.0038,1,0,1.3411,,0,10,10,30,1,two_way_cognate,1,REAL,FALSA
,,,,,,,,,664a04cfda51f0fe3594455a,001,2024-06-30_05h38.34.713,empathy_intonation_perc,2024.1.4,Linux x86_64,30.12048193,,,,,,,,,,,,,,64,rizado,,,,,,280.005,282.4159,1,0,1.8674,,0,11,11,63,1,non_cognate,1,REAL,FALSA
,,,,,,,,,664a04cfda51f0fe3594455a,001,2024-06-30_05h38.34.713,empathy_intonation_perc,2024.1.4,Linux x86_64,30.12048193,,,,,,,,,,,,,,12,dogma,,,,,,282.4167,284.5791,1,0,1.633,,0,12,12,11,1,three_way_cognate,1,REAL,FALSA
,,,,,,,,,664a04cfda51f0fe3594455a,001,2024-06-30_05h38.34.713,empathy_intonation_perc,2024.1.4,Linux x86_64,30.12048193,,,,,,,,,,,,,,50,sierra,,,,,,284.5797,286.6424,1,0,1.5207,,0,13,13,49,1,non_cognate,1,REAL,FALSA
,,,,,,,,,664a04cfda51f0fe3594455a,001,2024-06-30_05h38.34.713,empathy_intonation_perc,2024.1.4,Linux x86_64,30.12048193,,,,,,,,,,,,,,83,hálito,,,,,,286.6436,288.5066,0,1,1.3189,,0,14,14,82,1,non_cognate,1,REAL,FALSA
,,,,,,,,,664a04cfda51f0fe3594455a,001,2024-06-30_05h38.34.713,empathy_intonation_perc,2024.1.4,Linux x86_64,30.12048193,,,,,,,,,,,,,,98,martir,,,,,,288.5073,290.788,0,1,1.7357,,0,15,15,97,1,pseudoword,0,REAL,FALSA
,,,,,,,,,664a04cfda51f0fe3594455a,001,2024-06-30_05h38.34.713,empathy_intonation_perc,2024.1.4,Linux x86_64,30.12048193,,,,,,,,,,,,,,68,puñal,,,,,,290.7893,292.9818,0,1,1.654,,0,16,16,67,1,non_cognate,1,REAL,FALSA
,,,,,,,,,664a04cfda51f0fe3594455a,001,2024-06-30_05h38.34.713,empathy_intonation_perc,2024.1.4,Linux x86_64,30.12048193,,,,,,,,,,,,,,120,mauja,,,,,,292.9831,294.6614,0,1,1.135,,0,17,17,119,1,pseudoword,0,REAL,FALSA
,,,,,,,,,664a04cfda51f0fe3594455a,001,2024-06-30_05h38.34.713,empathy_intonation_perc,2024.1.4,Linux x86_64,30.12048193,,,,,,,,,,,,,,17,clan,,,,,,294.6621,296.0956,1,0,0.8821,,0,18,18,16,1,three_way_cognate,1,REAL,FALSA
,,,,,,,,,664a04cfda51f0fe3594455a,001,2024-06-30_05h38.34.713,empathy_intonation_perc,2024.1.4,Linux x86_64,30.12048193,,,,,,,,,,,,,,147,alla,,,,,,296.0968,298.5215,1,0,1.8848,,0,19,19,146,1,pseudoword,0,REAL,FALSA
,,,,,,,,,664a04cfda51f0fe3594455a,001,2024-06-30_05h38.34.713,empathy_intonation_perc,2024.1.4,Linux x86_64,30.12048193,,,,,,,,,,,,,,46,mortal,,,,,,298.5224,300.0877,1,0,1.0227,,0,20,20,45,1,two_way_cognate,1,REAL,FALSA
,,,,,,,,,664a04cfda51f0fe3594455a,001,2024-06-30_05h38.34.713,empathy_intonation_perc,2024.1.4,Linux x86_64,30.12048193,,,,,,,,,,,,,,181,gravés,,,,,,300.0885,302.5154,1,0,1.8837,,0,21,21,180,1,pseudoword,0,REAL,FALSA
,,,,,,,,,664a04cfda51f0fe3594455a,001,2024-06-30_05h38.34.713,empathy_intonation_perc,2024.1.4,Linux x86_64,30.12048193,,,,,,,,,,,,,,37,torso,,,,,,302.5161,304.4289,1,0,1.3699,,0,22,22,36,1,two_way_cognate,1,REAL,FALSA
,,,,,,,,,664a04cfda51f0fe3594455a,001,2024-06-30_05h38.34.713,empathy_intonation_perc,2024.1.4,Linux x86_64,30.12048193,,,,,,,,,,,,,,32,animal,,,,,,304.4296,305.8763,1,0,0.8996,,0,23,23,31,1,two_way_cognate,1,REAL,FALSA
,,,,,,,,,664a04cfda51f0fe3594455a,001,2024-06-30_05h38.34.713,empathy_intonation_perc,2024.1.4,Linux x86_64,30.12048193,,,,,,,,,,,,,,91,equipo,,,,,,305.8769,309.8018,1,0,3.3841,,0,24,24,90,1,non_cognate,1,REAL,FALSA
,,,,,,,,,664a04cfda51f0fe3594455a,001,2024-06-30_05h38.34.713,empathy_intonation_perc,2024.1.4,Linux x86_64,30.12048193,,,,,,,,,,,,,,21,hotel,,,,,,309.8232,311.3904,1,0,1.0305,,0,25,25,20,1,three_way_cognate,1,REAL,FALSA
,,,,,,,,,664a04cfda51f0fe3594455a,001,2024-06-30_05h38.34.713,empathy_intonation_perc,2024.1.4,Linux x86_64,30.12048193,,,,,,,,,,,,,,117,morrá,,,,,,311.3915,313.0669,0,1,1.1372,,0,26,26,116,1,pseudoword,0,REAL,FALSA
,,,,,,,,,664a04cfda51f0fe3594455a,001,2024-06-30_05h38.34.713,empathy_intonation_perc,2024.1.4,Linux x86_64,30.12048193,,,,,,,,,,,,,,150,cricó,,,,,,313.068,315.3265,0,1,1.7242,,0,27,27,149,1,pseudoword,0,REAL,FALSA
,,,,,,,,,664a04cfda51f0fe3594455a,001,2024-06-30_05h38.34.713,empathy_intonation_perc,2024.1.4,Linux x86_64,30.12048193,,,,,,,,,,,,,,11,golf,,,,,,315.3472,316.6433,1,0,0.755,,0,28,28,10,1,three_way_cognate,1,REAL,FALSA
,,,,,,,,,664a04cfda51f0fe3594455a,001,2024-06-30_05h38.34.713,empathy_intonation_perc,2024.1.4,Linux x86_64,30.12048193,,,,,,,,,,,,,,135,panté,,,,,,316.6447,318.9556,1,0,1.7699,,0,29,29,134,1,pseudoword,0,REAL,FALSA
,,,,,,,,,664a04cfda51f0fe3594455a,001,2024-06-30_05h38.34.713,empathy_intonation_perc,2024.1.4,Linux x86_64,30.12048193,,,,,,,,,,,,,,38,halo,,,,,,318.9568,320.6668,1,0,1.1751,,0,30,30,37,1,two_way_cognate,1,REAL,FALSA
,,,,,,,,,664a04cfda51f0fe3594455a,001,2024-06-30_05h38.34.713,empathy_intonation_perc,2024.1.4,Linux x86_64,30.12048193,,,,,,,,,,,,,,145,rúo,,,,,,320.6678,322.4148,0,1,1.2059,,0,31,31,144,1,pseudoword,0,REAL,FALSA
,,,,,,,,,664a04cfda51f0fe3594455a,001,2024-06-30_05h38.34.713,empathy_intonation_perc,2024.1.4,Linux x86_64,30.12048193,,,,,,,,,,,,,,62,pegar,,,,,,322.4155,324.6765,0,1,1.7152,,0,32,32,61,1,non_cognate,1,REAL,FALSA
,,,,,,,,,664a04cfda51f0fe3594455a,001,2024-06-30_05h38.34.713,empathy_intonation_perc,2024.1.4,Linux x86_64,30.12048193,,,,,,,,,,,,,,2,tumor,,,,,,324.6773,326.4422,1,0,1.2256,,0,33,33,1,1,three_way_cognate,1,REAL,FALSA
,,,,,,,,,664a04cfda51f0fe3594455a,001,2024-06-30_05h38.34.713,empathy_intonation_perc,2024.1.4,Linux x86_64,30.12048193,,,,,,,,,,,,,,192,próces,,,,,,326.4428,328.6858,1,0,1.702,,0,34,34,191,1,pseudoword,0,REAL,FALSA
,,,,,,,,,664a04cfda51f0fe3594455a,001,2024-06-30_05h38.34.713,empathy_intonation_perc,2024.1.4,Linux x86_64,30.12048193,,,,,,,,,,,,,,170,diabo,,,,,,328.6865,330.7994,0,1,1.5702,,0,35,35,169,1,pseudoword,0,REAL,FALSA
,,,,,,,,,664a04cfda51f0fe3594455a,001,2024-06-30_05h38.34.713,empathy_intonation_perc,2024.1.4,Linux x86_64,30.12048193,,,,,,,,,,,,,,114,dibrea,,,,,,330.8,333.7306,0,1,2.3888,,0,36,36,113,1,pseudoword,0,REAL,FALSA
,,,,,,,,,664a04cfda51f0fe3594455a,001,2024-06-30_05h38.34.713,empathy_intonation_perc,2024.1.4,Linux x86_64,30.12048193,,,,,,,,,,,,,,108,jauda,,,,,,333.7514,335.0589,0,1,0.7756,,0,37,37,107,1,pseudoword,0,REAL,FALSA
,,,,,,,,,664a04cfda51f0fe3594455a,001,2024-06-30_05h38.34.713,empathy_intonation_perc,2024.1.4,Linux x86_64,30.12048193,,,,,,,,,,,,,,6,horror,,,,,,335.0608,336.4906,1,0,0.8865,,0,38,38,5,1,three_way_cognate,1,REAL,FALSA
,,,,,,,,,664a04cfda51f0fe3594455a,001,2024-06-30_05h38.34.713,empathy_intonation_perc,2024.1.4,Linux x86_64,30.12048193,,,,,,,,,,,,,,39,casual,,,,,,336.4918,337.8375,1,0,0.8063,,0,39,39,38,1,two_way_cognate,1,REAL,FALSA
,,,,,,,,,664a04cfda51f0fe3594455a,001,2024-06-30_05h38.34.713,empathy_intonation_perc,2024.1.4,Linux x86_64,30.12048193,,,,,,,,,,,,,,16,chat,,,,,,337.8382,341.5025,1,0,3.1364,,0,40,40,15,1,three_way_cognate,1,REAL,FALSA
,,,,,,,,,664a04cfda51f0fe3594455a,001,2024-06-30_05h38.34.713,empathy_intonation_perc,2024.1.4,Linux x86_64,30.12048193,,,,,,,,,,,,,,74,ala,,,,,,341.5285,343.1615,1,0,1.1078,,0,41,41,73,1,non_cognate,1,REAL,FALSA
,,,,,,,,,664a04cfda51f0fe3594455a,001,2024-06-30_05h38.34.713,empathy_intonation_perc,2024.1.4,Linux x86_64,30.12048193,,,,,,,,,,,,,,184,huenos,,,,,,343.1623,345.2106,0,1,1.5087,,0,42,42,183,1,pseudoword,0,REAL,FALSA
,,,,,,,,,664a04cfda51f0fe3594455a,001,2024-06-30_05h38.34.713,empathy_intonation_perc,2024.1.4,Linux x86_64,30.12048193,,,,,,,,,,,,,,110,densó,,,,,,345.2116,347.0288,0,1,1.2781,,0,43,43,109,1,pseudoword,0,REAL,FALSA
,,,,,,,,,664a04cfda51f0fe3594455a,001,2024-06-30_05h38.34.713,empathy_intonation_perc,2024.1.4,Linux x86_64,30.12048193,,,,,,,,,,,,,,66,aleta,,,,,,347.0295,348.5872,0,1,1.0237,,0,44,44,65,1,non_cognate,1,REAL,FALSA
,,,,,,,,,664a04cfda51f0fe3594455a,001,2024-06-30_05h38.34.713,empathy_intonation_perc,2024.1.4,Linux x86_64,30.12048193,,,,,,,,,,,,,,15,test,,,,,,348.5883,349.8836,1,0,0.7566,,0,45,45,14,1,three_way_cognate,1,REAL,FALSA
,,,,,,,,,664a04cfda51f0fe3594455a,001,2024-06-30_05h38.34.713,empathy_intonation_perc,2024.1.4,Linux x86_64,30.12048193,,,,,,,,,,,,,,53,punta,,,,,,349.8863,351.8652,1,0,1.4391,,0,46,46,52,1,non_cognate,1,REAL,FALSA
,,,,,,,,,664a04cfda51f0fe3594455a,001,2024-06-30_05h38.34.713,empathy_intonation_perc,2024.1.4,Linux x86_64,30.12048193,,,,,,,,,,,,,,44,editor,,,,,,351.8663,353.2138,1,0,0.8043,,0,47,47,43,1,two_way_cognate,1,REAL,FALSA
,,,,,,,,,664a04cfda51f0fe3594455a,001,2024-06-30_05h38.34.713,empathy_intonation_perc,2024.1.4,Linux x86_64,30.12048193,,,,,,,,,,,,,,33,collar,,,,,,353.2145,354.659,1,0,0.9048,,0,48,48,32,1,two_way_cognate,1,REAL,FALSA
,,,,,,,,,664a04cfda51f0fe3594455a,001,2024-06-30_05h38.34.713,empathy_intonation_perc,2024.1.4,Linux x86_64,30.12048193,,,,,,,,,,,,,,47,color,,,,,,354.6597,355.8392,1,0,0.6378,,0,49,49,46,1,two_way_cognate,1,REAL,FALSA
,,,,,,,,,664a04cfda51f0fe3594455a,001,2024-06-30_05h38.34.713,empathy_intonation_perc,2024.1.4,Linux x86_64,30.12048193,,,,,,,,,,,,,,5,extra,,,,,,355.8403,357.0541,1,0,0.6701,,0,50,50,4,1,three_way_cognate,1,REAL,FALSA
,,,,,,,,,664a04cfda51f0fe3594455a,001,2024-06-30_05h38.34.713,empathy_intonation_perc,2024.1.4,Linux x86_64,30.12048193,,,,,,,,,,,,,,67,llamar,,,,,,357.0551,359.117,1,0,1.5193,,0,51,51,66,1,non_cognate,1,REAL,FALSA
,,,,,,,,,664a04cfda51f0fe3594455a,001,2024-06-30_05h38.34.713,empathy_intonation_perc,2024.1.4,Linux x86_64,30.12048193,,,,,,,,,,,,,,126,tobre,,,,,,359.1177,361.1907,1,0,1.5322,,0,52,52,125,1,pseudoword,0,REAL,FALSA
,,,,,,,,,664a04cfda51f0fe3594455a,001,2024-06-30_05h38.34.713,empathy_intonation_perc,2024.1.4,Linux x86_64,30.12048193,,,,,,,,,,,,,,171,gotro,,,,,,361.1921,362.5398,0,1,0.8197,,0,53,53,170,1,pseudoword,0,REAL,FALSA
,,,,,,,,,664a04cfda51f0fe3594455a,001,2024-06-30_05h38.34.713,empathy_intonation_perc,2024.1.4,Linux x86_64,30.12048193,,,,,,,,,,,,,,24,retina,,,,,,362.5423,364.1423,1,0,1.0739,,0,54,54,23,1,three_way_cognate,1,REAL,FALSA
,,,,,,,,,664a04cfda51f0fe3594455a,001,2024-06-30_05h38.34.713,empathy_intonation_perc,2024.1.4,Linux x86_64,30.12048193,,,,,,,,,,,,,,27,piano,,,,,,364.1435,365.407,1,0,0.7183,,0,55,55,26,1,two_way_cognate,1,REAL,FALSA
,,,,,,,,,664a04cfda51f0fe3594455a,001,2024-06-30_05h38.34.713,empathy_intonation_perc,2024.1.4,Linux x86_64,30.12048193,,,,,,,,,,,,,,61,aduana,,,,,,365.4081,367.3043,0,1,1.3536,,0,56,56,60,1,non_cognate,1,REAL,FALSA
,,,,,,,,,664a04cfda51f0fe3594455a,001,2024-06-30_05h38.34.713,empathy_intonation_perc,2024.1.4,Linux x86_64,30.12048193,,,,,,,,,,,,,,121,barbs,,,,,,367.305,368.767,1,0,0.9184,,0,57,57,120,1,pseudoword,0,REAL,FALSA
,,,,,,,,,664a04cfda51f0fe3594455a,001,2024-06-30_05h38.34.713,empathy_intonation_perc,2024.1.4,Linux x86_64,30.12048193,,,,,,,,,,,,,,107,plago,,,,,,368.7685,370.3329,0,1,1.02,,0,58,58,106,1,pseudoword,0,REAL,FALSA
,,,,,,,,,664a04cfda51f0fe3594455a,001,2024-06-30_05h38.34.713,empathy_intonation_perc,2024.1.4,Linux x86_64,30.12048193,,,,,,,,,,,,,,174,pabea,,,,,,370.3345,371.9037,0,1,1.0298,,0,59,59,173,1,pseudoword,0,REAL,FALSA
,,,,,,,,,664a04cfda51f0fe3594455a,001,2024-06-30_05h38.34.713,empathy_intonation_perc,2024.1.4,Linux x86_64,30.12048193,,,,,,,,,,,,,,14,aura,,,,,,371.9049,373.5104,1,0,1.071,,0,60,60,13,1,three_way_cognate,1,REAL,FALSA
,,,,,,,,,664a04cfda51f0fe3594455a,001,2024-06-30_05h38.34.713,empathy_intonation_perc,2024.1.4,Linux x86_64,30.12048193,,,,,,,,,,,,,,111,monue,,,,,,373.5113,375.0571,0,1,1.0072,,0,61,61,110,1,pseudoword,0,REAL,FALSA
,,,,,,,,,664a04cfda51f0fe3594455a,001,2024-06-30_05h38.34.713,empathy_intonation_perc,2024.1.4,Linux x86_64,30.12048193,,,,,,,,,,,,,,148,gino,,,,,,375.0585,376.4738,0,1,0.8762,,0,62,62,147,1,pseudoword,0,REAL,FALSA
,,,,,,,,,664a04cfda51f0fe3594455a,001,2024-06-30_05h38.34.713,empathy_intonation_perc,2024.1.4,Linux x86_64,30.12048193,,,,,,,,,,,,,,63,hilo,,,,,,376.4751,377.8682,0,1,0.857,,0,63,63,62,1,non_cognate,1,REAL,FALSA
,,,,,,,,,664a04cfda51f0fe3594455a,001,2024-06-30_05h38.34.713,empathy_intonation_perc,2024.1.4,Linux x86_64,30.12048193,,,,,,,,,,,,,,106,diebro,,,,,,377.8689,379.2525,0,1,0.8416,,0,64,64,105,1,pseudoword,0,REAL,FALSA
,,,,,,,,,664a04cfda51f0fe3594455a,001,2024-06-30_05h38.34.713,empathy_intonation_perc,2024.1.4,Linux x86_64,30.12048193,,,,,,,,,,,,,,131,fuar,,,,,,379.2539,380.5628,0,1,0.7637,,0,65,65,130,1,pseudoword,0,REAL,FALSA
,,,,,,,,,664a04cfda51f0fe3594455a,001,2024-06-30_05h38.34.713,empathy_intonation_perc,2024.1.4,Linux x86_64,30.12048193,,,,,,,,,,,,,,45,total,,,,,,380.5635,381.915,1,0,0.8098,,0,66,66,44,1,two_way_cognate,1,REAL,FALSA
,,,,,,,,,664a04cfda51f0fe3594455a,001,2024-06-30_05h38.34.713,empathy_intonation_perc,2024.1.4,Linux x86_64,30.12048193,,,,,,,,,,,,,,71,torta,,,,,,381.9162,383.6939,1,0,1.2414,,0,67,67,70,1,non_cognate,1,REAL,FALSA
,,,,,,,,,664a04cfda51f0fe3594455a,001,2024-06-30_05h38.34.713,empathy_intonation_perc,2024.1.4,Linux x86_64,30.12048193,,,,,,,,,,,,,,162,cengo,,,,,,383.6952,386.6024,0,1,2.3657,,0,68,68,161,1,pseudoword,0,REAL,FALSA
,,,,,,,,,664a04cfda51f0fe3594455a,001,2024-06-30_05h38.34.713,empathy_intonation_perc,2024.1.4,Linux x86_64,30.12048193,,,,,,,,,,,,,,127,vien,,,,,,386.606,388.0681,1,0,0.9237,,0,69,69,126,1,pseudoword,0,REAL,FALSA
,,,,,,,,,664a04cfda51f0fe3594455a,001,2024-06-30_05h38.34.713,empathy_intonation_perc,2024.1.4,Linux x86_64,30.12048193,,,,,,,,,,,,,,158,babrá,,,,,,388.0708,389.7833,0,1,1.1748,,0,70,70,157,1,pseudoword,0,REAL,FALSA
,,,,,,,,,664a04cfda51f0fe3594455a,001,2024-06-30_05h38.34.713,empathy_intonation_perc,2024.1.4,Linux x86_64,30.12048193,,,,,,,,,,,,,,23,plural,,,,,,389.784,391.2004,1,0,0.8751,,0,71,71,22,1,three_way_cognate,1,REAL,FALSA
,,,,,,,,,664a04cfda51f0fe3594455a,001,2024-06-30_05h38.34.713,empathy_intonation_perc,2024.1.4,Linux x86_64,30.12048193,,,,,,,,,,,,,,20,trauma,,,,,,391.2026,392.5757,1,0,0.823,,0,72,72,19,1,three_way_cognate,1,REAL,FALSA
,,,,,,,,,664a04cfda51f0fe3594455a,001,2024-06-30_05h38.34.713,empathy_intonation_perc,2024.1.4,Linux x86_64,30.12048193,,,,,,,,,,,,,,49,teñir,,,,,,392.5764,394.2302,0,1,1.1125,,0,73,73,48,1,non_cognate,1,REAL,FALSA
,,,,,,,,,664a04cfda51f0fe3594455a,001,2024-06-30_05h38.34.713,empathy_intonation_perc,2024.1.4,Linux x86_64,30.12048193,,,,,,,,,,,,,,113,nasce,,,,,,394.2313,395.7371,1,0,0.9678,,0,74,74,112,1,pseudoword,0,REAL,FALSA
,,,,,,,,,664a04cfda51f0fe3594455a,001,2024-06-30_05h38.34.713,empathy_intonation_perc,2024.1.4,Linux x86_64,30.12048193,,,,,,,,,,,,,,87,muleta,,,,,,395.7379,397.3514,0,1,1.0888,,0,75,75,86,1,non_cognate,1,REAL,FALSA
,,,,,,,,,664a04cfda51f0fe3594455a,001,2024-06-30_05h38.34.713,empathy_intonation_perc,2024.1.4,Linux x86_64,30.12048193,,,,,,,,,,,,,,70,ánimo,,,,,,397.3521,399.0829,0,1,1.1935,,0,76,76,69,1,non_cognate,1,REAL,FALSA
,,,,,,,,,664a04cfda51f0fe3594455a,001,2024-06-30_05h38.34.713,empathy_intonation_perc,2024.1.4,Linux x86_64,30.12048193,,,,,,,,,,,,,,94,forro,,,,,,399.0839,401.1037,0,1,1.4775,,0,77,77,93,1,non_cognate,1,REAL,FALSA
,,,,,,,,,664a04cfda51f0fe3594455a,001,2024-06-30_05h38.34.713,empathy_intonation_perc,2024.1.4,Linux x86_64,30.12048193,,,,,,,,,,,,,,100,épinas,,,,,,401.105,402.4109,0,1,0.7745,,0,78,78,99,1,pseudoword,0,REAL,FALSA
,,,,,,,,,664a04cfda51f0fe3594455a,001,2024-06-30_05h38.34.713,empathy_intonation_perc,2024.1.4,Linux x86_64,30.12048193,,,,,,,,,,,,,,9,portal,,,,,,402.4126,403.8397,1,0,0.8801,,0,79,79,8,1,three_way_cognate,1,REAL,FALSA
,,,,,,,,,664a04cfda51f0fe3594455a,001,2024-06-30_05h38.34.713,empathy_intonation_perc,2024.1.4,Linux x86_64,30.12048193,,,,,,,,,,,,,,13,plan,,,,,,403.8404,405.0884,1,0,0.706,,0,80,80,12,1,three_way_cognate,1,REAL,FALSA
,,,,,,,,,664a04cfda51f0fe3594455a,001,2024-06-30_05h38.34.713,empathy_intonation_perc,2024.1.4,Linux x86_64,30.12048193,,,,,,,,,,,,,,3,disco,,,,,,405.0896,406.3848,1,0,0.7519,,0,81,81,2,1,three_way_cognate,1,REAL,FALSA
,,,,,,,,,664a04cfda51f0fe3594455a,001,2024-06-30_05h38.34.713,empathy_intonation_perc,2024.1.4,Linux x86_64,30.12048193,,,,,,,,,,,,,,175,tradía,,,,,,406.3854,407.9202,0,1,0.9911,,0,82,82,174,1,pseudoword,0,REAL,FALSA
,,,,,,,,,664a04cfda51f0fe3594455a,001,2024-06-30_05h38.34.713,empathy_intonation_perc,2024.1.4,Linux x86_64,30.12048193,,,,,,,,,,,,,,178,inichó,,,,,,407.9208,409.5132,0,1,1.0547,,0,83,83,177,1,pseudoword,0,REAL,FALSA
,,,,,,,,,664a04cfda51f0fe3594455a,001,2024-06-30_05h38.34.713,empathy_intonation_perc,2024.1.4,Linux x86_64,30.12048193,,,,,,,,,,,,,,118,bará,,,,,,409.515,411.6759,1,0,1.6188,,0,84,84,117,1,pseudoword,0,REAL,FALSA
,,,,,,,,,664a04cfda51f0fe3594455a,001,2024-06-30_05h38.34.713,empathy_intonation_perc,2024.1.4,Linux x86_64,30.12048193,,,,,,,,,,,,,,115,lidena,,,,,,411.6766,413.007,0,1,0.7867,,0,85,85,114,1,pseudoword,0,REAL,FALSA
,,,,,,,,,664a04cfda51f0fe3594455a,001,2024-06-30_05h38.34.713,empathy_intonation_perc,2024.1.4,Linux x86_64,30.12048193,,,,,,,,,,,,,,140,chorde,,,,,,413.0077,414.69,1,0,1.1413,,0,86,86,139,1,pseudoword,0,REAL,FALSA
,,,,,,,,,664a04cfda51f0fe3594455a,001,2024-06-30_05h38.34.713,empathy_intonation_perc,2024.1.4,Linux x86_64,30.12048193,,,,,,,,,,,,,,92,flecha,,,,,,414.6918,415.9397,0,1,0.71,,0,87,87,91,1,non_cognate,1,REAL,FALSA
,,,,,,,,,664a04cfda51f0fe3594455a,001,2024-06-30_05h38.34.713,empathy_intonation_perc,2024.1.4,Linux x86_64,30.12048193,,,,,,,,,,,,,,82,brillo,,,,,,415.9403,417.4513,1,0,0.9753,,0,88,88,81,1,non_cognate,1,REAL,FALSA
,,,,,,,,,664a04cfda51f0fe3594455a,001,2024-06-30_05h38.34.713,empathy_intonation_perc,2024.1.4,Linux x86_64,30.12048193,,,,,,,,,,,,,,30,fiscal,,,,,,417.4522,418.7007,1,0,0.7046,,0,89,89,29,1,two_way_cognate,1,REAL,FALSA
,,,,,,,,,664a04cfda51f0fe3594455a,001,2024-06-30_05h38.34.713,empathy_intonation_perc,2024.1.4,Linux x86_64,30.12048193,,,,,,,,,,,,,,160,fomeó,,,,,,418.7018,420.2613,0,1,1.0202,,0,90,90,159,1,pseudoword,0,REAL,FALSA
,,,,,,,,,664a04cfda51f0fe3594455a,001,2024-06-30_05h38.34.713,empathy_intonation_perc,2024.1.4,Linux x86_64,30.12048193,,,,,,,,,,,,,,172,dogue,,,,,,420.2624,421.7586,1,0,0.9561,,0,91,91,171,1,pseudoword,0,REAL,FALSA
,,,,,,,,,664a04cfda51f0fe3594455a,001,2024-06-30_05h38.34.713,empathy_intonation_perc,2024.1.4,Linux x86_64,30.12048193,,,,,,,,,,,,,,105,leniz,,,,,,421.7592,423.3555,0,1,1.0714,,0,92,92,104,1,pseudoword,0,REAL,FALSA
,,,,,,,,,664a04cfda51f0fe3594455a,001,2024-06-30_05h38.34.713,empathy_intonation_perc,2024.1.4,Linux x86_64,30.12048193,,,,,,,,,,,,,,4,flora,,,,,,423.3562,424.8863,1,0,0.9881,,0,93,93,3,1,three_way_cognate,1,REAL,FALSA
,,,,,,,,,664a04cfda51f0fe3594455a,001,2024-06-30_05h38.34.713,empathy_intonation_perc,2024.1.4,Linux x86_64,30.12048193,,,,,,,,,,,,,,188,amplir,,,,,,424.8869,426.3005,0,1,0.884,,0,94,94,187,1,pseudoword,0,REAL,FALSA
,,,,,,,,,664a04cfda51f0fe3594455a,001,2024-06-30_05h38.34.713,empathy_intonation_perc,2024.1.4,Linux x86_64,30.12048193,,,,,,,,,,,,,,112,samón,,,,,,426.3012,427.8817,0,1,1.0387,,0,95,95,111,1,pseudoword,0,REAL,FALSA
,,,,,,,,,664a04cfda51f0fe3594455a,001,2024-06-30_05h38.34.713,empathy_intonation_perc,2024.1.4,Linux x86_64,30.12048193,,,,,,,,,,,,,,73,llevar,,,,,,427.8828,429.4152,1,0,0.9874,,0,96,96,72,1,non_cognate,1,REAL,FALSA
,,,,,,,,,664a04cfda51f0fe3594455a,001,2024-06-30_05h38.34.713,empathy_intonation_perc,2024.1.4,Linux x86_64,30.12048193,,,,,,,,,,,,,,48,pelvis,,,,,,429.4165,430.794,1,0,0.8409,,0,97,97,47,1,two_way_cognate,1,REAL,FALSA
,,,,,,,,,664a04cfda51f0fe3594455a,001,2024-06-30_05h38.34.713,empathy_intonation_perc,2024.1.4,Linux x86_64,30.12048193,,,,,,,,,,,,,,123,arane,,,,,,430.7947,432.341,0,1,1.0038,,0,98,98,122,1,pseudoword,0,REAL,FALSA
,,,,,,,,,664a04cfda51f0fe3594455a,001,2024-06-30_05h38.34.713,empathy_intonation_perc,2024.1.4,Linux x86_64,30.12048193,,,,,,,,,,,,,,190,asumie,,,,,,432.3432,433.9055,0,1,1.0216,,0,99,99,189,1,pseudoword,0,REAL,FALSA
,,,,,,,,,664a04cfda51f0fe3594455a,001,2024-06-30_05h38.34.713,empathy_intonation_perc,2024.1.4,Linux x86_64,30.12048193,,,,,,,,,,,,,,35,aurora,,,,,,433.9061,435.3519,1,0,0.9035,,0,100,100,34,1,two_way_cognate,1,REAL,FALSA
,,,,,,,,,664a04cfda51f0fe3594455a,001,2024-06-30_05h38.34.713,empathy_intonation_perc,2024.1.4,Linux x86_64,30.12048193,,,,,,,,,,,,,,84,aviso,,,,,,435.3525,437.1481,1,0,1.2494,,0,101,101,83,1,non_cognate,1,REAL,FALSA
,,,,,,,,,664a04cfda51f0fe3594455a,001,2024-06-30_05h38.34.713,empathy_intonation_perc,2024.1.4,Linux x86_64,30.12048193,,,,,,,,,,,,,,185,aljizo,,,,,,437.1488,438.6635,0,1,0.9842,,0,102,102,184,1,pseudoword,0,REAL,FALSA
,,,,,,,,,664a04cfda51f0fe3594455a,001,2024-06-30_05h38.34.713,empathy_intonation_perc,2024.1.4,Linux x86_64,30.12048193,,,,,,,,,,,,,,180,pupica,,,,,,438.6643,441.4084,0,1,2.2002,,0,103,103,179,1,pseudoword,0,REAL,FALSA
,,,,,,,,,664a04cfda51f0fe3594455a,001,2024-06-30_05h38.34.713,empathy_intonation_perc,2024.1.4,Linux x86_64,30.12048193,,,,,,,,,,,,,,75,patada,,,,,,441.409,443.0399,0,1,1.1055,,0,104,104,74,1,non_cognate,1,REAL,FALSA
,,,,,,,,,664a04cfda51f0fe3594455a,001,2024-06-30_05h38.34.713,empathy_intonation_perc,2024.1.4,Linux x86_64,30.12048193,,,,,,,,,,,,,,133,conso,,,,,,443.0407,444.7186,0,1,1.1346,,0,105,105,132,1,pseudoword,0,REAL,FALSA
,,,,,,,,,664a04cfda51f0fe3594455a,001,2024-06-30_05h38.34.713,empathy_intonation_perc,2024.1.4,Linux x86_64,30.12048193,,,,,,,,,,,,,,79,suelo,,,,,,444.7194,445.9563,0,1,0.6959,,0,106,106,78,1,non_cognate,1,REAL,FALSA
,,,,,,,,,664a04cfda51f0fe3594455a,001,2024-06-30_05h38.34.713,empathy_intonation_perc,2024.1.4,Linux x86_64,30.12048193,,,,,,,,,,,,,,191,frasis,,,,,,445.957,447.3306,0,1,0.8378,,0,107,107,190,1,pseudoword,0,REAL,FALSA
,,,,,,,,,664a04cfda51f0fe3594455a,001,2024-06-30_05h38.34.713,empathy_intonation_perc,2024.1.4,Linux x86_64,30.12048193,,,,,,,,,,,,,,144,diroco,,,,,,447.3313,448.7285,0,1,0.8529,,0,108,108,143,1,pseudoword,0,REAL,FALSA
,,,,,,,,,664a04cfda51f0fe3594455a,001,2024-06-30_05h38.34.713,empathy_intonation_perc,2024.1.4,Linux x86_64,30.12048193,,,,,,,,,,,,,,187,nomata,,,,,,448.7292,450.0596,0,1,0.7889,,0,109,109,186,1,pseudoword,0,REAL,FALSA
,,,,,,,,,664a04cfda51f0fe3594455a,001,2024-06-30_05h38.34.713,empathy_intonation_perc,2024.1.4,Linux x86_64,30.12048193,,,,,,,,,,,,,,97,nocita,,,,,,450.0605,451.374,0,1,0.7703,,0,110,110,96,1,pseudoword,0,REAL,FALSA
,,,,,,,,,664a04cfda51f0fe3594455a,001,2024-06-30_05h38.34.713,empathy_intonation_perc,2024.1.4,Linux x86_64,30.12048193,,,,,,,,,,,,,,156,ozoso,,,,,,451.3746,452.8789,1,0,0.9455,,0,111,111,155,1,pseudoword,0,REAL,FALSA
,,,,,,,,,664a04cfda51f0fe3594455a,001,2024-06-30_05h38.34.713,empathy_intonation_perc,2024.1.4,Linux x86_64,30.12048193,,,,,,,,,,,,,,125,ceme,,,,,,452.88,454.3363,0,1,0.925,,0,112,112,124,1,pseudoword,0,REAL,FALSA
,,,,,,,,,664a04cfda51f0fe3594455a,001,2024-06-30_05h38.34.713,empathy_intonation_perc,2024.1.4,Linux x86_64,30.12048193,,,,,,,,,,,,,,101,losco,,,,,,454.3376,455.7166,0,1,0.8354,,0,113,113,100,1,pseudoword,0,REAL,FALSA
,,,,,,,,,664a04cfda51f0fe3594455a,001,2024-06-30_05h38.34.713,empathy_intonation_perc,2024.1.4,Linux x86_64,30.12048193,,,,,,,,,,,,,,28,ardor,,,,,,455.7179,457.5081,1,0,1.2499,,0,114,114,27,1,two_way_cognate,1,REAL,FALSA
,,,,,,,,,664a04cfda51f0fe3594455a,001,2024-06-30_05h38.34.713,empathy_intonation_perc,2024.1.4,Linux x86_64,30.12048193,,,,,,,,,,,,,,78,rendir,,,,,,457.5088,458.9796,0,1,0.9337,,0,115,115,77,1,non_cognate,1,REAL,FALSA
,,,,,,,,,664a04cfda51f0fe3594455a,001,2024-06-30_05h38.34.713,empathy_intonation_perc,2024.1.4,Linux x86_64,30.12048193,,,,,,,,,,,,,,141,virios,,,,,,458.9809,460.4512,0,1,0.9222,,0,116,116,140,1,pseudoword,0,REAL,FALSA
,,,,,,,,,664a04cfda51f0fe3594455a,001,2024-06-30_05h38.34.713,empathy_intonation_perc,2024.1.4,Linux x86_64,30.12048193,,,,,,,,,,,,,,69,tiza,,,,,,460.4519,461.9729,0,1,0.9901,,0,117,117,68,1,non_cognate,1,REAL,FALSA
,,,,,,,,,664a04cfda51f0fe3594455a,001,2024-06-30_05h38.34.713,empathy_intonation_perc,2024.1.4,Linux x86_64,30.12048193,,,,,,,,,,,,,,149,emén,,,,,,461.9739,463.4238,0,1,0.9064,,0,118,118,148,1,pseudoword,0,REAL,FALSA
,,,,,,,,,664a04cfda51f0fe3594455a,001,2024-06-30_05h38.34.713,empathy_intonation_perc,2024.1.4,Linux x86_64,30.12048193,,,,,,,,,,,,,,58,colcha,,,,,,463.4246,464.7846,0,1,0.8213,,0,119,119,57,1,non_cognate,1,REAL,FALSA
,,,,,,,,,664a04cfda51f0fe3594455a,001,2024-06-30_05h38.34.713,empathy_intonation_perc,2024.1.4,Linux x86_64,30.12048193,,,,,,,,,,,,,,57,regalo,,,,,,464.7853,466.2318,1,0,0.902,,0,120,120,56,1,non_cognate,1,REAL,FALSA
,,,,,,,,,664a04cfda51f0fe3594455a,001,2024-06-30_05h38.34.713,empathy_intonation_perc,2024.1.4,Linux x86_64,30.12048193,,,,,,,,,,,,,,93,tapa,,,,,,466.2328,468.4116,1,0,1.6363,,0,121,121,92,1,non_cognate,1,REAL,FALSA
,,,,,,,,,664a04cfda51f0fe3594455a,001,2024-06-30_05h38.34.713,empathy_intonation_perc,2024.1.4,Linux x86_64,30.12048193,,,,,,,,,,,,,,8,kilo,,,,,,468.4122,469.809,1,0,0.8628,,0,122,122,7,1,three_way_cognate,1,REAL,FALSA
,,,,,,,,,664a04cfda51f0fe3594455a,001,2024-06-30_05h38.34.713,empathy_intonation_perc,2024.1.4,Linux x86_64,30.12048193,,,,,,,,,,,,,,173,mibro,,,,,,469.8096,471.8261,0,1,1.4771,,0,123,123,172,1,pseudoword,0,REAL,FALSA
,,,,,,,,,664a04cfda51f0fe3594455a,001,2024-06-30_05h38.34.713,empathy_intonation_perc,2024.1.4,Linux x86_64,30.12048193,,,,,,,,,,,,,,183,edioso,,,,,,471.8268,473.6563,0,1,1.2904,,0,124,124,182,1,pseudoword,0,REAL,FALSA
,,,,,,,,,664a04cfda51f0fe3594455a,001,2024-06-30_05h38.34.713,empathy_intonation_perc,2024.1.4,Linux x86_64,30.12048193,,,,,,,,,,,,,,167,dobbo,,,,,,473.657,476.422,0,1,2.2297,,0,125,125,166,1,pseudoword,0,REAL,FALSA
,,,,,,,,,664a04cfda51f0fe3594455a,001,2024-06-30_05h38.34.713,empathy_intonation_perc,2024.1.4,Linux x86_64,30.12048193,,,,,,,,,,,,,,154,harvé,,,,,,476.4496,477.8616,0,1,0.8716,,0,126,126,153,1,pseudoword,0,REAL,FALSA
,,,,,,,,,664a04cfda51f0fe3594455a,001,2024-06-30_05h38.34.713,empathy_intonation_perc,2024.1.4,Linux x86_64,30.12048193,,,,,,,,,,,,,,34,actor,,,,,,477.8627,479.1091,1,0,0.7057,,0,127,127,33,1,two_way_cognate,1,REAL,FALSA
,,,,,,,,,664a04cfda51f0fe3594455a,001,2024-06-30_05h38.34.713,empathy_intonation_perc,2024.1.4,Linux x86_64,30.12048193,,,,,,,,,,,,,,179,suelet,,,,,,479.1108,480.4858,0,1,0.8345,,0,128,128,178,1,pseudoword,0,REAL,FALSA
,,,,,,,,,664a04cfda51f0fe3594455a,001,2024-06-30_05h38.34.713,empathy_intonation_perc,2024.1.4,Linux x86_64,30.12048193,,,,,,,,,,,,,,96,caro,,,,,,480.4864,483.1055,0,1,2.0912,,0,129,129,95,1,non_cognate,1,REAL,FALSA
,,,,,,,,,664a04cfda51f0fe3594455a,001,2024-06-30_05h38.34.713,empathy_intonation_perc,2024.1.4,Linux x86_64,30.12048193,,,,,,,,,,,,,,77,suave,,,,,,483.1068,484.5511,1,0,0.9069,,0,130,130,76,1,non_cognate,1,REAL,FALSA
,,,,,,,,,664a04cfda51f0fe3594455a,001,2024-06-30_05h38.34.713,empathy_intonation_perc,2024.1.4,Linux x86_64,30.12048193,,,,,,,,,,,,,,189,medium,,,,,,484.5524,485.8654,1,0,0.7751,,0,131,131,188,1,pseudoword,0,REAL,FALSA
,,,,,,,,,664a04cfda51f0fe3594455a,001,2024-06-30_05h38.34.713,empathy_intonation_perc,2024.1.4,Linux x86_64,30.12048193,,,,,,,,,,,,,,124,lobe,,,,,,485.8662,487.4297,1,0,1.0219,,0,132,132,123,1,pseudoword,0,REAL,FALSA
,,,,,,,,,664a04cfda51f0fe3594455a,001,2024-06-30_05h38.34.713,empathy_intonation_perc,2024.1.4,Linux x86_64,30.12048193,,,,,,,,,,,,,,56,pico,,,,,,487.4304,488.9308,1,0,0.9593,,0,133,133,55,1,non_cognate,1,REAL,FALSA
,,,,,,,,,664a04cfda51f0fe3594455a,001,2024-06-30_05h38.34.713,empathy_intonation_perc,2024.1.4,Linux x86_64,30.12048193,,,,,,,,,,,,,,103,vueras,,,,,,488.9319,490.674,1,0,1.2051,,0,134,134,102,1,pseudoword,0,REAL,FALSA
,,,,,,,,,664a04cfda51f0fe3594455a,001,2024-06-30_05h38.34.713,empathy_intonation_perc,2024.1.4,Linux x86_64,30.12048193,,,,,,,,,,,,,,104,estulo,,,,,,490.6747,492.7855,0,1,1.5733,,0,135,135,103,1,pseudoword,0,REAL,FALSA
,,,,,,,,,664a04cfda51f0fe3594455a,001,2024-06-30_05h38.34.713,empathy_intonation_perc,2024.1.4,Linux x86_64,30.12048193,,,,,,,,,,,,,,137,trugo,,,,,,492.7863,494.4355,0,1,1.1023,,0,136,136,136,1,pseudoword,0,REAL,FALSA
,,,,,,,,,664a04cfda51f0fe3594455a,001,2024-06-30_05h38.34.713,empathy_intonation_perc,2024.1.4,Linux x86_64,30.12048193,,,,,,,,,,,,,,29,clamor,,,,,,494.4366,495.7138,0,1,0.7412,,0,137,137,28,1,two_way_cognate,1,REAL,FALSA
,,,,,,,,,664a04cfda51f0fe3594455a,001,2024-06-30_05h38.34.713,empathy_intonation_perc,2024.1.4,Linux x86_64,30.12048193,,,,,,,,,,,,,,60,siglo,,,,,,495.7145,497.2445,0,1,0.9859,,0,138,138,59,1,non_cognate,1,REAL,FALSA
,,,,,,,,,664a04cfda51f0fe3594455a,001,2024-06-30_05h38.34.713,empathy_intonation_perc,2024.1.4,Linux x86_64,30.12048193,,,,,,,,,,,,,,168,cobén,,,,,,497.2451,499.1303,0,1,1.3414,,0,139,139,167,1,pseudoword,0,REAL,FALSA
,,,,,,,,,664a04cfda51f0fe3594455a,001,2024-06-30_05h38.34.713,empathy_intonation_perc,2024.1.4,Linux x86_64,30.12048193,,,,,,,,,,,,,,54,tapón,,,,,,499.1314,500.5474,0,1,0.8796,,0,140,140,53,1,non_cognate,1,REAL,FALSA
,,,,,,,,,664a04cfda51f0fe3594455a,001,2024-06-30_05h38.34.713,empathy_intonation_perc,2024.1.4,Linux x86_64,30.12048193,,,,,,,,,,,,,,136,hueas,,,,,,500.5481,501.981,0,1,0.8829,,0,141,141,135,1,pseudoword,0,REAL,FALSA
,,,,,,,,,664a04cfda51f0fe3594455a,001,2024-06-30_05h38.34.713,empathy_intonation_perc,2024.1.4,Linux x86_64,30.12048193,,,,,,,,,,,,,,164,tecia,,,,,,501.982,503.2508,0,1,0.7388,,0,142,142,163,1,pseudoword,0,REAL,FALSA
,,,,,,,,,664a04cfda51f0fe3594455a,001,2024-06-30_05h38.34.713,empathy_intonation_perc,2024.1.4,Linux x86_64,30.12048193,,,,,,,,,,,,,,129,vinzó,,,,,,503.2514,504.4326,0,1,0.6364,,0,143,143,128,1,pseudoword,0,REAL,FALSA
,,,,,,,,,664a04cfda51f0fe3594455a,001,2024-06-30_05h38.34.713,empathy_intonation_perc,2024.1.4,Linux x86_64,30.12048193,,,,,,,,,,,,,,119,esís,,,,,,504.4336,505.6635,0,1,0.6877,,0,144,144,118,1,pseudoword,0,REAL,FALSA
,,,,,,,,,664a04cfda51f0fe3594455a,001,2024-06-30_05h38.34.713,empathy_intonation_perc,2024.1.4,Linux x86_64,30.12048193,,,,,,,,,,,,,,169,pitis,,,,,,505.6643,506.9974,0,1,0.7927,,0,145,145,168,1,pseudoword,0,REAL,FALSA
,,,,,,,,,664a04cfda51f0fe3594455a,001,2024-06-30_05h38.34.713,empathy_intonation_perc,2024.1.4,Linux x86_64,30.12048193,,,,,,,,,,,,,,134,molor,,,,,,506.9986,509.6442,0,1,2.1153,,0,146,146,133,1,pseudoword,0,REAL,FALSA
,,,,,,,,,664a04cfda51f0fe3594455a,001,2024-06-30_05h38.34.713,empathy_intonation_perc,2024.1.4,Linux x86_64,30.12048193,,,,,,,,,,,,,,159,trcia,,,,,,509.6455,511.0434,0,1,0.8594,,0,147,147,158,1,pseudoword,0,REAL,FALSA
,,,,,,,,,664a04cfda51f0fe3594455a,001,2024-06-30_05h38.34.713,empathy_intonation_perc,2024.1.4,Linux x86_64,30.12048193,,,,,,,,,,,,,,86,cuenco,,,,,,511.0445,512.4349,1,0,0.852,,0,148,148,85,1,non_cognate,1,REAL,FALSA
,,,,,,,,,664a04cfda51f0fe3594455a,001,2024-06-30_05h38.34.713,empathy_intonation_perc,2024.1.4,Linux x86_64,30.12048193,,,,,,,,,,,,,,163,olzan,,,,,,512.4357,514.2316,0,1,1.2551,,0,149,149,162,1,pseudoword,0,REAL,FALSA
,,,,,,,,,664a04cfda51f0fe3594455a,001,2024-06-30_05h38.34.713,empathy_intonation_perc,2024.1.4,Linux x86_64,30.12048193,,,,,,,,,,,,,,139,sasos,,,,,,514.2323,515.6958,0,1,0.9197,,0,150,150,138,1,pseudoword,0,REAL,FALSA
,,,,,,,,,664a04cfda51f0fe3594455a,001,2024-06-30_05h38.34.713,empathy_intonation_perc,2024.1.4,Linux x86_64,30.12048193,,,,,,,,,,,,,,186,rizate,,,,,,515.6964,517.4429,0,1,1.204,,0,151,151,185,1,pseudoword,0,REAL,FALSA
,,,,,,,,,664a04cfda51f0fe3594455a,001,2024-06-30_05h38.34.713,empathy_intonation_perc,2024.1.4,Linux x86_64,30.12048193,,,,,,,,,,,,,,143,hurcos,,,,,,517.4437,518.8742,0,1,0.9029,,0,152,152,142,1,pseudoword,0,REAL,FALSA
,,,,,,,,,664a04cfda51f0fe3594455a,001,2024-06-30_05h38.34.713,empathy_intonation_perc,2024.1.4,Linux x86_64,30.12048193,,,,,,,,,,,,,,76,chocar,,,,,,518.8751,520.6207,1,0,1.2008,,0,153,153,75,1,non_cognate,1,REAL,FALSA
,,,,,,,,,664a04cfda51f0fe3594455a,001,2024-06-30_05h38.34.713,empathy_intonation_perc,2024.1.4,Linux x86_64,30.12048193,,,,,,,,,,,,,,7,albino,,,,,,520.6213,522.3343,1,0,1.168,,0,154,154,6,1,three_way_cognate,1,REAL,FALSA
,,,,,,,,,664a04cfda51f0fe3594455a,001,2024-06-30_05h38.34.713,empathy_intonation_perc,2024.1.4,Linux x86_64,30.12048193,,,,,,,,,,,,,,41,pasta,,,,,,522.3349,523.717,1,0,0.8402,,0,155,155,40,1,two_way_cognate,1,REAL,FALSA
,,,,,,,,,664a04cfda51f0fe3594455a,001,2024-06-30_05h38.34.713,empathy_intonation_perc,2024.1.4,Linux x86_64,30.12048193,,,,,,,,,,,,,,59,feo,,,,,,523.7176,525.2968,0,1,1.0355,,0,156,156,58,1,non_cognate,1,REAL,FALSA
,,,,,,,,,664a04cfda51f0fe3594455a,001,2024-06-30_05h38.34.713,empathy_intonation_perc,2024.1.4,Linux x86_64,30.12048193,,,,,,,,,,,,,,116,grigir,,,,,,525.2974,527.7094,0,1,1.8698,,0,157,157,115,1,pseudoword,0,REAL,FALSA
,,,,,,,,,664a04cfda51f0fe3594455a,001,2024-06-30_05h38.34.713,empathy_intonation_perc,2024.1.4,Linux x86_64,30.12048193,,,,,,,,,,,,,,157,seled,,,,,,527.71,529.3411,0,1,1.0888,,0,158,158,156,1,pseudoword,0,REAL,FALSA
,,,,,,,,,664a04cfda51f0fe3594455a,001,2024-06-30_05h38.34.713,empathy_intonation_perc,2024.1.4,Linux x86_64,30.12048193,,,,,,,,,,,,,,151,prías,,,,,,529.3422,531.037,1,0,1.1548,,0,159,159,150,1,pseudoword,0,REAL,FALSA
,,,,,,,,,664a04cfda51f0fe3594455a,001,2024-06-30_05h38.34.713,empathy_intonation_perc,2024.1.4,Linux x86_64,30.12048193,,,,,,,,,,,,,,132,nocó,,,,,,531.0378,532.2202,0,1,0.6431,,0,160,160,131,1,pseudoword,0,REAL,FALSA
,,,,,,,,,664a04cfda51f0fe3594455a,001,2024-06-30_05h38.34.713,empathy_intonation_perc,2024.1.4,Linux x86_64,30.12048193,,,,,,,,,,,,,,99,bugor,,,,,,532.2217,533.8664,0,1,1.1052,,0,161,161,98,1,pseudoword,0,REAL,FALSA
,,,,,,,,,664a04cfda51f0fe3594455a,001,2024-06-30_05h38.34.713,empathy_intonation_perc,2024.1.4,Linux x86_64,30.12048193,,,,,,,,,,,,,,72,rostro,,,,,,533.8678,536.0629,0,1,1.6572,,0,162,162,71,1,non_cognate,1,REAL,FALSA
,,,,,,,,,664a04cfda51f0fe3594455a,001,2024-06-30_05h38.34.713,empathy_intonation_perc,2024.1.4,Linux x86_64,30.12048193,,,,,,,,,,,,,,95,listo,,,,,,536.0643,538.1082,1,0,1.5019,,0,163,163,94,1,non_cognate,1,REAL,FALSA
,,,,,,,,,664a04cfda51f0fe3594455a,001,2024-06-30_05h38.34.713,empathy_intonation_perc,2024.1.4,Linux x86_64,30.12048193,,,,,,,,,,,,,,10,drama,,,,,,538.1088,539.4416,1,0,0.7907,,0,164,164,9,1,three_way_cognate,1,REAL,FALSA
,,,,,,,,,664a04cfda51f0fe3594455a,001,2024-06-30_05h38.34.713,empathy_intonation_perc,2024.1.4,Linux x86_64,30.12048193,,,,,,,,,,,,,,153,golla,,,,,,539.4423,540.8862,0,1,0.9011,,0,165,165,152,1,pseudoword,0,REAL,FALSA
,,,,,,,,,664a04cfda51f0fe3594455a,001,2024-06-30_05h38.34.713,empathy_intonation_perc,2024.1.4,Linux x86_64,30.12048193,,,,,,,,,,,,,,52,blando,,,,,,540.8873,544.0985,0,1,2.67,,0,166,166,51,1,non_cognate,1,REAL,FALSA
,,,,,,,,,664a04cfda51f0fe3594455a,001,2024-06-30_05h38.34.713,empathy_intonation_perc,2024.1.4,Linux x86_64,30.12048193,,,,,,,,,,,,,,177,entodo,,,,,,544.0993,547.1428,0,1,2.5067,,0,167,167,176,1,pseudoword,0,REAL,FALSA
,,,,,,,,,664a04cfda51f0fe3594455a,001,2024-06-30_05h38.34.713,empathy_intonation_perc,2024.1.4,Linux x86_64,30.12048193,,,,,,,,,,,,,,88,percha,,,,,,547.1652,548.4411,0,1,0.7417,,0,168,168,87,1,non_cognate,1,REAL,FALSA
,,,,,,,,,664a04cfda51f0fe3594455a,001,2024-06-30_05h38.34.713,empathy_intonation_perc,2024.1.4,Linux x86_64,30.12048193,,,,,,,,,,,,,,89,muñeca,,,,,,548.4416,549.7725,0,1,0.7933,,0,169,169,88,1,non_cognate,1,REAL,FALSA
,,,,,,,,,664a04cfda51f0fe3594455a,001,2024-06-30_05h38.34.713,empathy_intonation_perc,2024.1.4,Linux x86_64,30.12048193,,,,,,,,,,,,,,138,tator,,,,,,549.773,551.518,1,0,1.2051,,0,170,170,137,1,pseudoword,0,REAL,FALSA
,,,,,,,,,664a04cfda51f0fe3594455a,001,2024-06-30_05h38.34.713,empathy_intonation_perc,2024.1.4,Linux x86_64,30.12048193,,,,,,,,,,,,,,161,civas,,,,,,551.5192,553.516,0,1,1.4583,,0,171,171,160,1,pseudoword,0,REAL,FALSA
,,,,,,,,,664a04cfda51f0fe3594455a,001,2024-06-30_05h38.34.713,empathy_intonation_perc,2024.1.4,Linux x86_64,30.12048193,,,,,,,,,,,,,,166,anfia,,,,,,553.5171,554.8951,0,1,0.8367,,0,172,172,165,1,pseudoword,0,REAL,FALSA
,,,,,,,,,664a04cfda51f0fe3594455a,001,2024-06-30_05h38.34.713,empathy_intonation_perc,2024.1.4,Linux x86_64,30.12048193,,,,,,,,,,,,,,19,mafia,,,,,,554.8962,556.2824,1,0,0.8454,,0,173,173,18,1,three_way_cognate,1,REAL,FALSA
,,,,,,,,,664a04cfda51f0fe3594455a,001,2024-06-30_05h38.34.713,empathy_intonation_perc,2024.1.4,Linux x86_64,30.12048193,,,,,,,,,,,,,,18,altar,,,,,,556.2835,557.7273,1,0,0.9085,,0,174,174,17,1,three_way_cognate,1,REAL,FALSA
,,,,,,,,,664a04cfda51f0fe3594455a,001,2024-06-30_05h38.34.713,empathy_intonation_perc,2024.1.4,Linux x86_64,30.12048193,,,,,,,,,,,,,,42,rumor,,,,,,557.7281,559.4542,1,0,1.1886,,0,175,175,41,1,two_way_cognate,1,REAL,FALSA
,,,,,,,,,664a04cfda51f0fe3594455a,001,2024-06-30_05h38.34.713,empathy_intonation_perc,2024.1.4,Linux x86_64,30.12048193,,,,,,,,,,,,,,51,listo,,,,,,559.4549,561.8339,1,0,1.8345,,0,176,176,50,1,non_cognate,1,REAL,FALSA
,,,,,,,,,664a04cfda51f0fe3594455a,001,2024-06-30_05h38.34.713,empathy_intonation_perc,2024.1.4,Linux x86_64,30.12048193,,,,,,,,,,,,,,102,coyo,,,,,,561.8351,563.2802,0,1,0.9053,,0,177,177,101,1,pseudoword,0,REAL,FALSA
,,,,,,,,,664a04cfda51f0fe3594455a,001,2024-06-30_05h38.34.713,empathy_intonation_perc,2024.1.4,Linux x86_64,30.12048193,,,,,,,,,,,,,,36,viable,,,,,,563.2809,565.0125,1,0,1.1939,,0,178,178,35,1,two_way_cognate,1,REAL,FALSA
,,,,,,,,,664a04cfda51f0fe3594455a,001,2024-06-30_05h38.34.713,empathy_intonation_perc,2024.1.4,Linux x86_64,30.12048193,,,,,,,,,,,,,,152,prave,,,,,,565.0132,566.5446,0,1,0.9883,,0,179,179,151,1,pseudoword,0,REAL,FALSA
,,,,,,,,,664a04cfda51f0fe3594455a,001,2024-06-30_05h38.34.713,empathy_intonation_perc,2024.1.4,Linux x86_64,30.12048193,,,,,,,,,,,,,,43,honor,,,,,,566.5454,567.8925,1,0,0.8114,,0,180,180,42,1,two_way_cognate,1,REAL,FALSA
,,,,,,,,,664a04cfda51f0fe3594455a,001,2024-06-30_05h38.34.713,empathy_intonation_perc,2024.1.4,Linux x86_64,30.12048193,,,,,,,,,,,,,,81,sacar,,,,,,567.8946,569.6196,0,1,1.1904,,0,181,181,80,1,non_cognate,1,REAL,FALSA
,,,,,,,,,664a04cfda51f0fe3594455a,001,2024-06-30_05h38.34.713,empathy_intonation_perc,2024.1.4,Linux x86_64,30.12048193,,,,,,,,,,,,,,85,enorme,,,,,,569.6203,571.9675,1,0,1.8033,,0,182,182,84,1,non_cognate,1,REAL,FALSA
,,,,,,,,,664a04cfda51f0fe3594455a,001,2024-06-30_05h38.34.713,empathy_intonation_perc,2024.1.4,Linux x86_64,30.12048193,,,,,,,,,,,,,,176,gripar,,,,,,571.9683,573.5128,0,1,1.0038,,0,183,183,175,1,pseudoword,0,REAL,FALSA
,,,,,,,,,664a04cfda51f0fe3594455a,001,2024-06-30_05h38.34.713,empathy_intonation_perc,2024.1.4,Linux x86_64,30.12048193,,,,,,,,,,,,,,55,maldad,,,,,,573.5135,575.0268,0,1,0.9718,,0,184,184,54,1,non_cognate,1,REAL,FALSA
,,,,,,,,,664a04cfda51f0fe3594455a,001,2024-06-30_05h38.34.713,empathy_intonation_perc,2024.1.4,Linux x86_64,30.12048193,,,,,,,,,,,,,,109,laras,,,,,,575.0279,576.2916,0,1,0.7241,,0,185,185,108,1,pseudoword,0,REAL,FALSA
,,,,,,,,,664a04cfda51f0fe3594455a,001,2024-06-30_05h38.34.713,empathy_intonation_perc,2024.1.4,Linux x86_64,30.12048193,,,,,,,,,,,,,,65,guerra,,,,,,576.2929,577.8905,1,0,1.0572,,0,186,186,64,1,non_cognate,1,REAL,FALSA
,,,,,,,,,664a04cfda51f0fe3594455a,001,2024-06-30_05h38.34.713,empathy_intonation_perc,2024.1.4,Linux x86_64,30.12048193,,,,,,,,,,,,,,155,kugis,,,,,,577.8912,579.388,0,1,0.9572,,0,187,187,154,1,pseudoword,0,REAL,FALSA
,,,,,,,,,664a04cfda51f0fe3594455a,001,2024-06-30_05h38.34.713,empathy_intonation_perc,2024.1.4,Linux x86_64,30.12048193,,,,,,,,,,,,,,142,parre,,,,,,579.3892,581.2675,1,0,1.3401,,0,188,188,141,1,pseudoword,0,REAL,FALSA
,,,,,,,,,664a04cfda51f0fe3594455a,001,2024-06-30_05h38.34.713,empathy_intonation_perc,2024.1.4,Linux x86_64,30.12048193,,,,,,,,,,,,,,22,mango,,,,,,581.2688,582.6322,1,0,0.8243,,0,189,189,21,1,three_way_cognate,1,REAL,FALSA
,,,,,,,,,664a04cfda51f0fe3594455a,001,2024-06-30_05h38.34.713,empathy_intonation_perc,2024.1.4,Linux x86_64,30.12048193,,,,,,,,,,,,,,40,pelvis,,,,,,582.6333,583.9817,1,0,0.8088,,0,190,190,39,1,two_way_cognate,1,REAL,FALSA
,,,,,,,,,664a04cfda51f0fe3594455a,001,2024-06-30_05h38.34.713,empathy_intonation_perc,2024.1.4,Linux x86_64,30.12048193,,,,,,,,,,,,,,146,gió,,,,,,583.9824,585.4599,0,1,0.9359,,0,191,191,145,1,pseudoword,0,REAL,FALSA
