lextale_instructions.started,lextale_instructions.stopped,lextale_instructions_loop.thisRepN,lextale_instructions_loop.thisTrialN,lextale_instructions_loop.thisN,lextale_instructions_loop.thisIndex,lextale_instructions_loop.ran,instructions_text,continue_text,participant,session,date,expName,psychopyVersion,OS,frameRate,lextale_practice.started,lextale_practice.stopped,key_resp_lextale_practice.keys,key_resp_lextale_practice.corr,key_resp_lextale_practice.rt,key_resp_lextale_practice.duration,lextale_practice_feedback.started,lextale_practice_feedback.stopped,lextale_practice_trials.thisRepN,lextale_practice_trials.thisTrialN,lextale_practice_trials.thisN,lextale_practice_trials.thisIndex,lextale_practice_trials.ran,stim,word,correct_response,prac_button_real,prac_button_false,lextale_check.started,lextale_check.stopped,lextale_trial.started,lextale_trial.stopped,key_resp_lextale_trial.keys,key_resp_lextale_trial.corr,key_resp_lextale_trial.rt,key_resp_lextale_trial.duration,lextail_trials.thisRepN,lextail_trials.thisTrialN,lextail_trials.thisN,lextail_trials.thisIndex,lextail_trials.ran,type,correct_reponse,button_real,button_false
0.0344,11.8195,0,0,0,0,1,"Este es un test de vocabulario en español. 
  
  A continuación vas a ver 90 secuencias de letras que parecen 'españolas'.
  
  Solo algunas de ellas son palabras de verdad.",(presiona la barra espaciadora para continuar),664d031e39f59ffa82289b1a,001,2024-06-30_06h35.06.032,empathy_intonation_perc,2024.1.4,Win32,60.97560976,,,,,,,,,,,,,,,,,,,,,,,,,,,,,,,,,,,
11.8208,19.8836,0,1,1,1,1,"Por favor, señala las palabras que tú conoces (aquellas que estás convencido que son palabras españolas, incluso aunque no seas capaz de dar el significado preciso).",(presiona la barra espaciadora para continuar),664d031e39f59ffa82289b1a,001,2024-06-30_06h35.06.032,empathy_intonation_perc,2024.1.4,Win32,60.97560976,,,,,,,,,,,,,,,,,,,,,,,,,,,,,,,,,,,
19.8843,42.7796,0,2,2,2,1,Pero cuidado: los errores se penalizan. Por eso no tiene sentido tratar de incrementar tu puntuación marcando como reales palabras que nunca has visto.,(presiona la barra espaciadora para continuar),664d031e39f59ffa82289b1a,001,2024-06-30_06h35.06.032,empathy_intonation_perc,2024.1.4,Win32,60.97560976,,,,,,,,,,,,,,,,,,,,,,,,,,,,,,,,,,,
42.7805,47.0757,0,3,3,3,1,"Presiona la tecla 1 si piensas que es una palabra real y la tecla 
  0 si piensas que es una palabra falsa. 
  
  Vamos a practicar un poco...",(presiona la barra espaciadora para continuar),664d031e39f59ffa82289b1a,001,2024-06-30_06h35.06.032,empathy_intonation_perc,2024.1.4,Win32,60.97560976,,,,,,,,,,,,,,,,,,,,,,,,,,,,,,,,,,,
,,,,,,,,,664d031e39f59ffa82289b1a,001,2024-06-30_06h35.06.032,empathy_intonation_perc,2024.1.4,Win32,60.97560976,47.0998,58.4022,1,0,10.7716,,58.4252,59.4017,0,0,0,0,1,0,depiste,0,REAL,FALSA,,,,,,,,,,,,,,,,,
,,,,,,,,,664d031e39f59ffa82289b1a,001,2024-06-30_06h35.06.032,empathy_intonation_perc,2024.1.4,Win32,60.97560976,59.4025,63.5005,1,1,3.5828,,63.5007,64.4974,0,1,1,1,1,0,sí,1,REAL,FALSA,,,,,,,,,,,,,,,,,
,,,,,,,,,664d031e39f59ffa82289b1a,001,2024-06-30_06h35.06.032,empathy_intonation_perc,2024.1.4,Win32,60.97560976,64.517,67.3282,0,1,2.2801,,67.3284,68.3278,0,2,2,2,1,0,coné,0,REAL,FALSA,,,,,,,,,,,,,,,,,
,,,,,,,,,664d031e39f59ffa82289b1a,001,2024-06-30_06h35.06.032,empathy_intonation_perc,2024.1.4,Win32,60.97560976,68.3285,70.3761,0,1,1.5035,,70.3764,71.3755,0,3,3,3,1,0,calpar,0,REAL,FALSA,,,,,,,,,,,,,,,,,
,,,,,,,,,664d031e39f59ffa82289b1a,001,2024-06-30_06h35.06.032,empathy_intonation_perc,2024.1.4,Win32,60.97560976,71.3925,73.0418,0,1,1.1108,,73.0419,74.0414,0,4,4,4,1,0,joten,0,REAL,FALSA,,,,,,,,,,,,,,,,,
,,,,,,,,,664d031e39f59ffa82289b1a,001,2024-06-30_06h35.06.032,empathy_intonation_perc,2024.1.4,Win32,60.97560976,74.0432,76.0725,0,0,1.4953,,76.0727,77.0722,0,5,5,5,1,0,sacapuntas,1,REAL,FALSA,,,,,,,,,,,,,,,,,
,,,,,,,,,664d031e39f59ffa82289b1a,001,2024-06-30_06h35.06.032,empathy_intonation_perc,2024.1.4,Win32,60.97560976,77.0925,79.587,0,1,1.9505,,79.5871,80.5868,0,6,6,6,1,0,priba,0,REAL,FALSA,,,,,,,,,,,,,,,,,
,,,,,,,,,664d031e39f59ffa82289b1a,001,2024-06-30_06h35.06.032,empathy_intonation_perc,2024.1.4,Win32,60.97560976,80.6053,82.3179,0,1,1.1759,,82.318,83.3184,0,7,7,7,1,0,pelasula,0,REAL,FALSA,,,,,,,,,,,,,,,,,
,,,,,,,,,664d031e39f59ffa82289b1a,001,2024-06-30_06h35.06.032,empathy_intonation_perc,2024.1.4,Win32,60.97560976,83.319,84.8167,1,1,0.9554,,84.8168,85.8173,0,8,8,8,1,0,bien,1,REAL,FALSA,,,,,,,,,,,,,,,,,
,,,,,,,,,664d031e39f59ffa82289b1a,001,2024-06-30_06h35.06.032,empathy_intonation_perc,2024.1.4,Win32,60.97560976,85.8183,87.1009,1,1,0.759,,87.1009,88.097,0,9,9,9,1,0,casa,1,REAL,FALSA,,,,,,,,,,,,,,,,,
,,,,,,,,,664d031e39f59ffa82289b1a,001,2024-06-30_06h35.06.032,empathy_intonation_perc,2024.1.4,Win32,60.97560976,88.0992,90.1621,0,1,1.5276,,90.1622,91.1619,0,10,10,10,1,0,lejo,0,REAL,FALSA,,,,,,,,,,,,,,,,,
,,,,,,,,,664d031e39f59ffa82289b1a,001,2024-06-30_06h35.06.032,empathy_intonation_perc,2024.1.4,Win32,60.97560976,91.1828,93.4119,0,1,1.6964,,93.412,94.4094,0,11,11,11,1,0,pretantas,0,REAL,FALSA,,,,,,,,,,,,,,,,,
,,,,,,,,,664d031e39f59ffa82289b1a,001,2024-06-30_06h35.06.032,empathy_intonation_perc,2024.1.4,Win32,60.97560976,,,,,,,,,,,,,,,,,,,94.4103,96.8604,,,,,,,,,,,,,,,
,,,,,,,,,664d031e39f59ffa82289b1a,001,2024-06-30_06h35.06.032,empathy_intonation_perc,2024.1.4,Win32,60.97560976,,,,,,,,,,,,,,168,cobén,,,,,,96.9015,99.0946,0,1,1.6713,,0,0,0,167,1,pseudoword,0,REAL,FALSA
,,,,,,,,,664d031e39f59ffa82289b1a,001,2024-06-30_06h35.06.032,empathy_intonation_perc,2024.1.4,Win32,60.97560976,,,,,,,,,,,,,,97,nocita,,,,,,99.0954,100.7715,0,1,1.1446,,0,1,1,96,1,pseudoword,0,REAL,FALSA
,,,,,,,,,664d031e39f59ffa82289b1a,001,2024-06-30_06h35.06.032,empathy_intonation_perc,2024.1.4,Win32,60.97560976,,,,,,,,,,,,,,102,coyo,,,,,,100.7723,102.4707,0,1,1.1644,,0,2,2,101,1,pseudoword,0,REAL,FALSA
,,,,,,,,,664d031e39f59ffa82289b1a,001,2024-06-30_06h35.06.032,empathy_intonation_perc,2024.1.4,Win32,60.97560976,,,,,,,,,,,,,,74,ala,,,,,,102.472,105.5018,1,0,2.4977,,0,3,3,73,1,non_cognate,1,REAL,FALSA
,,,,,,,,,664d031e39f59ffa82289b1a,001,2024-06-30_06h35.06.032,empathy_intonation_perc,2024.1.4,Win32,60.97560976,,,,,,,,,,,,,,107,plago,,,,,,105.5181,109.5995,0,1,3.5423,,0,4,4,106,1,pseudoword,0,REAL,FALSA
,,,,,,,,,664d031e39f59ffa82289b1a,001,2024-06-30_06h35.06.032,empathy_intonation_perc,2024.1.4,Win32,60.97560976,,,,,,,,,,,,,,55,maldad,,,,,,109.6158,110.9982,1,0,0.8387,,0,5,5,54,1,non_cognate,1,REAL,FALSA
,,,,,,,,,664d031e39f59ffa82289b1a,001,2024-06-30_06h35.06.032,empathy_intonation_perc,2024.1.4,Win32,60.97560976,,,,,,,,,,,,,,27,piano,,,,,,110.9993,113.2132,1,0,1.6823,,0,6,6,26,1,two_way_cognate,1,REAL,FALSA
,,,,,,,,,664d031e39f59ffa82289b1a,001,2024-06-30_06h35.06.032,empathy_intonation_perc,2024.1.4,Win32,60.97560976,,,,,,,,,,,,,,173,mibro,,,,,,113.2143,114.9624,0,1,1.2074,,0,7,7,172,1,pseudoword,0,REAL,FALSA
,,,,,,,,,664d031e39f59ffa82289b1a,001,2024-06-30_06h35.06.032,empathy_intonation_perc,2024.1.4,Win32,60.97560976,,,,,,,,,,,,,,177,entodo,,,,,,114.9636,116.7432,1,0,1.2465,,0,8,8,176,1,pseudoword,0,REAL,FALSA
,,,,,,,,,664d031e39f59ffa82289b1a,001,2024-06-30_06h35.06.032,empathy_intonation_perc,2024.1.4,Win32,60.97560976,,,,,,,,,,,,,,184,huenos,,,,,,116.7445,119.4759,1,0,2.194,,0,9,9,183,1,pseudoword,0,REAL,FALSA
,,,,,,,,,664d031e39f59ffa82289b1a,001,2024-06-30_06h35.06.032,empathy_intonation_perc,2024.1.4,Win32,60.97560976,,,,,,,,,,,,,,72,rostro,,,,,,119.4767,121.4903,0,1,1.476,,0,10,10,71,1,non_cognate,1,REAL,FALSA
,,,,,,,,,664d031e39f59ffa82289b1a,001,2024-06-30_06h35.06.032,empathy_intonation_perc,2024.1.4,Win32,60.97560976,,,,,,,,,,,,,,16,chat,,,,,,121.4913,124.0548,1,0,2.027,,0,11,11,15,1,three_way_cognate,1,REAL,FALSA
,,,,,,,,,664d031e39f59ffa82289b1a,001,2024-06-30_06h35.06.032,empathy_intonation_perc,2024.1.4,Win32,60.97560976,,,,,,,,,,,,,,155,kugis,,,,,,124.0555,125.321,0,1,0.7289,,0,12,12,154,1,pseudoword,0,REAL,FALSA
,,,,,,,,,664d031e39f59ffa82289b1a,001,2024-06-30_06h35.06.032,empathy_intonation_perc,2024.1.4,Win32,60.97560976,,,,,,,,,,,,,,4,flora,,,,,,125.3223,126.8369,1,0,0.9822,,0,13,13,3,1,three_way_cognate,1,REAL,FALSA
,,,,,,,,,664d031e39f59ffa82289b1a,001,2024-06-30_06h35.06.032,empathy_intonation_perc,2024.1.4,Win32,60.97560976,,,,,,,,,,,,,,60,siglo,,,,,,126.8385,128.2195,0,1,0.8485,,0,14,14,59,1,non_cognate,1,REAL,FALSA
,,,,,,,,,664d031e39f59ffa82289b1a,001,2024-06-30_06h35.06.032,empathy_intonation_perc,2024.1.4,Win32,60.97560976,,,,,,,,,,,,,,63,hilo,,,,,,128.2208,129.6683,1,0,0.9073,,0,15,15,62,1,non_cognate,1,REAL,FALSA
,,,,,,,,,664d031e39f59ffa82289b1a,001,2024-06-30_06h35.06.032,empathy_intonation_perc,2024.1.4,Win32,60.97560976,,,,,,,,,,,,,,76,chocar,,,,,,129.6694,131.5336,0,1,1.3305,,0,16,16,75,1,non_cognate,1,REAL,FALSA
,,,,,,,,,664d031e39f59ffa82289b1a,001,2024-06-30_06h35.06.032,empathy_intonation_perc,2024.1.4,Win32,60.97560976,,,,,,,,,,,,,,156,ozoso,,,,,,131.5345,133.7987,0,1,1.72,,0,17,17,155,1,pseudoword,0,REAL,FALSA
,,,,,,,,,664d031e39f59ffa82289b1a,001,2024-06-30_06h35.06.032,empathy_intonation_perc,2024.1.4,Win32,60.97560976,,,,,,,,,,,,,,59,feo,,,,,,133.7994,135.2146,1,0,0.8811,,0,18,18,58,1,non_cognate,1,REAL,FALSA
,,,,,,,,,664d031e39f59ffa82289b1a,001,2024-06-30_06h35.06.032,empathy_intonation_perc,2024.1.4,Win32,60.97560976,,,,,,,,,,,,,,21,hotel,,,,,,135.2158,136.5965,1,0,0.8498,,0,19,19,20,1,three_way_cognate,1,REAL,FALSA
,,,,,,,,,664d031e39f59ffa82289b1a,001,2024-06-30_06h35.06.032,empathy_intonation_perc,2024.1.4,Win32,60.97560976,,,,,,,,,,,,,,150,cricó,,,,,,136.5972,138.3127,0,1,1.1845,,0,20,20,149,1,pseudoword,0,REAL,FALSA
,,,,,,,,,664d031e39f59ffa82289b1a,001,2024-06-30_06h35.06.032,empathy_intonation_perc,2024.1.4,Win32,60.97560976,,,,,,,,,,,,,,15,test,,,,,,138.3139,141.1606,1,0,2.3087,,0,21,21,14,1,three_way_cognate,1,REAL,FALSA
,,,,,,,,,664d031e39f59ffa82289b1a,001,2024-06-30_06h35.06.032,empathy_intonation_perc,2024.1.4,Win32,60.97560976,,,,,,,,,,,,,,42,rumor,,,,,,141.1782,143.5754,1,0,1.8636,,0,22,22,41,1,two_way_cognate,1,REAL,FALSA
,,,,,,,,,664d031e39f59ffa82289b1a,001,2024-06-30_06h35.06.032,empathy_intonation_perc,2024.1.4,Win32,60.97560976,,,,,,,,,,,,,,25,vigor,,,,,,143.5769,145.1071,1,0,0.9961,,0,23,23,24,1,two_way_cognate,1,REAL,FALSA
,,,,,,,,,664d031e39f59ffa82289b1a,001,2024-06-30_06h35.06.032,empathy_intonation_perc,2024.1.4,Win32,60.97560976,,,,,,,,,,,,,,138,tator,,,,,,145.1082,149.3554,1,0,3.7017,,0,24,24,137,1,pseudoword,0,REAL,FALSA
,,,,,,,,,664d031e39f59ffa82289b1a,001,2024-06-30_06h35.06.032,empathy_intonation_perc,2024.1.4,Win32,60.97560976,,,,,,,,,,,,,,179,suelet,,,,,,149.3733,150.7378,0,1,0.8321,,0,25,25,178,1,pseudoword,0,REAL,FALSA
,,,,,,,,,664d031e39f59ffa82289b1a,001,2024-06-30_06h35.06.032,empathy_intonation_perc,2024.1.4,Win32,60.97560976,,,,,,,,,,,,,,164,tecia,,,,,,150.7385,152.4192,0,1,1.1461,,0,26,26,163,1,pseudoword,0,REAL,FALSA
,,,,,,,,,664d031e39f59ffa82289b1a,001,2024-06-30_06h35.06.032,empathy_intonation_perc,2024.1.4,Win32,60.97560976,,,,,,,,,,,,,,152,prave,,,,,,152.4202,153.8204,0,1,0.8646,,0,27,27,151,1,pseudoword,0,REAL,FALSA
,,,,,,,,,664d031e39f59ffa82289b1a,001,2024-06-30_06h35.06.032,empathy_intonation_perc,2024.1.4,Win32,60.97560976,,,,,,,,,,,,,,75,patada,,,,,,153.8214,155.2188,0,1,0.8673,,0,28,28,74,1,non_cognate,1,REAL,FALSA
,,,,,,,,,664d031e39f59ffa82289b1a,001,2024-06-30_06h35.06.032,empathy_intonation_perc,2024.1.4,Win32,60.97560976,,,,,,,,,,,,,,154,harvé,,,,,,155.2195,156.5656,0,1,0.8288,,0,29,29,153,1,pseudoword,0,REAL,FALSA
,,,,,,,,,664d031e39f59ffa82289b1a,001,2024-06-30_06h35.06.032,empathy_intonation_perc,2024.1.4,Win32,60.97560976,,,,,,,,,,,,,,117,morrá,,,,,,156.5665,157.7484,0,1,0.6451,,0,30,30,116,1,pseudoword,0,REAL,FALSA
,,,,,,,,,664d031e39f59ffa82289b1a,001,2024-06-30_06h35.06.032,empathy_intonation_perc,2024.1.4,Win32,60.97560976,,,,,,,,,,,,,,68,puñal,,,,,,157.7506,159.3144,0,1,1.0286,,0,31,31,67,1,non_cognate,1,REAL,FALSA
,,,,,,,,,664d031e39f59ffa82289b1a,001,2024-06-30_06h35.06.032,empathy_intonation_perc,2024.1.4,Win32,60.97560976,,,,,,,,,,,,,,92,flecha,,,,,,159.3153,161.2453,0,1,1.3958,,0,32,32,91,1,non_cognate,1,REAL,FALSA
,,,,,,,,,664d031e39f59ffa82289b1a,001,2024-06-30_06h35.06.032,empathy_intonation_perc,2024.1.4,Win32,60.97560976,,,,,,,,,,,,,,28,ardor,,,,,,161.2468,162.9618,1,0,1.1711,,0,33,33,27,1,two_way_cognate,1,REAL,FALSA
,,,,,,,,,664d031e39f59ffa82289b1a,001,2024-06-30_06h35.06.032,empathy_intonation_perc,2024.1.4,Win32,60.97560976,,,,,,,,,,,,,,6,horror,,,,,,162.9636,164.2279,1,0,0.7273,,0,34,34,5,1,three_way_cognate,1,REAL,FALSA
,,,,,,,,,664d031e39f59ffa82289b1a,001,2024-06-30_06h35.06.032,empathy_intonation_perc,2024.1.4,Win32,60.97560976,,,,,,,,,,,,,,125,ceme,,,,,,164.2288,165.5423,0,1,0.786,,0,35,35,124,1,pseudoword,0,REAL,FALSA
,,,,,,,,,664d031e39f59ffa82289b1a,001,2024-06-30_06h35.06.032,empathy_intonation_perc,2024.1.4,Win32,60.97560976,,,,,,,,,,,,,,101,losco,,,,,,165.5436,166.7728,0,1,0.6854,,0,36,36,100,1,pseudoword,0,REAL,FALSA
,,,,,,,,,664d031e39f59ffa82289b1a,001,2024-06-30_06h35.06.032,empathy_intonation_perc,2024.1.4,Win32,60.97560976,,,,,,,,,,,,,,166,anfia,,,,,,166.7734,167.8938,0,1,0.6016,,0,37,37,165,1,pseudoword,0,REAL,FALSA
,,,,,,,,,664d031e39f59ffa82289b1a,001,2024-06-30_06h35.06.032,empathy_intonation_perc,2024.1.4,Win32,60.97560976,,,,,,,,,,,,,,137,trugo,,,,,,167.8945,169.6061,1,0,1.1807,,0,38,38,136,1,pseudoword,0,REAL,FALSA
,,,,,,,,,664d031e39f59ffa82289b1a,001,2024-06-30_06h35.06.032,empathy_intonation_perc,2024.1.4,Win32,60.97560976,,,,,,,,,,,,,,165,chote,,,,,,169.6068,170.7762,0,1,0.6359,,0,39,39,164,1,pseudoword,0,REAL,FALSA
,,,,,,,,,664d031e39f59ffa82289b1a,001,2024-06-30_06h35.06.032,empathy_intonation_perc,2024.1.4,Win32,60.97560976,,,,,,,,,,,,,,113,nasce,,,,,,170.7767,171.8891,0,1,0.5793,,0,40,40,112,1,pseudoword,0,REAL,FALSA
,,,,,,,,,664d031e39f59ffa82289b1a,001,2024-06-30_06h35.06.032,empathy_intonation_perc,2024.1.4,Win32,60.97560976,,,,,,,,,,,,,,180,pupica,,,,,,171.8907,173.0381,0,1,0.614,,0,41,41,179,1,pseudoword,0,REAL,FALSA
,,,,,,,,,664d031e39f59ffa82289b1a,001,2024-06-30_06h35.06.032,empathy_intonation_perc,2024.1.4,Win32,60.97560976,,,,,,,,,,,,,,82,brillo,,,,,,173.0395,174.5032,1,0,0.9355,,0,42,42,81,1,non_cognate,1,REAL,FALSA
,,,,,,,,,664d031e39f59ffa82289b1a,001,2024-06-30_06h35.06.032,empathy_intonation_perc,2024.1.4,Win32,60.97560976,,,,,,,,,,,,,,14,aura,,,,,,174.5038,176.6851,0,1,1.6488,,0,43,43,13,1,three_way_cognate,1,REAL,FALSA
,,,,,,,,,664d031e39f59ffa82289b1a,001,2024-06-30_06h35.06.032,empathy_intonation_perc,2024.1.4,Win32,60.97560976,,,,,,,,,,,,,,98,martir,,,,,,176.6856,178.9035,0,1,1.6837,,0,44,44,97,1,pseudoword,0,REAL,FALSA
,,,,,,,,,664d031e39f59ffa82289b1a,001,2024-06-30_06h35.06.032,empathy_intonation_perc,2024.1.4,Win32,60.97560976,,,,,,,,,,,,,,158,babrá,,,,,,178.9043,180.5339,0,1,1.098,,0,45,45,157,1,pseudoword,0,REAL,FALSA
,,,,,,,,,664d031e39f59ffa82289b1a,001,2024-06-30_06h35.06.032,empathy_intonation_perc,2024.1.4,Win32,60.97560976,,,,,,,,,,,,,,133,conso,,,,,,180.5351,181.7331,0,1,0.6699,,0,46,46,132,1,pseudoword,0,REAL,FALSA
,,,,,,,,,664d031e39f59ffa82289b1a,001,2024-06-30_06h35.06.032,empathy_intonation_perc,2024.1.4,Win32,60.97560976,,,,,,,,,,,,,,112,samón,,,,,,181.734,183.2819,0,1,1.0086,,0,47,47,111,1,pseudoword,0,REAL,FALSA
,,,,,,,,,664d031e39f59ffa82289b1a,001,2024-06-30_06h35.06.032,empathy_intonation_perc,2024.1.4,Win32,60.97560976,,,,,,,,,,,,,,18,altar,,,,,,183.2832,184.996,1,0,1.1801,,0,48,48,17,1,three_way_cognate,1,REAL,FALSA
,,,,,,,,,664d031e39f59ffa82289b1a,001,2024-06-30_06h35.06.032,empathy_intonation_perc,2024.1.4,Win32,60.97560976,,,,,,,,,,,,,,145,rúo,,,,,,184.9967,186.5115,0,1,0.9818,,0,49,49,144,1,pseudoword,0,REAL,FALSA
,,,,,,,,,664d031e39f59ffa82289b1a,001,2024-06-30_06h35.06.032,empathy_intonation_perc,2024.1.4,Win32,60.97560976,,,,,,,,,,,,,,39,casual,,,,,,186.5121,187.963,1,0,0.915,,0,50,50,38,1,two_way_cognate,1,REAL,FALSA
,,,,,,,,,664d031e39f59ffa82289b1a,001,2024-06-30_06h35.06.032,empathy_intonation_perc,2024.1.4,Win32,60.97560976,,,,,,,,,,,,,,32,animal,,,,,,187.9638,189.16,1,0,0.6621,,0,51,51,31,1,two_way_cognate,1,REAL,FALSA
,,,,,,,,,664d031e39f59ffa82289b1a,001,2024-06-30_06h35.06.032,empathy_intonation_perc,2024.1.4,Win32,60.97560976,,,,,,,,,,,,,,89,muñeca,,,,,,189.1618,190.5583,0,1,0.8561,,0,52,52,88,1,non_cognate,1,REAL,FALSA
,,,,,,,,,664d031e39f59ffa82289b1a,001,2024-06-30_06h35.06.032,empathy_intonation_perc,2024.1.4,Win32,60.97560976,,,,,,,,,,,,,,116,grigir,,,,,,190.5598,192.0763,0,1,0.9769,,0,53,53,115,1,pseudoword,0,REAL,FALSA
,,,,,,,,,664d031e39f59ffa82289b1a,001,2024-06-30_06h35.06.032,empathy_intonation_perc,2024.1.4,Win32,60.97560976,,,,,,,,,,,,,,77,suave,,,,,,192.0772,193.5065,1,0,0.8964,,0,54,54,76,1,non_cognate,1,REAL,FALSA
,,,,,,,,,664d031e39f59ffa82289b1a,001,2024-06-30_06h35.06.032,empathy_intonation_perc,2024.1.4,Win32,60.97560976,,,,,,,,,,,,,,20,trauma,,,,,,193.5076,194.8392,1,0,0.7973,,0,55,55,19,1,three_way_cognate,1,REAL,FALSA
,,,,,,,,,664d031e39f59ffa82289b1a,001,2024-06-30_06h35.06.032,empathy_intonation_perc,2024.1.4,Win32,60.97560976,,,,,,,,,,,,,,147,alla,,,,,,194.8401,196.3049,1,0,0.9329,,0,56,56,146,1,pseudoword,0,REAL,FALSA
,,,,,,,,,664d031e39f59ffa82289b1a,001,2024-06-30_06h35.06.032,empathy_intonation_perc,2024.1.4,Win32,60.97560976,,,,,,,,,,,,,,36,viable,,,,,,196.3063,198.0866,1,0,1.2517,,0,57,57,35,1,two_way_cognate,1,REAL,FALSA
,,,,,,,,,664d031e39f59ffa82289b1a,001,2024-06-30_06h35.06.032,empathy_intonation_perc,2024.1.4,Win32,60.97560976,,,,,,,,,,,,,,182,desaro,,,,,,198.0879,199.652,0,1,1.0257,,0,58,58,181,1,pseudoword,0,REAL,FALSA
,,,,,,,,,664d031e39f59ffa82289b1a,001,2024-06-30_06h35.06.032,empathy_intonation_perc,2024.1.4,Win32,60.97560976,,,,,,,,,,,,,,143,hurcos,,,,,,199.6526,201.8337,0,1,1.6471,,0,59,59,142,1,pseudoword,0,REAL,FALSA
,,,,,,,,,664d031e39f59ffa82289b1a,001,2024-06-30_06h35.06.032,empathy_intonation_perc,2024.1.4,Win32,60.97560976,,,,,,,,,,,,,,43,honor,,,,,,201.8349,203.8829,1,0,1.5107,,0,60,60,42,1,two_way_cognate,1,REAL,FALSA
,,,,,,,,,664d031e39f59ffa82289b1a,001,2024-06-30_06h35.06.032,empathy_intonation_perc,2024.1.4,Win32,60.97560976,,,,,,,,,,,,,,110,densó,,,,,,203.8837,205.3989,0,1,0.9746,,0,61,61,109,1,pseudoword,0,REAL,FALSA
,,,,,,,,,664d031e39f59ffa82289b1a,001,2024-06-30_06h35.06.032,empathy_intonation_perc,2024.1.4,Win32,60.97560976,,,,,,,,,,,,,,163,olzan,,,,,,205.4003,206.6979,0,1,0.7777,,0,62,62,162,1,pseudoword,0,REAL,FALSA
,,,,,,,,,664d031e39f59ffa82289b1a,001,2024-06-30_06h35.06.032,empathy_intonation_perc,2024.1.4,Win32,60.97560976,,,,,,,,,,,,,,170,diabo,,,,,,206.6983,207.8963,0,1,0.6635,,0,63,63,169,1,pseudoword,0,REAL,FALSA
,,,,,,,,,664d031e39f59ffa82289b1a,001,2024-06-30_06h35.06.032,empathy_intonation_perc,2024.1.4,Win32,60.97560976,,,,,,,,,,,,,,186,rizate,,,,,,207.8973,208.9452,0,1,0.5101,,0,64,64,185,1,pseudoword,0,REAL,FALSA
,,,,,,,,,664d031e39f59ffa82289b1a,001,2024-06-30_06h35.06.032,empathy_intonation_perc,2024.1.4,Win32,60.97560976,,,,,,,,,,,,,,57,regalo,,,,,,208.9472,209.9825,0,1,0.5052,,0,65,65,56,1,non_cognate,1,REAL,FALSA
,,,,,,,,,664d031e39f59ffa82289b1a,001,2024-06-30_06h35.06.032,empathy_intonation_perc,2024.1.4,Win32,60.97560976,,,,,,,,,,,,,,93,tapa,,,,,,209.9829,213.7636,1,0,3.2507,,0,66,66,92,1,non_cognate,1,REAL,FALSA
,,,,,,,,,664d031e39f59ffa82289b1a,001,2024-06-30_06h35.06.032,empathy_intonation_perc,2024.1.4,Win32,60.97560976,,,,,,,,,,,,,,41,pasta,,,,,,213.7849,215.0925,1,0,0.7839,,0,67,67,40,1,two_way_cognate,1,REAL,FALSA
,,,,,,,,,664d031e39f59ffa82289b1a,001,2024-06-30_06h35.06.032,empathy_intonation_perc,2024.1.4,Win32,60.97560976,,,,,,,,,,,,,,45,total,,,,,,215.0932,216.3735,1,0,0.7507,,0,68,68,44,1,two_way_cognate,1,REAL,FALSA
,,,,,,,,,664d031e39f59ffa82289b1a,001,2024-06-30_06h35.06.032,empathy_intonation_perc,2024.1.4,Win32,60.97560976,,,,,,,,,,,,,,30,fiscal,,,,,,216.3743,217.7068,1,0,0.7929,,0,69,69,29,1,two_way_cognate,1,REAL,FALSA
,,,,,,,,,664d031e39f59ffa82289b1a,001,2024-06-30_06h35.06.032,empathy_intonation_perc,2024.1.4,Win32,60.97560976,,,,,,,,,,,,,,185,aljizo,,,,,,217.7076,218.8888,0,1,0.6457,,0,70,70,184,1,pseudoword,0,REAL,FALSA
,,,,,,,,,664d031e39f59ffa82289b1a,001,2024-06-30_06h35.06.032,empathy_intonation_perc,2024.1.4,Win32,60.97560976,,,,,,,,,,,,,,122,boñaz,,,,,,218.8899,220.2061,0,1,0.7836,,0,71,71,121,1,pseudoword,0,REAL,FALSA
,,,,,,,,,664d031e39f59ffa82289b1a,001,2024-06-30_06h35.06.032,empathy_intonation_perc,2024.1.4,Win32,60.97560976,,,,,,,,,,,,,,44,editor,,,,,,220.2072,221.704,1,0,0.9655,,0,72,72,43,1,two_way_cognate,1,REAL,FALSA
,,,,,,,,,664d031e39f59ffa82289b1a,001,2024-06-30_06h35.06.032,empathy_intonation_perc,2024.1.4,Win32,60.97560976,,,,,,,,,,,,,,128,pelí,,,,,,221.7054,223.0223,0,1,0.8019,,0,73,73,127,1,pseudoword,0,REAL,FALSA
,,,,,,,,,664d031e39f59ffa82289b1a,001,2024-06-30_06h35.06.032,empathy_intonation_perc,2024.1.4,Win32,60.97560976,,,,,,,,,,,,,,91,equipo,,,,,,223.023,224.3859,1,0,0.8304,,0,74,74,90,1,non_cognate,1,REAL,FALSA
,,,,,,,,,664d031e39f59ffa82289b1a,001,2024-06-30_06h35.06.032,empathy_intonation_perc,2024.1.4,Win32,60.97560976,,,,,,,,,,,,,,81,sacar,,,,,,224.3872,226.0338,0,1,1.1131,,0,75,75,80,1,non_cognate,1,REAL,FALSA
,,,,,,,,,664d031e39f59ffa82289b1a,001,2024-06-30_06h35.06.032,empathy_intonation_perc,2024.1.4,Win32,60.97560976,,,,,,,,,,,,,,79,suelo,,,,,,226.0353,227.4678,1,0,0.9002,,0,76,76,78,1,non_cognate,1,REAL,FALSA
,,,,,,,,,664d031e39f59ffa82289b1a,001,2024-06-30_06h35.06.032,empathy_intonation_perc,2024.1.4,Win32,60.97560976,,,,,,,,,,,,,,50,sierra,,,,,,227.4685,228.7654,1,0,0.7563,,0,77,77,49,1,non_cognate,1,REAL,FALSA
,,,,,,,,,664d031e39f59ffa82289b1a,001,2024-06-30_06h35.06.032,empathy_intonation_perc,2024.1.4,Win32,60.97560976,,,,,,,,,,,,,,47,color,,,,,,228.766,229.9812,1,0,0.6982,,0,78,78,46,1,two_way_cognate,1,REAL,FALSA
,,,,,,,,,664d031e39f59ffa82289b1a,001,2024-06-30_06h35.06.032,empathy_intonation_perc,2024.1.4,Win32,60.97560976,,,,,,,,,,,,,,115,lidena,,,,,,229.9827,231.2305,0,1,0.7128,,0,79,79,114,1,pseudoword,0,REAL,FALSA
,,,,,,,,,664d031e39f59ffa82289b1a,001,2024-06-30_06h35.06.032,empathy_intonation_perc,2024.1.4,Win32,60.97560976,,,,,,,,,,,,,,127,vien,,,,,,231.2323,232.5373,1,0,0.7779,,0,80,80,126,1,pseudoword,0,REAL,FALSA
,,,,,,,,,664d031e39f59ffa82289b1a,001,2024-06-30_06h35.06.032,empathy_intonation_perc,2024.1.4,Win32,60.97560976,,,,,,,,,,,,,,135,panté,,,,,,232.5381,233.7622,0,1,0.6977,,0,81,81,134,1,pseudoword,0,REAL,FALSA
,,,,,,,,,664d031e39f59ffa82289b1a,001,2024-06-30_06h35.06.032,empathy_intonation_perc,2024.1.4,Win32,60.97560976,,,,,,,,,,,,,,58,colcha,,,,,,233.7629,235.1615,0,1,0.8667,,0,82,82,57,1,non_cognate,1,REAL,FALSA
,,,,,,,,,664d031e39f59ffa82289b1a,001,2024-06-30_06h35.06.032,empathy_intonation_perc,2024.1.4,Win32,60.97560976,,,,,,,,,,,,,,7,albino,,,,,,235.1631,241.523,1,0,5.8256,,0,83,83,6,1,three_way_cognate,1,REAL,FALSA
,,,,,,,,,664d031e39f59ffa82289b1a,001,2024-06-30_06h35.06.032,empathy_intonation_perc,2024.1.4,Win32,60.97560976,,,,,,,,,,,,,,70,ánimo,,,,,,241.5432,243.2736,0,1,1.1996,,0,84,84,69,1,non_cognate,1,REAL,FALSA
,,,,,,,,,664d031e39f59ffa82289b1a,001,2024-06-30_06h35.06.032,empathy_intonation_perc,2024.1.4,Win32,60.97560976,,,,,,,,,,,,,,84,aviso,,,,,,243.2742,257.1446,0,1,13.3372,,0,85,85,83,1,non_cognate,1,REAL,FALSA
,,,,,,,,,664d031e39f59ffa82289b1a,001,2024-06-30_06h35.06.032,empathy_intonation_perc,2024.1.4,Win32,60.97560976,,,,,,,,,,,,,,19,mafia,,,,,,257.1629,258.4602,1,0,0.7646,,0,86,86,18,1,three_way_cognate,1,REAL,FALSA
,,,,,,,,,664d031e39f59ffa82289b1a,001,2024-06-30_06h35.06.032,empathy_intonation_perc,2024.1.4,Win32,60.97560976,,,,,,,,,,,,,,105,leniz,,,,,,258.4613,259.693,0,1,0.6988,,0,87,87,104,1,pseudoword,0,REAL,FALSA
,,,,,,,,,664d031e39f59ffa82289b1a,001,2024-06-30_06h35.06.032,empathy_intonation_perc,2024.1.4,Win32,60.97560976,,,,,,,,,,,,,,3,disco,,,,,,259.6938,260.8921,1,0,0.6659,,0,88,88,2,1,three_way_cognate,1,REAL,FALSA
,,,,,,,,,664d031e39f59ffa82289b1a,001,2024-06-30_06h35.06.032,empathy_intonation_perc,2024.1.4,Win32,60.97560976,,,,,,,,,,,,,,12,dogma,,,,,,260.8926,262.2436,0,1,0.8244,,0,89,89,11,1,three_way_cognate,1,REAL,FALSA
,,,,,,,,,664d031e39f59ffa82289b1a,001,2024-06-30_06h35.06.032,empathy_intonation_perc,2024.1.4,Win32,60.97560976,,,,,,,,,,,,,,5,extra,,,,,,262.2441,263.6734,1,0,0.8965,,0,90,90,4,1,three_way_cognate,1,REAL,FALSA
,,,,,,,,,664d031e39f59ffa82289b1a,001,2024-06-30_06h35.06.032,empathy_intonation_perc,2024.1.4,Win32,60.97560976,,,,,,,,,,,,,,11,golf,,,,,,263.674,264.7726,1,0,0.5713,,0,91,91,10,1,three_way_cognate,1,REAL,FALSA
,,,,,,,,,664d031e39f59ffa82289b1a,001,2024-06-30_06h35.06.032,empathy_intonation_perc,2024.1.4,Win32,60.97560976,,,,,,,,,,,,,,48,pelvis,,,,,,264.7732,266.0215,1,0,0.7151,,0,92,92,47,1,two_way_cognate,1,REAL,FALSA
,,,,,,,,,664d031e39f59ffa82289b1a,001,2024-06-30_06h35.06.032,empathy_intonation_perc,2024.1.4,Win32,60.97560976,,,,,,,,,,,,,,126,tobre,,,,,,266.0222,267.2541,0,1,0.7022,,0,93,93,125,1,pseudoword,0,REAL,FALSA
,,,,,,,,,664d031e39f59ffa82289b1a,001,2024-06-30_06h35.06.032,empathy_intonation_perc,2024.1.4,Win32,60.97560976,,,,,,,,,,,,,,169,pitis,,,,,,267.2547,268.4538,0,1,0.6645,,0,94,94,168,1,pseudoword,0,REAL,FALSA
,,,,,,,,,664d031e39f59ffa82289b1a,001,2024-06-30_06h35.06.032,empathy_intonation_perc,2024.1.4,Win32,60.97560976,,,,,,,,,,,,,,149,emén,,,,,,268.4542,270.2193,0,1,1.2355,,0,95,95,148,1,pseudoword,0,REAL,FALSA
,,,,,,,,,664d031e39f59ffa82289b1a,001,2024-06-30_06h35.06.032,empathy_intonation_perc,2024.1.4,Win32,60.97560976,,,,,,,,,,,,,,109,laras,,,,,,270.2199,271.3515,0,1,0.6012,,0,96,96,108,1,pseudoword,0,REAL,FALSA
,,,,,,,,,664d031e39f59ffa82289b1a,001,2024-06-30_06h35.06.032,empathy_intonation_perc,2024.1.4,Win32,60.97560976,,,,,,,,,,,,,,189,medium,,,,,,271.3527,272.5843,1,0,0.693,,0,97,97,188,1,pseudoword,0,REAL,FALSA
,,,,,,,,,664d031e39f59ffa82289b1a,001,2024-06-30_06h35.06.032,empathy_intonation_perc,2024.1.4,Win32,60.97560976,,,,,,,,,,,,,,187,nomata,,,,,,272.585,273.7829,0,1,0.6674,,0,98,98,186,1,pseudoword,0,REAL,FALSA
,,,,,,,,,664d031e39f59ffa82289b1a,001,2024-06-30_06h35.06.032,empathy_intonation_perc,2024.1.4,Win32,60.97560976,,,,,,,,,,,,,,181,gravés,,,,,,273.7839,275.432,0,1,1.115,,0,99,99,180,1,pseudoword,0,REAL,FALSA
,,,,,,,,,664d031e39f59ffa82289b1a,001,2024-06-30_06h35.06.032,empathy_intonation_perc,2024.1.4,Win32,60.97560976,,,,,,,,,,,,,,26,enigma,,,,,,275.4332,277.0982,1,0,1.1252,,0,100,100,25,1,two_way_cognate,1,REAL,FALSA
,,,,,,,,,664d031e39f59ffa82289b1a,001,2024-06-30_06h35.06.032,empathy_intonation_perc,2024.1.4,Win32,60.97560976,,,,,,,,,,,,,,66,aleta,,,,,,277.0994,278.1804,0,1,0.5477,,0,101,101,65,1,non_cognate,1,REAL,FALSA
,,,,,,,,,664d031e39f59ffa82289b1a,001,2024-06-30_06h35.06.032,empathy_intonation_perc,2024.1.4,Win32,60.97560976,,,,,,,,,,,,,,131,fuar,,,,,,278.1823,279.5457,0,1,0.832,,0,102,102,130,1,pseudoword,0,REAL,FALSA
,,,,,,,,,664d031e39f59ffa82289b1a,001,2024-06-30_06h35.06.032,empathy_intonation_perc,2024.1.4,Win32,60.97560976,,,,,,,,,,,,,,99,bugor,,,,,,279.5468,280.7453,0,1,0.6619,,0,103,103,98,1,pseudoword,0,REAL,FALSA
,,,,,,,,,664d031e39f59ffa82289b1a,001,2024-06-30_06h35.06.032,empathy_intonation_perc,2024.1.4,Win32,60.97560976,,,,,,,,,,,,,,54,tapón,,,,,,280.7461,282.228,0,1,0.9464,,0,104,104,53,1,non_cognate,1,REAL,FALSA
,,,,,,,,,664d031e39f59ffa82289b1a,001,2024-06-30_06h35.06.032,empathy_intonation_perc,2024.1.4,Win32,60.97560976,,,,,,,,,,,,,,67,llamar,,,,,,282.2287,283.476,1,0,0.7116,,0,105,105,66,1,non_cognate,1,REAL,FALSA
,,,,,,,,,664d031e39f59ffa82289b1a,001,2024-06-30_06h35.06.032,empathy_intonation_perc,2024.1.4,Win32,60.97560976,,,,,,,,,,,,,,119,esís,,,,,,283.4766,285.6913,0,1,1.6855,,0,106,106,118,1,pseudoword,0,REAL,FALSA
,,,,,,,,,664d031e39f59ffa82289b1a,001,2024-06-30_06h35.06.032,empathy_intonation_perc,2024.1.4,Win32,60.97560976,,,,,,,,,,,,,,191,frasis,,,,,,285.6922,286.9508,0,1,0.7272,,0,107,107,190,1,pseudoword,0,REAL,FALSA
,,,,,,,,,664d031e39f59ffa82289b1a,001,2024-06-30_06h35.06.032,empathy_intonation_perc,2024.1.4,Win32,60.97560976,,,,,,,,,,,,,,94,forro,,,,,,286.9513,288.023,0,1,0.5494,,0,108,108,93,1,non_cognate,1,REAL,FALSA
,,,,,,,,,664d031e39f59ffa82289b1a,001,2024-06-30_06h35.06.032,empathy_intonation_perc,2024.1.4,Win32,60.97560976,,,,,,,,,,,,,,40,pelvis,,,,,,288.0235,289.522,0,1,0.9651,,0,109,109,39,1,two_way_cognate,1,REAL,FALSA
,,,,,,,,,664d031e39f59ffa82289b1a,001,2024-06-30_06h35.06.032,empathy_intonation_perc,2024.1.4,Win32,60.97560976,,,,,,,,,,,,,,69,tiza,,,,,,289.5229,290.9544,0,1,0.9009,,0,110,110,68,1,non_cognate,1,REAL,FALSA
,,,,,,,,,664d031e39f59ffa82289b1a,001,2024-06-30_06h35.06.032,empathy_intonation_perc,2024.1.4,Win32,60.97560976,,,,,,,,,,,,,,161,civas,,,,,,290.9551,292.3369,0,1,0.8471,,0,111,111,160,1,pseudoword,0,REAL,FALSA
,,,,,,,,,664d031e39f59ffa82289b1a,001,2024-06-30_06h35.06.032,empathy_intonation_perc,2024.1.4,Win32,60.97560976,,,,,,,,,,,,,,129,vinzó,,,,,,292.3379,293.8856,0,1,1.0183,,0,112,112,128,1,pseudoword,0,REAL,FALSA
,,,,,,,,,664d031e39f59ffa82289b1a,001,2024-06-30_06h35.06.032,empathy_intonation_perc,2024.1.4,Win32,60.97560976,,,,,,,,,,,,,,31,civil,,,,,,293.8862,295.1186,1,0,0.6972,,0,113,113,30,1,two_way_cognate,1,REAL,FALSA
,,,,,,,,,664d031e39f59ffa82289b1a,001,2024-06-30_06h35.06.032,empathy_intonation_perc,2024.1.4,Win32,60.97560976,,,,,,,,,,,,,,148,gino,,,,,,295.1193,296.1505,0,1,0.5001,,0,114,114,147,1,pseudoword,0,REAL,FALSA
,,,,,,,,,664d031e39f59ffa82289b1a,001,2024-06-30_06h35.06.032,empathy_intonation_perc,2024.1.4,Win32,60.97560976,,,,,,,,,,,,,,37,torso,,,,,,296.1512,297.4664,1,0,0.7797,,0,115,115,36,1,two_way_cognate,1,REAL,FALSA
,,,,,,,,,664d031e39f59ffa82289b1a,001,2024-06-30_06h35.06.032,empathy_intonation_perc,2024.1.4,Win32,60.97560976,,,,,,,,,,,,,,124,lobe,,,,,,297.4677,298.7321,1,0,0.7361,,0,116,116,123,1,pseudoword,0,REAL,FALSA
,,,,,,,,,664d031e39f59ffa82289b1a,001,2024-06-30_06h35.06.032,empathy_intonation_perc,2024.1.4,Win32,60.97560976,,,,,,,,,,,,,,139,sasos,,,,,,298.7326,300.0144,0,1,0.7527,,0,117,117,138,1,pseudoword,0,REAL,FALSA
,,,,,,,,,664d031e39f59ffa82289b1a,001,2024-06-30_06h35.06.032,empathy_intonation_perc,2024.1.4,Win32,60.97560976,,,,,,,,,,,,,,53,punta,,,,,,300.0152,301.4147,1,0,0.8633,,0,118,118,52,1,non_cognate,1,REAL,FALSA
,,,,,,,,,664d031e39f59ffa82289b1a,001,2024-06-30_06h35.06.032,empathy_intonation_perc,2024.1.4,Win32,60.97560976,,,,,,,,,,,,,,134,molor,,,,,,301.4159,303.0126,0,1,1.0162,,0,119,119,133,1,pseudoword,0,REAL,FALSA
,,,,,,,,,664d031e39f59ffa82289b1a,001,2024-06-30_06h35.06.032,empathy_intonation_perc,2024.1.4,Win32,60.97560976,,,,,,,,,,,,,,123,arane,,,,,,303.0133,305.1786,0,1,1.6302,,0,120,120,122,1,pseudoword,0,REAL,FALSA
,,,,,,,,,664d031e39f59ffa82289b1a,001,2024-06-30_06h35.06.032,empathy_intonation_perc,2024.1.4,Win32,60.97560976,,,,,,,,,,,,,,65,guerra,,,,,,305.1798,306.5937,1,0,0.8771,,0,121,121,64,1,non_cognate,1,REAL,FALSA
,,,,,,,,,664d031e39f59ffa82289b1a,001,2024-06-30_06h35.06.032,empathy_intonation_perc,2024.1.4,Win32,60.97560976,,,,,,,,,,,,,,103,vueras,,,,,,306.5942,308.0929,0,1,0.9614,,0,122,122,102,1,pseudoword,0,REAL,FALSA
,,,,,,,,,664d031e39f59ffa82289b1a,001,2024-06-30_06h35.06.032,empathy_intonation_perc,2024.1.4,Win32,60.97560976,,,,,,,,,,,,,,144,diroco,,,,,,308.0933,309.2262,0,1,0.5931,,0,123,123,143,1,pseudoword,0,REAL,FALSA
,,,,,,,,,664d031e39f59ffa82289b1a,001,2024-06-30_06h35.06.032,empathy_intonation_perc,2024.1.4,Win32,60.97560976,,,,,,,,,,,,,,83,hálito,,,,,,309.2266,310.3575,0,1,0.5991,,0,124,124,82,1,non_cognate,1,REAL,FALSA
,,,,,,,,,664d031e39f59ffa82289b1a,001,2024-06-30_06h35.06.032,empathy_intonation_perc,2024.1.4,Win32,60.97560976,,,,,,,,,,,,,,108,jauda,,,,,,310.3585,311.3401,0,1,0.4455,,0,125,125,107,1,pseudoword,0,REAL,FALSA
,,,,,,,,,664d031e39f59ffa82289b1a,001,2024-06-30_06h35.06.032,empathy_intonation_perc,2024.1.4,Win32,60.97560976,,,,,,,,,,,,,,85,enorme,,,,,,311.3411,312.3399,0,1,0.4698,,0,126,126,84,1,non_cognate,1,REAL,FALSA
,,,,,,,,,664d031e39f59ffa82289b1a,001,2024-06-30_06h35.06.032,empathy_intonation_perc,2024.1.4,Win32,60.97560976,,,,,,,,,,,,,,24,retina,,,,,,312.3405,313.7397,1,0,0.8663,,0,127,127,23,1,three_way_cognate,1,REAL,FALSA
,,,,,,,,,664d031e39f59ffa82289b1a,001,2024-06-30_06h35.06.032,empathy_intonation_perc,2024.1.4,Win32,60.97560976,,,,,,,,,,,,,,56,pico,,,,,,313.7401,315.2384,1,0,0.9649,,0,128,128,55,1,non_cognate,1,REAL,FALSA
,,,,,,,,,664d031e39f59ffa82289b1a,001,2024-06-30_06h35.06.032,empathy_intonation_perc,2024.1.4,Win32,60.97560976,,,,,,,,,,,,,,120,mauja,,,,,,315.2389,316.5532,0,1,0.7804,,0,129,129,119,1,pseudoword,0,REAL,FALSA
,,,,,,,,,664d031e39f59ffa82289b1a,001,2024-06-30_06h35.06.032,empathy_intonation_perc,2024.1.4,Win32,60.97560976,,,,,,,,,,,,,,87,muleta,,,,,,316.5539,317.9694,0,1,0.8797,,0,130,130,86,1,non_cognate,1,REAL,FALSA
,,,,,,,,,664d031e39f59ffa82289b1a,001,2024-06-30_06h35.06.032,empathy_intonation_perc,2024.1.4,Win32,60.97560976,,,,,,,,,,,,,,35,aurora,,,,,,317.9699,319.3343,1,0,0.832,,0,131,131,34,1,two_way_cognate,1,REAL,FALSA
,,,,,,,,,664d031e39f59ffa82289b1a,001,2024-06-30_06h35.06.032,empathy_intonation_perc,2024.1.4,Win32,60.97560976,,,,,,,,,,,,,,17,clan,,,,,,319.3353,320.5844,1,0,0.7153,,0,132,132,16,1,three_way_cognate,1,REAL,FALSA
,,,,,,,,,664d031e39f59ffa82289b1a,001,2024-06-30_06h35.06.032,empathy_intonation_perc,2024.1.4,Win32,60.97560976,,,,,,,,,,,,,,114,dibrea,,,,,,320.5852,321.6991,0,1,0.5843,,0,133,133,113,1,pseudoword,0,REAL,FALSA
,,,,,,,,,664d031e39f59ffa82289b1a,001,2024-06-30_06h35.06.032,empathy_intonation_perc,2024.1.4,Win32,60.97560976,,,,,,,,,,,,,,13,plan,,,,,,321.7,322.9484,1,0,0.7127,,0,134,134,12,1,three_way_cognate,1,REAL,FALSA
,,,,,,,,,664d031e39f59ffa82289b1a,001,2024-06-30_06h35.06.032,empathy_intonation_perc,2024.1.4,Win32,60.97560976,,,,,,,,,,,,,,9,portal,,,,,,322.9496,324.248,1,0,0.7629,,0,135,135,8,1,three_way_cognate,1,REAL,FALSA
,,,,,,,,,664d031e39f59ffa82289b1a,001,2024-06-30_06h35.06.032,empathy_intonation_perc,2024.1.4,Win32,60.97560976,,,,,,,,,,,,,,130,dubo,,,,,,324.2488,325.3469,0,1,0.5614,,0,136,136,129,1,pseudoword,0,REAL,FALSA
,,,,,,,,,664d031e39f59ffa82289b1a,001,2024-06-30_06h35.06.032,empathy_intonation_perc,2024.1.4,Win32,60.97560976,,,,,,,,,,,,,,178,inichó,,,,,,325.3475,326.6128,0,1,0.7322,,0,137,137,177,1,pseudoword,0,REAL,FALSA
,,,,,,,,,664d031e39f59ffa82289b1a,001,2024-06-30_06h35.06.032,empathy_intonation_perc,2024.1.4,Win32,60.97560976,,,,,,,,,,,,,,33,collar,,,,,,326.6137,328.4282,1,0,1.2781,,0,138,138,32,1,two_way_cognate,1,REAL,FALSA
,,,,,,,,,664d031e39f59ffa82289b1a,001,2024-06-30_06h35.06.032,empathy_intonation_perc,2024.1.4,Win32,60.97560976,,,,,,,,,,,,,,104,estulo,,,,,,328.4289,329.5446,0,1,0.5777,,0,139,139,103,1,pseudoword,0,REAL,FALSA
,,,,,,,,,664d031e39f59ffa82289b1a,001,2024-06-30_06h35.06.032,empathy_intonation_perc,2024.1.4,Win32,60.97560976,,,,,,,,,,,,,,88,percha,,,,,,329.5453,330.9765,0,1,0.8988,,0,140,140,87,1,non_cognate,1,REAL,FALSA
,,,,,,,,,664d031e39f59ffa82289b1a,001,2024-06-30_06h35.06.032,empathy_intonation_perc,2024.1.4,Win32,60.97560976,,,,,,,,,,,,,,52,blando,,,,,,330.9774,333.3089,0,1,1.8005,,0,141,141,51,1,non_cognate,1,REAL,FALSA
,,,,,,,,,664d031e39f59ffa82289b1a,001,2024-06-30_06h35.06.032,empathy_intonation_perc,2024.1.4,Win32,60.97560976,,,,,,,,,,,,,,146,gió,,,,,,333.3104,334.6239,0,1,0.7833,,0,142,142,145,1,pseudoword,0,REAL,FALSA
,,,,,,,,,664d031e39f59ffa82289b1a,001,2024-06-30_06h35.06.032,empathy_intonation_perc,2024.1.4,Win32,60.97560976,,,,,,,,,,,,,,22,mango,,,,,,334.6246,336.0558,1,0,0.8963,,0,143,143,21,1,three_way_cognate,1,REAL,FALSA
,,,,,,,,,664d031e39f59ffa82289b1a,001,2024-06-30_06h35.06.032,empathy_intonation_perc,2024.1.4,Win32,60.97560976,,,,,,,,,,,,,,80,cuenco,,,,,,336.0568,337.2724,0,1,0.6822,,0,144,144,79,1,non_cognate,1,REAL,FALSA
,,,,,,,,,664d031e39f59ffa82289b1a,001,2024-06-30_06h35.06.032,empathy_intonation_perc,2024.1.4,Win32,60.97560976,,,,,,,,,,,,,,106,diebro,,,,,,337.2731,338.4875,0,1,0.6784,,0,145,145,105,1,pseudoword,0,REAL,FALSA
,,,,,,,,,664d031e39f59ffa82289b1a,001,2024-06-30_06h35.06.032,empathy_intonation_perc,2024.1.4,Win32,60.97560976,,,,,,,,,,,,,,151,prías,,,,,,338.4882,339.853,0,1,0.835,,0,146,146,150,1,pseudoword,0,REAL,FALSA
,,,,,,,,,664d031e39f59ffa82289b1a,001,2024-06-30_06h35.06.032,empathy_intonation_perc,2024.1.4,Win32,60.97560976,,,,,,,,,,,,,,73,llevar,,,,,,339.8538,341.1191,1,0,0.7318,,0,147,147,72,1,non_cognate,1,REAL,FALSA
,,,,,,,,,664d031e39f59ffa82289b1a,001,2024-06-30_06h35.06.032,empathy_intonation_perc,2024.1.4,Win32,60.97560976,,,,,,,,,,,,,,90,venado,,,,,,341.12,342.5181,0,1,0.8677,,0,148,148,89,1,non_cognate,1,REAL,FALSA
,,,,,,,,,664d031e39f59ffa82289b1a,001,2024-06-30_06h35.06.032,empathy_intonation_perc,2024.1.4,Win32,60.97560976,,,,,,,,,,,,,,51,listo,,,,,,342.5191,343.9336,1,0,0.8776,,0,149,149,50,1,non_cognate,1,REAL,FALSA
,,,,,,,,,664d031e39f59ffa82289b1a,001,2024-06-30_06h35.06.032,empathy_intonation_perc,2024.1.4,Win32,60.97560976,,,,,,,,,,,,,,175,tradía,,,,,,343.9342,345.2999,0,1,0.8296,,0,150,150,174,1,pseudoword,0,REAL,FALSA
,,,,,,,,,664d031e39f59ffa82289b1a,001,2024-06-30_06h35.06.032,empathy_intonation_perc,2024.1.4,Win32,60.97560976,,,,,,,,,,,,,,174,pabea,,,,,,345.3022,346.4984,0,1,0.6654,,0,151,151,173,1,pseudoword,0,REAL,FALSA
,,,,,,,,,664d031e39f59ffa82289b1a,001,2024-06-30_06h35.06.032,empathy_intonation_perc,2024.1.4,Win32,60.97560976,,,,,,,,,,,,,,188,amplir,,,,,,346.4993,347.9641,0,1,0.9032,,0,152,152,187,1,pseudoword,0,REAL,FALSA
,,,,,,,,,664d031e39f59ffa82289b1a,001,2024-06-30_06h35.06.032,empathy_intonation_perc,2024.1.4,Win32,60.97560976,,,,,,,,,,,,,,111,monue,,,,,,347.9649,349.1139,0,1,0.6139,,0,153,153,110,1,pseudoword,0,REAL,FALSA
,,,,,,,,,664d031e39f59ffa82289b1a,001,2024-06-30_06h35.06.032,empathy_intonation_perc,2024.1.4,Win32,60.97560976,,,,,,,,,,,,,,46,mortal,,,,,,349.1148,350.4459,1,0,0.8016,,0,154,154,45,1,two_way_cognate,1,REAL,FALSA
,,,,,,,,,664d031e39f59ffa82289b1a,001,2024-06-30_06h35.06.032,empathy_intonation_perc,2024.1.4,Win32,60.97560976,,,,,,,,,,,,,,160,fomeó,,,,,,350.447,351.5623,0,1,0.5809,,0,155,155,159,1,pseudoword,0,REAL,FALSA
,,,,,,,,,664d031e39f59ffa82289b1a,001,2024-06-30_06h35.06.032,empathy_intonation_perc,2024.1.4,Win32,60.97560976,,,,,,,,,,,,,,49,teñir,,,,,,351.5632,353.0119,1,0,0.9222,,0,156,156,48,1,non_cognate,1,REAL,FALSA
,,,,,,,,,664d031e39f59ffa82289b1a,001,2024-06-30_06h35.06.032,empathy_intonation_perc,2024.1.4,Win32,60.97560976,,,,,,,,,,,,,,132,nocó,,,,,,353.0126,354.1432,0,1,0.5972,,0,157,157,131,1,pseudoword,0,REAL,FALSA
,,,,,,,,,664d031e39f59ffa82289b1a,001,2024-06-30_06h35.06.032,empathy_intonation_perc,2024.1.4,Win32,60.97560976,,,,,,,,,,,,,,121,barbs,,,,,,354.1444,355.7421,1,0,1.0672,,0,158,158,120,1,pseudoword,0,REAL,FALSA
,,,,,,,,,664d031e39f59ffa82289b1a,001,2024-06-30_06h35.06.032,empathy_intonation_perc,2024.1.4,Win32,60.97560976,,,,,,,,,,,,,,176,gripar,,,,,,355.7425,359.2231,1,0,2.9435,,0,159,159,175,1,pseudoword,0,REAL,FALSA
,,,,,,,,,664d031e39f59ffa82289b1a,001,2024-06-30_06h35.06.032,empathy_intonation_perc,2024.1.4,Win32,60.97560976,,,,,,,,,,,,,,171,gotro,,,,,,359.2241,360.4386,0,1,0.6821,,0,160,160,170,1,pseudoword,0,REAL,FALSA
,,,,,,,,,664d031e39f59ffa82289b1a,001,2024-06-30_06h35.06.032,empathy_intonation_perc,2024.1.4,Win32,60.97560976,,,,,,,,,,,,,,78,rendir,,,,,,360.4392,361.8712,1,0,0.9018,,0,161,161,77,1,non_cognate,1,REAL,FALSA
,,,,,,,,,664d031e39f59ffa82289b1a,001,2024-06-30_06h35.06.032,empathy_intonation_perc,2024.1.4,Win32,60.97560976,,,,,,,,,,,,,,172,dogue,,,,,,361.8725,362.5875,0,1,0.1895,,0,162,162,171,1,pseudoword,0,REAL,FALSA
,,,,,,,,,664d031e39f59ffa82289b1a,001,2024-06-30_06h35.06.032,empathy_intonation_perc,2024.1.4,Win32,60.97560976,,,,,,,,,,,,,,2,tumor,,,,,,362.5886,363.8696,1,0,0.7531,,0,163,163,1,1,three_way_cognate,1,REAL,FALSA
,,,,,,,,,664d031e39f59ffa82289b1a,001,2024-06-30_06h35.06.032,empathy_intonation_perc,2024.1.4,Win32,60.97560976,,,,,,,,,,,,,,192,próces,,,,,,363.8703,365.3351,0,1,0.9345,,0,164,164,191,1,pseudoword,0,REAL,FALSA
,,,,,,,,,664d031e39f59ffa82289b1a,001,2024-06-30_06h35.06.032,empathy_intonation_perc,2024.1.4,Win32,60.97560976,,,,,,,,,,,,,,23,plural,,,,,,365.3358,366.6687,1,0,0.8019,,0,165,165,22,1,three_way_cognate,1,REAL,FALSA
,,,,,,,,,664d031e39f59ffa82289b1a,001,2024-06-30_06h35.06.032,empathy_intonation_perc,2024.1.4,Win32,60.97560976,,,,,,,,,,,,,,159,trcia,,,,,,366.6705,367.7169,0,1,0.5195,,0,166,166,158,1,pseudoword,0,REAL,FALSA
,,,,,,,,,664d031e39f59ffa82289b1a,001,2024-06-30_06h35.06.032,empathy_intonation_perc,2024.1.4,Win32,60.97560976,,,,,,,,,,,,,,140,chorde,,,,,,367.718,369.2505,0,1,0.9962,,0,167,167,139,1,pseudoword,0,REAL,FALSA
,,,,,,,,,664d031e39f59ffa82289b1a,001,2024-06-30_06h35.06.032,empathy_intonation_perc,2024.1.4,Win32,60.97560976,,,,,,,,,,,,,,62,pegar,,,,,,369.2516,370.8316,0,1,1.0494,,0,168,168,61,1,non_cognate,1,REAL,FALSA
,,,,,,,,,664d031e39f59ffa82289b1a,001,2024-06-30_06h35.06.032,empathy_intonation_perc,2024.1.4,Win32,60.97560976,,,,,,,,,,,,,,100,épinas,,,,,,370.8324,372.1311,0,1,0.7609,,0,169,169,99,1,pseudoword,0,REAL,FALSA
,,,,,,,,,664d031e39f59ffa82289b1a,001,2024-06-30_06h35.06.032,empathy_intonation_perc,2024.1.4,Win32,60.97560976,,,,,,,,,,,,,,38,halo,,,,,,372.1322,373.5304,1,0,0.8654,,0,170,170,37,1,two_way_cognate,1,REAL,FALSA
,,,,,,,,,664d031e39f59ffa82289b1a,001,2024-06-30_06h35.06.032,empathy_intonation_perc,2024.1.4,Win32,60.97560976,,,,,,,,,,,,,,29,clamor,,,,,,373.5313,374.9285,1,0,0.8669,,0,171,171,28,1,two_way_cognate,1,REAL,FALSA
,,,,,,,,,664d031e39f59ffa82289b1a,001,2024-06-30_06h35.06.032,empathy_intonation_perc,2024.1.4,Win32,60.97560976,,,,,,,,,,,,,,190,asumie,,,,,,374.9291,376.2282,0,1,0.7624,,0,172,172,189,1,pseudoword,0,REAL,FALSA
,,,,,,,,,664d031e39f59ffa82289b1a,001,2024-06-30_06h35.06.032,empathy_intonation_perc,2024.1.4,Win32,60.97560976,,,,,,,,,,,,,,167,dobbo,,,,,,376.2292,377.2777,0,1,0.5196,,0,173,173,166,1,pseudoword,0,REAL,FALSA
,,,,,,,,,664d031e39f59ffa82289b1a,001,2024-06-30_06h35.06.032,empathy_intonation_perc,2024.1.4,Win32,60.97560976,,,,,,,,,,,,,,8,kilo,,,,,,377.2785,378.7258,0,1,0.9211,,0,174,174,7,1,three_way_cognate,1,REAL,FALSA
,,,,,,,,,664d031e39f59ffa82289b1a,001,2024-06-30_06h35.06.032,empathy_intonation_perc,2024.1.4,Win32,60.97560976,,,,,,,,,,,,,,96,caro,,,,,,378.7264,380.1086,0,1,0.8545,,0,175,175,95,1,non_cognate,1,REAL,FALSA
,,,,,,,,,664d031e39f59ffa82289b1a,001,2024-06-30_06h35.06.032,empathy_intonation_perc,2024.1.4,Win32,60.97560976,,,,,,,,,,,,,,118,bará,,,,,,380.1099,381.9571,0,1,1.312,,0,176,176,117,1,pseudoword,0,REAL,FALSA
,,,,,,,,,664d031e39f59ffa82289b1a,001,2024-06-30_06h35.06.032,empathy_intonation_perc,2024.1.4,Win32,60.97560976,,,,,,,,,,,,,,153,golla,,,,,,381.9576,383.1901,0,1,0.7,,0,177,177,152,1,pseudoword,0,REAL,FALSA
,,,,,,,,,664d031e39f59ffa82289b1a,001,2024-06-30_06h35.06.032,empathy_intonation_perc,2024.1.4,Win32,60.97560976,,,,,,,,,,,,,,64,rizado,,,,,,383.191,384.2585,0,1,0.5274,,0,178,178,63,1,non_cognate,1,REAL,FALSA
,,,,,,,,,664d031e39f59ffa82289b1a,001,2024-06-30_06h35.06.032,empathy_intonation_perc,2024.1.4,Win32,60.97560976,,,,,,,,,,,,,,95,listo,,,,,,384.2593,385.5047,1,0,0.7195,,0,179,179,94,1,non_cognate,1,REAL,FALSA
,,,,,,,,,664d031e39f59ffa82289b1a,001,2024-06-30_06h35.06.032,empathy_intonation_perc,2024.1.4,Win32,60.97560976,,,,,,,,,,,,,,86,cuenco,,,,,,385.5053,386.6706,0,1,0.6331,,0,180,180,85,1,non_cognate,1,REAL,FALSA
,,,,,,,,,664d031e39f59ffa82289b1a,001,2024-06-30_06h35.06.032,empathy_intonation_perc,2024.1.4,Win32,60.97560976,,,,,,,,,,,,,,157,seled,,,,,,386.6712,388.1193,0,1,0.9129,,0,181,181,156,1,pseudoword,0,REAL,FALSA
,,,,,,,,,664d031e39f59ffa82289b1a,001,2024-06-30_06h35.06.032,empathy_intonation_perc,2024.1.4,Win32,60.97560976,,,,,,,,,,,,,,34,actor,,,,,,388.1202,389.4018,1,0,0.751,,0,182,182,33,1,two_way_cognate,1,REAL,FALSA
,,,,,,,,,664d031e39f59ffa82289b1a,001,2024-06-30_06h35.06.032,empathy_intonation_perc,2024.1.4,Win32,60.97560976,,,,,,,,,,,,,,61,aduana,,,,,,389.4027,390.5342,0,1,0.5937,,0,183,183,60,1,non_cognate,1,REAL,FALSA
,,,,,,,,,664d031e39f59ffa82289b1a,001,2024-06-30_06h35.06.032,empathy_intonation_perc,2024.1.4,Win32,60.97560976,,,,,,,,,,,,,,10,drama,,,,,,390.5356,392.3496,1,0,1.2816,,0,184,184,9,1,three_way_cognate,1,REAL,FALSA
,,,,,,,,,664d031e39f59ffa82289b1a,001,2024-06-30_06h35.06.032,empathy_intonation_perc,2024.1.4,Win32,60.97560976,,,,,,,,,,,,,,141,virios,,,,,,392.3502,393.6842,0,1,0.8062,,0,185,185,140,1,pseudoword,0,REAL,FALSA
,,,,,,,,,664d031e39f59ffa82289b1a,001,2024-06-30_06h35.06.032,empathy_intonation_perc,2024.1.4,Win32,60.97560976,,,,,,,,,,,,,,183,edioso,,,,,,393.6847,394.8649,0,1,0.6464,,0,186,186,182,1,pseudoword,0,REAL,FALSA
,,,,,,,,,664d031e39f59ffa82289b1a,001,2024-06-30_06h35.06.032,empathy_intonation_perc,2024.1.4,Win32,60.97560976,,,,,,,,,,,,,,136,hueas,,,,,,394.8658,396.1137,0,1,0.7129,,0,187,187,135,1,pseudoword,0,REAL,FALSA
,,,,,,,,,664d031e39f59ffa82289b1a,001,2024-06-30_06h35.06.032,empathy_intonation_perc,2024.1.4,Win32,60.97560976,,,,,,,,,,,,,,1,moral,,,,,,396.1146,397.3805,1,0,0.7296,,0,188,188,0,1,three_way_cognate,1,REAL,FALSA
,,,,,,,,,664d031e39f59ffa82289b1a,001,2024-06-30_06h35.06.032,empathy_intonation_perc,2024.1.4,Win32,60.97560976,,,,,,,,,,,,,,142,parre,,,,,,397.3819,398.9463,0,1,1.0313,,0,189,189,141,1,pseudoword,0,REAL,FALSA
,,,,,,,,,664d031e39f59ffa82289b1a,001,2024-06-30_06h35.06.032,empathy_intonation_perc,2024.1.4,Win32,60.97560976,,,,,,,,,,,,,,162,cengo,,,,,,398.9473,400.0446,0,1,0.5669,,0,190,190,161,1,pseudoword,0,REAL,FALSA
,,,,,,,,,664d031e39f59ffa82289b1a,001,2024-06-30_06h35.06.032,empathy_intonation_perc,2024.1.4,Win32,60.97560976,,,,,,,,,,,,,,71,torta,,,,,,400.0451,401.3102,1,0,0.7346,,0,191,191,70,1,non_cognate,1,REAL,FALSA
