lextale_instructions.started,lextale_instructions.stopped,lextale_instructions_loop.thisRepN,lextale_instructions_loop.thisTrialN,lextale_instructions_loop.thisN,lextale_instructions_loop.thisIndex,lextale_instructions_loop.ran,instructions_text,continue_text,participant,session,date,expName,psychopyVersion,OS,frameRate,lextale_practice.started,lextale_practice.stopped,key_resp_lextale_practice.keys,key_resp_lextale_practice.corr,key_resp_lextale_practice.rt,key_resp_lextale_practice.duration,lextale_practice_feedback.started,lextale_practice_feedback.stopped,lextale_practice_trials.thisRepN,lextale_practice_trials.thisTrialN,lextale_practice_trials.thisN,lextale_practice_trials.thisIndex,lextale_practice_trials.ran,stim,word,correct_response,prac_button_real,prac_button_false,lextale_check.started,lextale_check.stopped,lextale_trial.started,lextale_trial.stopped,key_resp_lextale_trial.keys,key_resp_lextale_trial.corr,key_resp_lextale_trial.rt,key_resp_lextale_trial.duration,lextail_trials.thisRepN,lextail_trials.thisTrialN,lextail_trials.thisN,lextail_trials.thisIndex,lextail_trials.ran,type,correct_reponse,button_real,button_false
0.0026,2.7627,0,0,0,0,1,"Este es un test de vocabulario en español. 
  
  A continuación vas a ver 90 secuencias de letras que parecen 'españolas'.
  
  Solo algunas de ellas son palabras de verdad.",(presiona la barra espaciadora para continuar),6660dbf811e5973ac3fbbc44,001,2024-06-30_04h51.51.912,empathy_intonation_perc,2024.1.4,Win32,58.47953216,,,,,,,,,,,,,,,,,,,,,,,,,,,,,,,,,,,
2.7632,5.7135,0,1,1,1,1,"Por favor, señala las palabras que tú conoces (aquellas que estás convencido que son palabras españolas, incluso aunque no seas capaz de dar el significado preciso).",(presiona la barra espaciadora para continuar),6660dbf811e5973ac3fbbc44,001,2024-06-30_04h51.51.912,empathy_intonation_perc,2024.1.4,Win32,58.47953216,,,,,,,,,,,,,,,,,,,,,,,,,,,,,,,,,,,
5.7138,8.5958,0,2,2,2,1,Pero cuidado: los errores se penalizan. Por eso no tiene sentido tratar de incrementar tu puntuación marcando como reales palabras que nunca has visto.,(presiona la barra espaciadora para continuar),6660dbf811e5973ac3fbbc44,001,2024-06-30_04h51.51.912,empathy_intonation_perc,2024.1.4,Win32,58.47953216,,,,,,,,,,,,,,,,,,,,,,,,,,,,,,,,,,,
8.5962,11.8791,0,3,3,3,1,"Presiona la tecla 1 si piensas que es una palabra real y la tecla 
  0 si piensas que es una palabra falsa. 
  
  Vamos a practicar un poco...",(presiona la barra espaciadora para continuar),6660dbf811e5973ac3fbbc44,001,2024-06-30_04h51.51.912,empathy_intonation_perc,2024.1.4,Win32,58.47953216,,,,,,,,,,,,,,,,,,,,,,,,,,,,,,,,,,,
,,,,,,,,,6660dbf811e5973ac3fbbc44,001,2024-06-30_04h51.51.912,empathy_intonation_perc,2024.1.4,Win32,58.47953216,11.8809,16.8967,1,0,4.4742,,16.8968,17.8964,0,0,0,0,1,0,depiste,0,REAL,FALSA,,,,,,,,,,,,,,,,,
,,,,,,,,,6660dbf811e5973ac3fbbc44,001,2024-06-30_04h51.51.912,empathy_intonation_perc,2024.1.4,Win32,58.47953216,17.8968,19.4293,1,1,0.9946,,19.4294,20.429,0,1,1,1,1,0,sí,1,REAL,FALSA,,,,,,,,,,,,,,,,,
,,,,,,,,,6660dbf811e5973ac3fbbc44,001,2024-06-30_04h51.51.912,empathy_intonation_perc,2024.1.4,Win32,58.47953216,20.4293,22.1292,0,1,1.157,,22.1292,23.1294,0,2,2,2,1,0,coné,0,REAL,FALSA,,,,,,,,,,,,,,,,,
,,,,,,,,,6660dbf811e5973ac3fbbc44,001,2024-06-30_04h51.51.912,empathy_intonation_perc,2024.1.4,Win32,58.47953216,23.1299,25.2967,0,1,1.6172,,25.2968,26.2969,0,3,3,3,1,0,calpar,0,REAL,FALSA,,,,,,,,,,,,,,,,,
,,,,,,,,,6660dbf811e5973ac3fbbc44,001,2024-06-30_04h51.51.912,empathy_intonation_perc,2024.1.4,Win32,58.47953216,26.2973,27.6962,0,1,0.8585,,27.6962,28.697,0,4,4,4,1,0,joten,0,REAL,FALSA,,,,,,,,,,,,,,,,,
,,,,,,,,,6660dbf811e5973ac3fbbc44,001,2024-06-30_04h51.51.912,empathy_intonation_perc,2024.1.4,Win32,58.47953216,28.6975,31.097,1,1,1.8506,,31.097,32.0971,0,5,5,5,1,0,sacapuntas,1,REAL,FALSA,,,,,,,,,,,,,,,,,
,,,,,,,,,6660dbf811e5973ac3fbbc44,001,2024-06-30_04h51.51.912,empathy_intonation_perc,2024.1.4,Win32,58.47953216,32.0975,33.3797,0,1,0.7382,,33.3797,34.3799,0,6,6,6,1,0,priba,0,REAL,FALSA,,,,,,,,,,,,,,,,,
,,,,,,,,,6660dbf811e5973ac3fbbc44,001,2024-06-30_04h51.51.912,empathy_intonation_perc,2024.1.4,Win32,58.47953216,34.3802,36.5966,1,0,1.687,,36.5967,37.5964,0,7,7,7,1,0,pelasula,0,REAL,FALSA,,,,,,,,,,,,,,,,,
,,,,,,,,,6660dbf811e5973ac3fbbc44,001,2024-06-30_04h51.51.912,empathy_intonation_perc,2024.1.4,Win32,58.47953216,37.597,38.8134,1,1,0.6864,,38.8135,39.8137,0,8,8,8,1,0,bien,1,REAL,FALSA,,,,,,,,,,,,,,,,,
,,,,,,,,,6660dbf811e5973ac3fbbc44,001,2024-06-30_04h51.51.912,empathy_intonation_perc,2024.1.4,Win32,58.47953216,39.8139,41.047,1,1,0.6933,,41.0471,42.0473,0,9,9,9,1,0,casa,1,REAL,FALSA,,,,,,,,,,,,,,,,,
,,,,,,,,,6660dbf811e5973ac3fbbc44,001,2024-06-30_04h51.51.912,empathy_intonation_perc,2024.1.4,Win32,58.47953216,42.0477,43.3962,0,1,0.8129,,43.3962,44.3965,0,10,10,10,1,0,lejo,0,REAL,FALSA,,,,,,,,,,,,,,,,,
,,,,,,,,,6660dbf811e5973ac3fbbc44,001,2024-06-30_04h51.51.912,empathy_intonation_perc,2024.1.4,Win32,58.47953216,44.397,45.963,0,1,1.0465,,45.963,46.9636,0,11,11,11,1,0,pretantas,0,REAL,FALSA,,,,,,,,,,,,,,,,,
,,,,,,,,,6660dbf811e5973ac3fbbc44,001,2024-06-30_04h51.51.912,empathy_intonation_perc,2024.1.4,Win32,58.47953216,,,,,,,,,,,,,,,,,,,46.9639,53.7143,,,,,,,,,,,,,,,
,,,,,,,,,6660dbf811e5973ac3fbbc44,001,2024-06-30_04h51.51.912,empathy_intonation_perc,2024.1.4,Win32,58.47953216,,,,,,,,,,,,,,50,sierra,,,,,,53.7231,55.8474,1,0,1.5926,,0,0,0,49,1,non_cognate,1,REAL,FALSA
,,,,,,,,,6660dbf811e5973ac3fbbc44,001,2024-06-30_04h51.51.912,empathy_intonation_perc,2024.1.4,Win32,58.47953216,,,,,,,,,,,,,,28,ardor,,,,,,55.848,58.2133,0,1,1.8279,,0,1,1,27,1,two_way_cognate,1,REAL,FALSA
,,,,,,,,,6660dbf811e5973ac3fbbc44,001,2024-06-30_04h51.51.912,empathy_intonation_perc,2024.1.4,Win32,58.47953216,,,,,,,,,,,,,,126,tobre,,,,,,58.2136,59.6642,0,1,0.9179,,0,2,2,125,1,pseudoword,0,REAL,FALSA
,,,,,,,,,6660dbf811e5973ac3fbbc44,001,2024-06-30_04h51.51.912,empathy_intonation_perc,2024.1.4,Win32,58.47953216,,,,,,,,,,,,,,107,plago,,,,,,59.6647,60.8807,0,1,0.6677,,0,3,3,106,1,pseudoword,0,REAL,FALSA
,,,,,,,,,6660dbf811e5973ac3fbbc44,001,2024-06-30_04h51.51.912,empathy_intonation_perc,2024.1.4,Win32,58.47953216,,,,,,,,,,,,,,64,rizado,,,,,,60.881,62.2479,0,1,0.8178,,0,4,4,63,1,non_cognate,1,REAL,FALSA
,,,,,,,,,6660dbf811e5973ac3fbbc44,001,2024-06-30_04h51.51.912,empathy_intonation_perc,2024.1.4,Win32,58.47953216,,,,,,,,,,,,,,191,frasis,,,,,,62.2484,63.5801,0,1,0.797,,0,5,5,190,1,pseudoword,0,REAL,FALSA
,,,,,,,,,6660dbf811e5973ac3fbbc44,001,2024-06-30_04h51.51.912,empathy_intonation_perc,2024.1.4,Win32,58.47953216,,,,,,,,,,,,,,35,aurora,,,,,,63.5803,64.597,1,0,0.4869,,0,6,6,34,1,two_way_cognate,1,REAL,FALSA
,,,,,,,,,6660dbf811e5973ac3fbbc44,001,2024-06-30_04h51.51.912,empathy_intonation_perc,2024.1.4,Win32,58.47953216,,,,,,,,,,,,,,136,hueas,,,,,,64.5974,66.2137,0,1,1.0949,,0,7,7,135,1,pseudoword,0,REAL,FALSA
,,,,,,,,,6660dbf811e5973ac3fbbc44,001,2024-06-30_04h51.51.912,empathy_intonation_perc,2024.1.4,Win32,58.47953216,,,,,,,,,,,,,,114,dibrea,,,,,,66.214,67.7802,0,1,1.0379,,0,8,8,113,1,pseudoword,0,REAL,FALSA
,,,,,,,,,6660dbf811e5973ac3fbbc44,001,2024-06-30_04h51.51.912,empathy_intonation_perc,2024.1.4,Win32,58.47953216,,,,,,,,,,,,,,164,tecia,,,,,,67.7805,69.247,1,0,0.9431,,0,9,9,163,1,pseudoword,0,REAL,FALSA
,,,,,,,,,6660dbf811e5973ac3fbbc44,001,2024-06-30_04h51.51.912,empathy_intonation_perc,2024.1.4,Win32,58.47953216,,,,,,,,,,,,,,43,honor,,,,,,69.2475,70.2807,1,0,0.509,,0,10,10,42,1,two_way_cognate,1,REAL,FALSA
,,,,,,,,,6660dbf811e5973ac3fbbc44,001,2024-06-30_04h51.51.912,empathy_intonation_perc,2024.1.4,Win32,58.47953216,,,,,,,,,,,,,,95,listo,,,,,,70.2812,72.131,1,0,1.3004,,0,11,11,94,1,non_cognate,1,REAL,FALSA
,,,,,,,,,6660dbf811e5973ac3fbbc44,001,2024-06-30_04h51.51.912,empathy_intonation_perc,2024.1.4,Win32,58.47953216,,,,,,,,,,,,,,148,gino,,,,,,72.1313,73.3637,0,1,0.6971,,0,12,12,147,1,pseudoword,0,REAL,FALSA
,,,,,,,,,6660dbf811e5973ac3fbbc44,001,2024-06-30_04h51.51.912,empathy_intonation_perc,2024.1.4,Win32,58.47953216,,,,,,,,,,,,,,122,boñaz,,,,,,73.3639,74.9472,0,1,1.0644,,0,13,13,121,1,pseudoword,0,REAL,FALSA
,,,,,,,,,6660dbf811e5973ac3fbbc44,001,2024-06-30_04h51.51.912,empathy_intonation_perc,2024.1.4,Win32,58.47953216,,,,,,,,,,,,,,120,mauja,,,,,,74.9475,76.8807,1,0,1.4089,,0,14,14,119,1,pseudoword,0,REAL,FALSA
,,,,,,,,,6660dbf811e5973ac3fbbc44,001,2024-06-30_04h51.51.912,empathy_intonation_perc,2024.1.4,Win32,58.47953216,,,,,,,,,,,,,,24,retina,,,,,,76.881,78.4474,1,0,1.0264,,0,15,15,23,1,three_way_cognate,1,REAL,FALSA
,,,,,,,,,6660dbf811e5973ac3fbbc44,001,2024-06-30_04h51.51.912,empathy_intonation_perc,2024.1.4,Win32,58.47953216,,,,,,,,,,,,,,11,golf,,,,,,78.4477,79.531,1,0,0.5649,,0,16,16,10,1,three_way_cognate,1,REAL,FALSA
,,,,,,,,,6660dbf811e5973ac3fbbc44,001,2024-06-30_04h51.51.912,empathy_intonation_perc,2024.1.4,Win32,58.47953216,,,,,,,,,,,,,,127,vien,,,,,,79.5313,81.1308,0,1,1.0561,,0,17,17,126,1,pseudoword,0,REAL,FALSA
,,,,,,,,,6660dbf811e5973ac3fbbc44,001,2024-06-30_04h51.51.912,empathy_intonation_perc,2024.1.4,Win32,58.47953216,,,,,,,,,,,,,,30,fiscal,,,,,,81.131,82.7485,1,0,1.0837,,0,18,18,29,1,two_way_cognate,1,REAL,FALSA
,,,,,,,,,6660dbf811e5973ac3fbbc44,001,2024-06-30_04h51.51.912,empathy_intonation_perc,2024.1.4,Win32,58.47953216,,,,,,,,,,,,,,178,inichó,,,,,,82.7488,84.8982,1,0,1.6006,,0,19,19,177,1,pseudoword,0,REAL,FALSA
,,,,,,,,,6660dbf811e5973ac3fbbc44,001,2024-06-30_04h51.51.912,empathy_intonation_perc,2024.1.4,Win32,58.47953216,,,,,,,,,,,,,,133,conso,,,,,,84.8986,86.1144,0,1,0.6747,,0,20,20,132,1,pseudoword,0,REAL,FALSA
,,,,,,,,,6660dbf811e5973ac3fbbc44,001,2024-06-30_04h51.51.912,empathy_intonation_perc,2024.1.4,Win32,58.47953216,,,,,,,,,,,,,,190,asumie,,,,,,86.1148,87.3976,0,1,0.7452,,0,21,21,189,1,pseudoword,0,REAL,FALSA
,,,,,,,,,6660dbf811e5973ac3fbbc44,001,2024-06-30_04h51.51.912,empathy_intonation_perc,2024.1.4,Win32,58.47953216,,,,,,,,,,,,,,141,virios,,,,,,87.398,88.5474,0,1,0.6302,,0,22,22,140,1,pseudoword,0,REAL,FALSA
,,,,,,,,,6660dbf811e5973ac3fbbc44,001,2024-06-30_04h51.51.912,empathy_intonation_perc,2024.1.4,Win32,58.47953216,,,,,,,,,,,,,,53,punta,,,,,,88.5476,89.765,1,0,0.6888,,0,23,23,52,1,non_cognate,1,REAL,FALSA
,,,,,,,,,6660dbf811e5973ac3fbbc44,001,2024-06-30_04h51.51.912,empathy_intonation_perc,2024.1.4,Win32,58.47953216,,,,,,,,,,,,,,14,aura,,,,,,89.7652,90.9314,1,0,0.6314,,0,24,24,13,1,three_way_cognate,1,REAL,FALSA
,,,,,,,,,6660dbf811e5973ac3fbbc44,001,2024-06-30_04h51.51.912,empathy_intonation_perc,2024.1.4,Win32,58.47953216,,,,,,,,,,,,,,71,torta,,,,,,90.9318,92.4489,1,0,0.977,,0,25,25,70,1,non_cognate,1,REAL,FALSA
,,,,,,,,,6660dbf811e5973ac3fbbc44,001,2024-06-30_04h51.51.912,empathy_intonation_perc,2024.1.4,Win32,58.47953216,,,,,,,,,,,,,,65,guerra,,,,,,92.4492,94.0652,1,0,1.0677,,0,26,26,64,1,non_cognate,1,REAL,FALSA
,,,,,,,,,6660dbf811e5973ac3fbbc44,001,2024-06-30_04h51.51.912,empathy_intonation_perc,2024.1.4,Win32,58.47953216,,,,,,,,,,,,,,106,diebro,,,,,,94.0656,95.4477,0,1,0.8347,,0,27,27,105,1,pseudoword,0,REAL,FALSA
,,,,,,,,,6660dbf811e5973ac3fbbc44,001,2024-06-30_04h51.51.912,empathy_intonation_perc,2024.1.4,Win32,58.47953216,,,,,,,,,,,,,,138,tator,,,,,,95.448,96.7481,0,1,0.7667,,0,28,28,137,1,pseudoword,0,REAL,FALSA
,,,,,,,,,6660dbf811e5973ac3fbbc44,001,2024-06-30_04h51.51.912,empathy_intonation_perc,2024.1.4,Win32,58.47953216,,,,,,,,,,,,,,168,cobén,,,,,,96.7484,98.0312,0,1,0.7601,,0,29,29,167,1,pseudoword,0,REAL,FALSA
,,,,,,,,,6660dbf811e5973ac3fbbc44,001,2024-06-30_04h51.51.912,empathy_intonation_perc,2024.1.4,Win32,58.47953216,,,,,,,,,,,,,,103,vueras,,,,,,98.0315,99.3478,0,1,0.7803,,0,30,30,102,1,pseudoword,0,REAL,FALSA
,,,,,,,,,6660dbf811e5973ac3fbbc44,001,2024-06-30_04h51.51.912,empathy_intonation_perc,2024.1.4,Win32,58.47953216,,,,,,,,,,,,,,58,colcha,,,,,,99.348,100.3155,1,0,0.4345,,0,31,31,57,1,non_cognate,1,REAL,FALSA
,,,,,,,,,6660dbf811e5973ac3fbbc44,001,2024-06-30_04h51.51.912,empathy_intonation_perc,2024.1.4,Win32,58.47953216,,,,,,,,,,,,,,51,listo,,,,,,100.3158,101.4482,1,0,0.5933,,0,32,32,50,1,non_cognate,1,REAL,FALSA
,,,,,,,,,6660dbf811e5973ac3fbbc44,001,2024-06-30_04h51.51.912,empathy_intonation_perc,2024.1.4,Win32,58.47953216,,,,,,,,,,,,,,36,viable,,,,,,101.4487,102.7312,1,0,0.7479,,0,33,33,35,1,two_way_cognate,1,REAL,FALSA
,,,,,,,,,6660dbf811e5973ac3fbbc44,001,2024-06-30_04h51.51.912,empathy_intonation_perc,2024.1.4,Win32,58.47953216,,,,,,,,,,,,,,26,enigma,,,,,,102.7314,103.9642,1,0,0.6969,,0,34,34,25,1,two_way_cognate,1,REAL,FALSA
,,,,,,,,,6660dbf811e5973ac3fbbc44,001,2024-06-30_04h51.51.912,empathy_intonation_perc,2024.1.4,Win32,58.47953216,,,,,,,,,,,,,,54,tapón,,,,,,103.9644,105.3652,0,1,0.8713,,0,35,35,53,1,non_cognate,1,REAL,FALSA
,,,,,,,,,6660dbf811e5973ac3fbbc44,001,2024-06-30_04h51.51.912,empathy_intonation_perc,2024.1.4,Win32,58.47953216,,,,,,,,,,,,,,29,clamor,,,,,,105.3656,107.3653,1,0,1.4556,,0,36,36,28,1,two_way_cognate,1,REAL,FALSA
,,,,,,,,,6660dbf811e5973ac3fbbc44,001,2024-06-30_04h51.51.912,empathy_intonation_perc,2024.1.4,Win32,58.47953216,,,,,,,,,,,,,,7,albino,,,,,,107.366,108.6815,1,0,0.7755,,0,37,37,6,1,three_way_cognate,1,REAL,FALSA
,,,,,,,,,6660dbf811e5973ac3fbbc44,001,2024-06-30_04h51.51.912,empathy_intonation_perc,2024.1.4,Win32,58.47953216,,,,,,,,,,,,,,179,suelet,,,,,,108.6819,109.9315,0,1,0.7062,,0,38,38,178,1,pseudoword,0,REAL,FALSA
,,,,,,,,,6660dbf811e5973ac3fbbc44,001,2024-06-30_04h51.51.912,empathy_intonation_perc,2024.1.4,Win32,58.47953216,,,,,,,,,,,,,,156,ozoso,,,,,,109.9318,111.8662,0,1,1.3931,,0,39,39,155,1,pseudoword,0,REAL,FALSA
,,,,,,,,,6660dbf811e5973ac3fbbc44,001,2024-06-30_04h51.51.912,empathy_intonation_perc,2024.1.4,Win32,58.47953216,,,,,,,,,,,,,,165,chote,,,,,,111.8669,113.2333,1,0,0.8188,,0,40,40,164,1,pseudoword,0,REAL,FALSA
,,,,,,,,,6660dbf811e5973ac3fbbc44,001,2024-06-30_04h51.51.912,empathy_intonation_perc,2024.1.4,Win32,58.47953216,,,,,,,,,,,,,,117,morrá,,,,,,113.2335,114.6342,1,0,0.8678,,0,41,41,116,1,pseudoword,0,REAL,FALSA
,,,,,,,,,6660dbf811e5973ac3fbbc44,001,2024-06-30_04h51.51.912,empathy_intonation_perc,2024.1.4,Win32,58.47953216,,,,,,,,,,,,,,70,ánimo,,,,,,114.6344,116.1318,0,1,0.95,,0,42,42,69,1,non_cognate,1,REAL,FALSA
,,,,,,,,,6660dbf811e5973ac3fbbc44,001,2024-06-30_04h51.51.912,empathy_intonation_perc,2024.1.4,Win32,58.47953216,,,,,,,,,,,,,,160,fomeó,,,,,,116.1321,117.6655,0,1,0.9848,,0,43,43,159,1,pseudoword,0,REAL,FALSA
,,,,,,,,,6660dbf811e5973ac3fbbc44,001,2024-06-30_04h51.51.912,empathy_intonation_perc,2024.1.4,Win32,58.47953216,,,,,,,,,,,,,,129,vinzó,,,,,,117.6659,118.9487,0,1,0.7385,,0,44,44,128,1,pseudoword,0,REAL,FALSA
,,,,,,,,,6660dbf811e5973ac3fbbc44,001,2024-06-30_04h51.51.912,empathy_intonation_perc,2024.1.4,Win32,58.47953216,,,,,,,,,,,,,,55,maldad,,,,,,118.9492,120.1157,1,0,0.624,,0,45,45,54,1,non_cognate,1,REAL,FALSA
,,,,,,,,,6660dbf811e5973ac3fbbc44,001,2024-06-30_04h51.51.912,empathy_intonation_perc,2024.1.4,Win32,58.47953216,,,,,,,,,,,,,,90,venado,,,,,,120.1164,121.282,1,0,0.6306,,0,46,46,89,1,non_cognate,1,REAL,FALSA
,,,,,,,,,6660dbf811e5973ac3fbbc44,001,2024-06-30_04h51.51.912,empathy_intonation_perc,2024.1.4,Win32,58.47953216,,,,,,,,,,,,,,63,hilo,,,,,,121.2824,122.5652,0,1,0.7545,,0,47,47,62,1,non_cognate,1,REAL,FALSA
,,,,,,,,,6660dbf811e5973ac3fbbc44,001,2024-06-30_04h51.51.912,empathy_intonation_perc,2024.1.4,Win32,58.47953216,,,,,,,,,,,,,,6,horror,,,,,,122.5654,123.5816,1,0,0.4974,,0,48,48,5,1,three_way_cognate,1,REAL,FALSA
,,,,,,,,,6660dbf811e5973ac3fbbc44,001,2024-06-30_04h51.51.912,empathy_intonation_perc,2024.1.4,Win32,58.47953216,,,,,,,,,,,,,,88,percha,,,,,,123.5818,124.716,1,0,0.6005,,0,49,49,87,1,non_cognate,1,REAL,FALSA
,,,,,,,,,6660dbf811e5973ac3fbbc44,001,2024-06-30_04h51.51.912,empathy_intonation_perc,2024.1.4,Win32,58.47953216,,,,,,,,,,,,,,145,rúo,,,,,,124.7164,125.9485,0,1,0.6978,,0,50,50,144,1,pseudoword,0,REAL,FALSA
,,,,,,,,,6660dbf811e5973ac3fbbc44,001,2024-06-30_04h51.51.912,empathy_intonation_perc,2024.1.4,Win32,58.47953216,,,,,,,,,,,,,,32,animal,,,,,,125.9488,126.9984,1,0,0.5292,,0,51,51,31,1,two_way_cognate,1,REAL,FALSA
,,,,,,,,,6660dbf811e5973ac3fbbc44,001,2024-06-30_04h51.51.912,empathy_intonation_perc,2024.1.4,Win32,58.47953216,,,,,,,,,,,,,,142,parre,,,,,,126.9986,128.3986,1,0,0.8784,,0,52,52,141,1,pseudoword,0,REAL,FALSA
,,,,,,,,,6660dbf811e5973ac3fbbc44,001,2024-06-30_04h51.51.912,empathy_intonation_perc,2024.1.4,Win32,58.47953216,,,,,,,,,,,,,,2,tumor,,,,,,128.3992,129.4659,1,0,0.5173,,0,53,53,1,1,three_way_cognate,1,REAL,FALSA
,,,,,,,,,6660dbf811e5973ac3fbbc44,001,2024-06-30_04h51.51.912,empathy_intonation_perc,2024.1.4,Win32,58.47953216,,,,,,,,,,,,,,87,muleta,,,,,,129.4665,130.9818,0,1,0.9793,,0,54,54,86,1,non_cognate,1,REAL,FALSA
,,,,,,,,,6660dbf811e5973ac3fbbc44,001,2024-06-30_04h51.51.912,empathy_intonation_perc,2024.1.4,Win32,58.47953216,,,,,,,,,,,,,,182,desaro,,,,,,130.982,132.0998,0,1,0.5906,,0,55,55,181,1,pseudoword,0,REAL,FALSA
,,,,,,,,,6660dbf811e5973ac3fbbc44,001,2024-06-30_04h51.51.912,empathy_intonation_perc,2024.1.4,Win32,58.47953216,,,,,,,,,,,,,,49,teñir,,,,,,132.1001,133.2321,0,1,0.5853,,0,56,56,48,1,non_cognate,1,REAL,FALSA
,,,,,,,,,6660dbf811e5973ac3fbbc44,001,2024-06-30_04h51.51.912,empathy_intonation_perc,2024.1.4,Win32,58.47953216,,,,,,,,,,,,,,124,lobe,,,,,,133.2324,134.5162,1,0,0.7507,,0,57,57,123,1,pseudoword,0,REAL,FALSA
,,,,,,,,,6660dbf811e5973ac3fbbc44,001,2024-06-30_04h51.51.912,empathy_intonation_perc,2024.1.4,Win32,58.47953216,,,,,,,,,,,,,,108,jauda,,,,,,134.5169,135.8327,0,1,0.7773,,0,58,58,107,1,pseudoword,0,REAL,FALSA
,,,,,,,,,6660dbf811e5973ac3fbbc44,001,2024-06-30_04h51.51.912,empathy_intonation_perc,2024.1.4,Win32,58.47953216,,,,,,,,,,,,,,37,torso,,,,,,135.8332,137.0326,1,0,0.6514,,0,59,59,36,1,two_way_cognate,1,REAL,FALSA
,,,,,,,,,6660dbf811e5973ac3fbbc44,001,2024-06-30_04h51.51.912,empathy_intonation_perc,2024.1.4,Win32,58.47953216,,,,,,,,,,,,,,4,flora,,,,,,137.0328,138.0665,1,0,0.4931,,0,60,60,3,1,three_way_cognate,1,REAL,FALSA
,,,,,,,,,6660dbf811e5973ac3fbbc44,001,2024-06-30_04h51.51.912,empathy_intonation_perc,2024.1.4,Win32,58.47953216,,,,,,,,,,,,,,159,trcia,,,,,,138.0669,139.4158,0,1,0.8118,,0,61,61,158,1,pseudoword,0,REAL,FALSA
,,,,,,,,,6660dbf811e5973ac3fbbc44,001,2024-06-30_04h51.51.912,empathy_intonation_perc,2024.1.4,Win32,58.47953216,,,,,,,,,,,,,,146,gió,,,,,,139.4162,140.8327,0,1,0.8687,,0,62,62,145,1,pseudoword,0,REAL,FALSA
,,,,,,,,,6660dbf811e5973ac3fbbc44,001,2024-06-30_04h51.51.912,empathy_intonation_perc,2024.1.4,Win32,58.47953216,,,,,,,,,,,,,,180,pupica,,,,,,140.8332,142.2162,0,1,0.845,,0,63,63,179,1,pseudoword,0,REAL,FALSA
,,,,,,,,,6660dbf811e5973ac3fbbc44,001,2024-06-30_04h51.51.912,empathy_intonation_perc,2024.1.4,Win32,58.47953216,,,,,,,,,,,,,,163,olzan,,,,,,142.2166,143.2992,0,1,0.557,,0,64,64,162,1,pseudoword,0,REAL,FALSA
,,,,,,,,,6660dbf811e5973ac3fbbc44,001,2024-06-30_04h51.51.912,empathy_intonation_perc,2024.1.4,Win32,58.47953216,,,,,,,,,,,,,,78,rendir,,,,,,143.2999,146.4493,0,1,2.6025,,0,65,65,77,1,non_cognate,1,REAL,FALSA
,,,,,,,,,6660dbf811e5973ac3fbbc44,001,2024-06-30_04h51.51.912,empathy_intonation_perc,2024.1.4,Win32,58.47953216,,,,,,,,,,,,,,99,bugor,,,,,,146.4497,147.5834,0,1,0.588,,0,66,66,98,1,pseudoword,0,REAL,FALSA
,,,,,,,,,6660dbf811e5973ac3fbbc44,001,2024-06-30_04h51.51.912,empathy_intonation_perc,2024.1.4,Win32,58.47953216,,,,,,,,,,,,,,131,fuar,,,,,,147.5838,148.6492,0,1,0.5262,,0,67,67,130,1,pseudoword,0,REAL,FALSA
,,,,,,,,,6660dbf811e5973ac3fbbc44,001,2024-06-30_04h51.51.912,empathy_intonation_perc,2024.1.4,Win32,58.47953216,,,,,,,,,,,,,,52,blando,,,,,,148.6497,150.2661,0,1,1.0848,,0,68,68,51,1,non_cognate,1,REAL,FALSA
,,,,,,,,,6660dbf811e5973ac3fbbc44,001,2024-06-30_04h51.51.912,empathy_intonation_perc,2024.1.4,Win32,58.47953216,,,,,,,,,,,,,,176,gripar,,,,,,150.2663,151.9325,1,0,1.1403,,0,69,69,175,1,pseudoword,0,REAL,FALSA
,,,,,,,,,6660dbf811e5973ac3fbbc44,001,2024-06-30_04h51.51.912,empathy_intonation_perc,2024.1.4,Win32,58.47953216,,,,,,,,,,,,,,56,pico,,,,,,151.9327,153.0826,1,0,0.6261,,0,70,70,55,1,non_cognate,1,REAL,FALSA
,,,,,,,,,6660dbf811e5973ac3fbbc44,001,2024-06-30_04h51.51.912,empathy_intonation_perc,2024.1.4,Win32,58.47953216,,,,,,,,,,,,,,134,molor,,,,,,153.0829,154.4333,0,1,0.8282,,0,71,71,133,1,pseudoword,0,REAL,FALSA
,,,,,,,,,6660dbf811e5973ac3fbbc44,001,2024-06-30_04h51.51.912,empathy_intonation_perc,2024.1.4,Win32,58.47953216,,,,,,,,,,,,,,33,collar,,,,,,154.4338,155.5008,1,0,0.5165,,0,72,72,32,1,two_way_cognate,1,REAL,FALSA
,,,,,,,,,6660dbf811e5973ac3fbbc44,001,2024-06-30_04h51.51.912,empathy_intonation_perc,2024.1.4,Win32,58.47953216,,,,,,,,,,,,,,175,tradía,,,,,,155.5011,156.7328,0,1,0.69,,0,73,73,174,1,pseudoword,0,REAL,FALSA
,,,,,,,,,6660dbf811e5973ac3fbbc44,001,2024-06-30_04h51.51.912,empathy_intonation_perc,2024.1.4,Win32,58.47953216,,,,,,,,,,,,,,45,total,,,,,,156.7331,157.7325,1,0,0.4639,,0,74,74,44,1,two_way_cognate,1,REAL,FALSA
,,,,,,,,,6660dbf811e5973ac3fbbc44,001,2024-06-30_04h51.51.912,empathy_intonation_perc,2024.1.4,Win32,58.47953216,,,,,,,,,,,,,,192,próces,,,,,,157.7327,159.1657,0,1,0.9143,,0,75,75,191,1,pseudoword,0,REAL,FALSA
,,,,,,,,,6660dbf811e5973ac3fbbc44,001,2024-06-30_04h51.51.912,empathy_intonation_perc,2024.1.4,Win32,58.47953216,,,,,,,,,,,,,,9,portal,,,,,,159.166,160.1493,1,0,0.4645,,0,76,76,8,1,three_way_cognate,1,REAL,FALSA
,,,,,,,,,6660dbf811e5973ac3fbbc44,001,2024-06-30_04h51.51.912,empathy_intonation_perc,2024.1.4,Win32,58.47953216,,,,,,,,,,,,,,128,pelí,,,,,,160.1495,161.233,0,1,0.552,,0,77,77,127,1,pseudoword,0,REAL,FALSA
,,,,,,,,,6660dbf811e5973ac3fbbc44,001,2024-06-30_04h51.51.912,empathy_intonation_perc,2024.1.4,Win32,58.47953216,,,,,,,,,,,,,,100,épinas,,,,,,161.2333,162.4992,0,1,0.7176,,0,78,78,99,1,pseudoword,0,REAL,FALSA
,,,,,,,,,6660dbf811e5973ac3fbbc44,001,2024-06-30_04h51.51.912,empathy_intonation_perc,2024.1.4,Win32,58.47953216,,,,,,,,,,,,,,60,siglo,,,,,,162.4995,163.867,0,1,0.8344,,0,79,79,59,1,non_cognate,1,REAL,FALSA
,,,,,,,,,6660dbf811e5973ac3fbbc44,001,2024-06-30_04h51.51.912,empathy_intonation_perc,2024.1.4,Win32,58.47953216,,,,,,,,,,,,,,84,aviso,,,,,,163.8673,164.9498,1,0,0.5475,,0,80,80,83,1,non_cognate,1,REAL,FALSA
,,,,,,,,,6660dbf811e5973ac3fbbc44,001,2024-06-30_04h51.51.912,empathy_intonation_perc,2024.1.4,Win32,58.47953216,,,,,,,,,,,,,,66,aleta,,,,,,164.9501,166.233,0,1,0.7601,,0,81,81,65,1,non_cognate,1,REAL,FALSA
,,,,,,,,,6660dbf811e5973ac3fbbc44,001,2024-06-30_04h51.51.912,empathy_intonation_perc,2024.1.4,Win32,58.47953216,,,,,,,,,,,,,,27,piano,,,,,,166.2335,167.3826,1,0,0.6124,,0,82,82,26,1,two_way_cognate,1,REAL,FALSA
,,,,,,,,,6660dbf811e5973ac3fbbc44,001,2024-06-30_04h51.51.912,empathy_intonation_perc,2024.1.4,Win32,58.47953216,,,,,,,,,,,,,,171,gotro,,,,,,167.3828,168.4998,0,1,0.567,,0,83,83,170,1,pseudoword,0,REAL,FALSA
,,,,,,,,,6660dbf811e5973ac3fbbc44,001,2024-06-30_04h51.51.912,empathy_intonation_perc,2024.1.4,Win32,58.47953216,,,,,,,,,,,,,,25,vigor,,,,,,168.5003,169.5502,1,0,0.4998,,0,84,84,24,1,two_way_cognate,1,REAL,FALSA
,,,,,,,,,6660dbf811e5973ac3fbbc44,001,2024-06-30_04h51.51.912,empathy_intonation_perc,2024.1.4,Win32,58.47953216,,,,,,,,,,,,,,79,suelo,,,,,,169.5506,170.8673,1,0,0.7674,,0,85,85,78,1,non_cognate,1,REAL,FALSA
,,,,,,,,,6660dbf811e5973ac3fbbc44,001,2024-06-30_04h51.51.912,empathy_intonation_perc,2024.1.4,Win32,58.47953216,,,,,,,,,,,,,,119,esís,,,,,,170.8677,172.1167,0,1,0.708,,0,86,86,118,1,pseudoword,0,REAL,FALSA
,,,,,,,,,6660dbf811e5973ac3fbbc44,001,2024-06-30_04h51.51.912,empathy_intonation_perc,2024.1.4,Win32,58.47953216,,,,,,,,,,,,,,22,mango,,,,,,172.1175,173.0675,1,0,0.401,,0,87,87,21,1,three_way_cognate,1,REAL,FALSA
,,,,,,,,,6660dbf811e5973ac3fbbc44,001,2024-06-30_04h51.51.912,empathy_intonation_perc,2024.1.4,Win32,58.47953216,,,,,,,,,,,,,,135,panté,,,,,,173.068,174.2166,1,0,0.6027,,0,88,88,134,1,pseudoword,0,REAL,FALSA
,,,,,,,,,6660dbf811e5973ac3fbbc44,001,2024-06-30_04h51.51.912,empathy_intonation_perc,2024.1.4,Win32,58.47953216,,,,,,,,,,,,,,161,civas,,,,,,174.2169,175.4002,0,1,0.6452,,0,89,89,160,1,pseudoword,0,REAL,FALSA
,,,,,,,,,6660dbf811e5973ac3fbbc44,001,2024-06-30_04h51.51.912,empathy_intonation_perc,2024.1.4,Win32,58.47953216,,,,,,,,,,,,,,75,patada,,,,,,175.4006,176.683,0,1,0.742,,0,90,90,74,1,non_cognate,1,REAL,FALSA
,,,,,,,,,6660dbf811e5973ac3fbbc44,001,2024-06-30_04h51.51.912,empathy_intonation_perc,2024.1.4,Win32,58.47953216,,,,,,,,,,,,,,86,cuenco,,,,,,176.6834,177.9172,0,1,0.7009,,0,91,91,85,1,non_cognate,1,REAL,FALSA
,,,,,,,,,6660dbf811e5973ac3fbbc44,001,2024-06-30_04h51.51.912,empathy_intonation_perc,2024.1.4,Win32,58.47953216,,,,,,,,,,,,,,115,lidena,,,,,,177.9174,179.1663,0,1,0.713,,0,92,92,114,1,pseudoword,0,REAL,FALSA
,,,,,,,,,6660dbf811e5973ac3fbbc44,001,2024-06-30_04h51.51.912,empathy_intonation_perc,2024.1.4,Win32,58.47953216,,,,,,,,,,,,,,1,moral,,,,,,179.1666,180.334,1,0,0.6339,,0,93,93,0,1,three_way_cognate,1,REAL,FALSA
,,,,,,,,,6660dbf811e5973ac3fbbc44,001,2024-06-30_04h51.51.912,empathy_intonation_perc,2024.1.4,Win32,58.47953216,,,,,,,,,,,,,,17,clan,,,,,,180.3345,181.667,0,1,0.7841,,0,94,94,16,1,three_way_cognate,1,REAL,FALSA
,,,,,,,,,6660dbf811e5973ac3fbbc44,001,2024-06-30_04h51.51.912,empathy_intonation_perc,2024.1.4,Win32,58.47953216,,,,,,,,,,,,,,112,samón,,,,,,181.6674,182.9837,0,1,0.771,,0,95,95,111,1,pseudoword,0,REAL,FALSA
,,,,,,,,,6660dbf811e5973ac3fbbc44,001,2024-06-30_04h51.51.912,empathy_intonation_perc,2024.1.4,Win32,58.47953216,,,,,,,,,,,,,,158,babrá,,,,,,182.984,184.3505,0,1,0.8226,,0,96,96,157,1,pseudoword,0,REAL,FALSA
,,,,,,,,,6660dbf811e5973ac3fbbc44,001,2024-06-30_04h51.51.912,empathy_intonation_perc,2024.1.4,Win32,58.47953216,,,,,,,,,,,,,,116,grigir,,,,,,184.3509,197.2012,0,1,12.304,,0,97,97,115,1,pseudoword,0,REAL,FALSA
,,,,,,,,,6660dbf811e5973ac3fbbc44,001,2024-06-30_04h51.51.912,empathy_intonation_perc,2024.1.4,Win32,58.47953216,,,,,,,,,,,,,,31,civil,,,,,,197.2069,198.4507,1,0,0.7019,,0,98,98,30,1,two_way_cognate,1,REAL,FALSA
,,,,,,,,,6660dbf811e5973ac3fbbc44,001,2024-06-30_04h51.51.912,empathy_intonation_perc,2024.1.4,Win32,58.47953216,,,,,,,,,,,,,,19,mafia,,,,,,198.4512,199.5338,1,0,0.5334,,0,99,99,18,1,three_way_cognate,1,REAL,FALSA
,,,,,,,,,6660dbf811e5973ac3fbbc44,001,2024-06-30_04h51.51.912,empathy_intonation_perc,2024.1.4,Win32,58.47953216,,,,,,,,,,,,,,69,tiza,,,,,,199.5342,200.718,0,1,0.6572,,0,100,100,68,1,non_cognate,1,REAL,FALSA
,,,,,,,,,6660dbf811e5973ac3fbbc44,001,2024-06-30_04h51.51.912,empathy_intonation_perc,2024.1.4,Win32,58.47953216,,,,,,,,,,,,,,74,ala,,,,,,200.7184,201.9177,0,1,0.6507,,0,101,101,73,1,non_cognate,1,REAL,FALSA
,,,,,,,,,6660dbf811e5973ac3fbbc44,001,2024-06-30_04h51.51.912,empathy_intonation_perc,2024.1.4,Win32,58.47953216,,,,,,,,,,,,,,125,ceme,,,,,,201.9181,203.3503,0,1,0.9143,,0,102,102,124,1,pseudoword,0,REAL,FALSA
,,,,,,,,,6660dbf811e5973ac3fbbc44,001,2024-06-30_04h51.51.912,empathy_intonation_perc,2024.1.4,Win32,58.47953216,,,,,,,,,,,,,,183,edioso,,,,,,203.3506,204.6174,0,1,0.72,,0,103,103,182,1,pseudoword,0,REAL,FALSA
,,,,,,,,,6660dbf811e5973ac3fbbc44,001,2024-06-30_04h51.51.912,empathy_intonation_perc,2024.1.4,Win32,58.47953216,,,,,,,,,,,,,,83,hálito,,,,,,204.6179,205.8003,0,1,0.6461,,0,104,104,82,1,non_cognate,1,REAL,FALSA
,,,,,,,,,6660dbf811e5973ac3fbbc44,001,2024-06-30_04h51.51.912,empathy_intonation_perc,2024.1.4,Win32,58.47953216,,,,,,,,,,,,,,140,chorde,,,,,,205.8005,206.9176,1,0,0.5911,,0,105,105,139,1,pseudoword,0,REAL,FALSA
,,,,,,,,,6660dbf811e5973ac3fbbc44,001,2024-06-30_04h51.51.912,empathy_intonation_perc,2024.1.4,Win32,58.47953216,,,,,,,,,,,,,,143,hurcos,,,,,,206.918,208.1506,0,1,0.6982,,0,106,106,142,1,pseudoword,0,REAL,FALSA
,,,,,,,,,6660dbf811e5973ac3fbbc44,001,2024-06-30_04h51.51.912,empathy_intonation_perc,2024.1.4,Win32,58.47953216,,,,,,,,,,,,,,67,llamar,,,,,,208.1509,209.3343,1,0,0.6404,,0,107,107,66,1,non_cognate,1,REAL,FALSA
,,,,,,,,,6660dbf811e5973ac3fbbc44,001,2024-06-30_04h51.51.912,empathy_intonation_perc,2024.1.4,Win32,58.47953216,,,,,,,,,,,,,,47,color,,,,,,209.3348,210.2848,1,0,0.4011,,0,108,108,46,1,two_way_cognate,1,REAL,FALSA
,,,,,,,,,6660dbf811e5973ac3fbbc44,001,2024-06-30_04h51.51.912,empathy_intonation_perc,2024.1.4,Win32,58.47953216,,,,,,,,,,,,,,181,gravés,,,,,,210.2855,211.5672,0,1,0.7462,,0,109,109,180,1,pseudoword,0,REAL,FALSA
,,,,,,,,,6660dbf811e5973ac3fbbc44,001,2024-06-30_04h51.51.912,empathy_intonation_perc,2024.1.4,Win32,58.47953216,,,,,,,,,,,,,,89,muñeca,,,,,,211.5674,212.5841,1,0,0.4959,,0,110,110,88,1,non_cognate,1,REAL,FALSA
,,,,,,,,,6660dbf811e5973ac3fbbc44,001,2024-06-30_04h51.51.912,empathy_intonation_perc,2024.1.4,Win32,58.47953216,,,,,,,,,,,,,,96,caro,,,,,,212.5845,214.1513,1,0,1.0227,,0,111,111,95,1,non_cognate,1,REAL,FALSA
,,,,,,,,,6660dbf811e5973ac3fbbc44,001,2024-06-30_04h51.51.912,empathy_intonation_perc,2024.1.4,Win32,58.47953216,,,,,,,,,,,,,,174,pabea,,,,,,214.1516,215.3344,0,1,0.6482,,0,112,112,173,1,pseudoword,0,REAL,FALSA
,,,,,,,,,6660dbf811e5973ac3fbbc44,001,2024-06-30_04h51.51.912,empathy_intonation_perc,2024.1.4,Win32,58.47953216,,,,,,,,,,,,,,23,plural,,,,,,215.3346,216.3673,1,0,0.5136,,0,113,113,22,1,three_way_cognate,1,REAL,FALSA
,,,,,,,,,6660dbf811e5973ac3fbbc44,001,2024-06-30_04h51.51.912,empathy_intonation_perc,2024.1.4,Win32,58.47953216,,,,,,,,,,,,,,105,leniz,,,,,,216.3675,217.5509,0,1,0.6336,,0,114,114,104,1,pseudoword,0,REAL,FALSA
,,,,,,,,,6660dbf811e5973ac3fbbc44,001,2024-06-30_04h51.51.912,empathy_intonation_perc,2024.1.4,Win32,58.47953216,,,,,,,,,,,,,,169,pitis,,,,,,217.5512,218.7516,0,1,0.6669,,0,115,115,168,1,pseudoword,0,REAL,FALSA
,,,,,,,,,6660dbf811e5973ac3fbbc44,001,2024-06-30_04h51.51.912,empathy_intonation_perc,2024.1.4,Win32,58.47953216,,,,,,,,,,,,,,3,disco,,,,,,218.7521,219.8013,1,0,0.5124,,0,116,116,2,1,three_way_cognate,1,REAL,FALSA
,,,,,,,,,6660dbf811e5973ac3fbbc44,001,2024-06-30_04h51.51.912,empathy_intonation_perc,2024.1.4,Win32,58.47953216,,,,,,,,,,,,,,82,brillo,,,,,,219.8016,221.0184,1,0,0.6698,,0,117,117,81,1,non_cognate,1,REAL,FALSA
,,,,,,,,,6660dbf811e5973ac3fbbc44,001,2024-06-30_04h51.51.912,empathy_intonation_perc,2024.1.4,Win32,58.47953216,,,,,,,,,,,,,,172,dogue,,,,,,221.0188,222.2013,0,1,0.6375,,0,118,118,171,1,pseudoword,0,REAL,FALSA
,,,,,,,,,6660dbf811e5973ac3fbbc44,001,2024-06-30_04h51.51.912,empathy_intonation_perc,2024.1.4,Win32,58.47953216,,,,,,,,,,,,,,187,nomata,,,,,,222.2017,223.4016,0,1,0.6619,,0,119,119,186,1,pseudoword,0,REAL,FALSA
,,,,,,,,,6660dbf811e5973ac3fbbc44,001,2024-06-30_04h51.51.912,empathy_intonation_perc,2024.1.4,Win32,58.47953216,,,,,,,,,,,,,,189,medium,,,,,,223.4021,224.5012,1,0,0.5582,,0,120,120,188,1,pseudoword,0,REAL,FALSA
,,,,,,,,,6660dbf811e5973ac3fbbc44,001,2024-06-30_04h51.51.912,empathy_intonation_perc,2024.1.4,Win32,58.47953216,,,,,,,,,,,,,,85,enorme,,,,,,224.5014,225.7185,0,1,0.6905,,0,121,121,84,1,non_cognate,1,REAL,FALSA
,,,,,,,,,6660dbf811e5973ac3fbbc44,001,2024-06-30_04h51.51.912,empathy_intonation_perc,2024.1.4,Win32,58.47953216,,,,,,,,,,,,,,109,laras,,,,,,225.7189,227.6344,0,1,1.3768,,0,122,122,108,1,pseudoword,0,REAL,FALSA
,,,,,,,,,6660dbf811e5973ac3fbbc44,001,2024-06-30_04h51.51.912,empathy_intonation_perc,2024.1.4,Win32,58.47953216,,,,,,,,,,,,,,167,dobbo,,,,,,227.6346,228.8181,0,1,0.6614,,0,123,123,166,1,pseudoword,0,REAL,FALSA
,,,,,,,,,6660dbf811e5973ac3fbbc44,001,2024-06-30_04h51.51.912,empathy_intonation_perc,2024.1.4,Win32,58.47953216,,,,,,,,,,,,,,185,aljizo,,,,,,228.8185,229.9677,0,1,0.6302,,0,124,124,184,1,pseudoword,0,REAL,FALSA
,,,,,,,,,6660dbf811e5973ac3fbbc44,001,2024-06-30_04h51.51.912,empathy_intonation_perc,2024.1.4,Win32,58.47953216,,,,,,,,,,,,,,188,amplir,,,,,,229.9679,231.0015,0,1,0.5033,,0,125,125,187,1,pseudoword,0,REAL,FALSA
,,,,,,,,,6660dbf811e5973ac3fbbc44,001,2024-06-30_04h51.51.912,empathy_intonation_perc,2024.1.4,Win32,58.47953216,,,,,,,,,,,,,,34,actor,,,,,,231.0018,232.0014,1,0,0.453,,0,126,126,33,1,two_way_cognate,1,REAL,FALSA
,,,,,,,,,6660dbf811e5973ac3fbbc44,001,2024-06-30_04h51.51.912,empathy_intonation_perc,2024.1.4,Win32,58.47953216,,,,,,,,,,,,,,21,hotel,,,,,,232.0018,232.9354,1,0,0.4068,,0,127,127,20,1,three_way_cognate,1,REAL,FALSA
,,,,,,,,,6660dbf811e5973ac3fbbc44,001,2024-06-30_04h51.51.912,empathy_intonation_perc,2024.1.4,Win32,58.47953216,,,,,,,,,,,,,,123,arane,,,,,,232.9357,234.1849,0,1,0.7044,,0,128,128,122,1,pseudoword,0,REAL,FALSA
,,,,,,,,,6660dbf811e5973ac3fbbc44,001,2024-06-30_04h51.51.912,empathy_intonation_perc,2024.1.4,Win32,58.47953216,,,,,,,,,,,,,,91,equipo,,,,,,234.1853,235.5183,1,0,0.7832,,0,129,129,90,1,non_cognate,1,REAL,FALSA
,,,,,,,,,6660dbf811e5973ac3fbbc44,001,2024-06-30_04h51.51.912,empathy_intonation_perc,2024.1.4,Win32,58.47953216,,,,,,,,,,,,,,186,rizate,,,,,,235.5186,236.7511,0,1,0.6973,,0,130,130,185,1,pseudoword,0,REAL,FALSA
,,,,,,,,,6660dbf811e5973ac3fbbc44,001,2024-06-30_04h51.51.912,empathy_intonation_perc,2024.1.4,Win32,58.47953216,,,,,,,,,,,,,,76,chocar,,,,,,236.7515,237.9522,0,1,0.6671,,0,131,131,75,1,non_cognate,1,REAL,FALSA
,,,,,,,,,6660dbf811e5973ac3fbbc44,001,2024-06-30_04h51.51.912,empathy_intonation_perc,2024.1.4,Win32,58.47953216,,,,,,,,,,,,,,153,golla,,,,,,237.9526,239.1182,0,1,0.6178,,0,132,132,152,1,pseudoword,0,REAL,FALSA
,,,,,,,,,6660dbf811e5973ac3fbbc44,001,2024-06-30_04h51.51.912,empathy_intonation_perc,2024.1.4,Win32,58.47953216,,,,,,,,,,,,,,77,suave,,,,,,239.1184,240.3513,0,1,0.7136,,0,133,133,76,1,non_cognate,1,REAL,FALSA
,,,,,,,,,6660dbf811e5973ac3fbbc44,001,2024-06-30_04h51.51.912,empathy_intonation_perc,2024.1.4,Win32,58.47953216,,,,,,,,,,,,,,102,coyo,,,,,,240.3515,242.4016,0,1,1.5286,,0,134,134,101,1,pseudoword,0,REAL,FALSA
,,,,,,,,,6660dbf811e5973ac3fbbc44,001,2024-06-30_04h51.51.912,empathy_intonation_perc,2024.1.4,Win32,58.47953216,,,,,,,,,,,,,,104,estulo,,,,,,242.402,243.3853,1,0,0.4377,,0,135,135,103,1,pseudoword,0,REAL,FALSA
,,,,,,,,,6660dbf811e5973ac3fbbc44,001,2024-06-30_04h51.51.912,empathy_intonation_perc,2024.1.4,Win32,58.47953216,,,,,,,,,,,,,,101,losco,,,,,,243.3857,244.6353,0,1,0.7024,,0,136,136,100,1,pseudoword,0,REAL,FALSA
,,,,,,,,,6660dbf811e5973ac3fbbc44,001,2024-06-30_04h51.51.912,empathy_intonation_perc,2024.1.4,Win32,58.47953216,,,,,,,,,,,,,,8,kilo,,,,,,244.6356,245.7357,1,0,0.5504,,0,137,137,7,1,three_way_cognate,1,REAL,FALSA
,,,,,,,,,6660dbf811e5973ac3fbbc44,001,2024-06-30_04h51.51.912,empathy_intonation_perc,2024.1.4,Win32,58.47953216,,,,,,,,,,,,,,15,test,,,,,,245.7362,246.7865,1,0,0.5041,,0,138,138,14,1,three_way_cognate,1,REAL,FALSA
,,,,,,,,,6660dbf811e5973ac3fbbc44,001,2024-06-30_04h51.51.912,empathy_intonation_perc,2024.1.4,Win32,58.47953216,,,,,,,,,,,,,,149,emén,,,,,,246.7867,247.9201,0,1,0.5997,,0,139,139,148,1,pseudoword,0,REAL,FALSA
,,,,,,,,,6660dbf811e5973ac3fbbc44,001,2024-06-30_04h51.51.912,empathy_intonation_perc,2024.1.4,Win32,58.47953216,,,,,,,,,,,,,,152,prave,,,,,,247.9204,249.5518,0,1,1.0836,,0,140,140,151,1,pseudoword,0,REAL,FALSA
,,,,,,,,,6660dbf811e5973ac3fbbc44,001,2024-06-30_04h51.51.912,empathy_intonation_perc,2024.1.4,Win32,58.47953216,,,,,,,,,,,,,,110,densó,,,,,,249.5522,251.4695,1,0,1.3675,,0,141,141,109,1,pseudoword,0,REAL,FALSA
,,,,,,,,,6660dbf811e5973ac3fbbc44,001,2024-06-30_04h51.51.912,empathy_intonation_perc,2024.1.4,Win32,58.47953216,,,,,,,,,,,,,,162,cengo,,,,,,251.4698,252.7521,0,1,0.7335,,0,142,142,161,1,pseudoword,0,REAL,FALSA
,,,,,,,,,6660dbf811e5973ac3fbbc44,001,2024-06-30_04h51.51.912,empathy_intonation_perc,2024.1.4,Win32,58.47953216,,,,,,,,,,,,,,46,mortal,,,,,,252.7525,253.8361,1,0,0.535,,0,143,143,45,1,two_way_cognate,1,REAL,FALSA
,,,,,,,,,6660dbf811e5973ac3fbbc44,001,2024-06-30_04h51.51.912,empathy_intonation_perc,2024.1.4,Win32,58.47953216,,,,,,,,,,,,,,68,puñal,,,,,,253.8364,254.9519,0,1,0.5803,,0,144,144,67,1,non_cognate,1,REAL,FALSA
,,,,,,,,,6660dbf811e5973ac3fbbc44,001,2024-06-30_04h51.51.912,empathy_intonation_perc,2024.1.4,Win32,58.47953216,,,,,,,,,,,,,,130,dubo,,,,,,254.9523,256.0352,0,1,0.5519,,0,145,145,129,1,pseudoword,0,REAL,FALSA
,,,,,,,,,6660dbf811e5973ac3fbbc44,001,2024-06-30_04h51.51.912,empathy_intonation_perc,2024.1.4,Win32,58.47953216,,,,,,,,,,,,,,97,nocita,,,,,,256.0354,257.086,0,1,0.5176,,0,146,146,96,1,pseudoword,0,REAL,FALSA
,,,,,,,,,6660dbf811e5973ac3fbbc44,001,2024-06-30_04h51.51.912,empathy_intonation_perc,2024.1.4,Win32,58.47953216,,,,,,,,,,,,,,16,chat,,,,,,257.0866,258.1191,1,0,0.4839,,0,147,147,15,1,three_way_cognate,1,REAL,FALSA
,,,,,,,,,6660dbf811e5973ac3fbbc44,001,2024-06-30_04h51.51.912,empathy_intonation_perc,2024.1.4,Win32,58.47953216,,,,,,,,,,,,,,44,editor,,,,,,258.1195,259.1017,1,0,0.4587,,0,148,148,43,1,two_way_cognate,1,REAL,FALSA
,,,,,,,,,6660dbf811e5973ac3fbbc44,001,2024-06-30_04h51.51.912,empathy_intonation_perc,2024.1.4,Win32,58.47953216,,,,,,,,,,,,,,113,nasce,,,,,,259.102,260.1524,0,1,0.5229,,0,149,149,112,1,pseudoword,0,REAL,FALSA
,,,,,,,,,6660dbf811e5973ac3fbbc44,001,2024-06-30_04h51.51.912,empathy_intonation_perc,2024.1.4,Win32,58.47953216,,,,,,,,,,,,,,111,monue,,,,,,260.1527,261.5527,0,1,0.85,,0,150,150,110,1,pseudoword,0,REAL,FALSA
,,,,,,,,,6660dbf811e5973ac3fbbc44,001,2024-06-30_04h51.51.912,empathy_intonation_perc,2024.1.4,Win32,58.47953216,,,,,,,,,,,,,,92,flecha,,,,,,261.5531,262.7031,0,1,0.6002,,0,151,151,91,1,non_cognate,1,REAL,FALSA
,,,,,,,,,6660dbf811e5973ac3fbbc44,001,2024-06-30_04h51.51.912,empathy_intonation_perc,2024.1.4,Win32,58.47953216,,,,,,,,,,,,,,118,bará,,,,,,262.7035,264.3194,1,0,1.0734,,0,152,152,117,1,pseudoword,0,REAL,FALSA
,,,,,,,,,6660dbf811e5973ac3fbbc44,001,2024-06-30_04h51.51.912,empathy_intonation_perc,2024.1.4,Win32,58.47953216,,,,,,,,,,,,,,177,entodo,,,,,,264.3198,265.4357,0,1,0.5777,,0,153,153,176,1,pseudoword,0,REAL,FALSA
,,,,,,,,,6660dbf811e5973ac3fbbc44,001,2024-06-30_04h51.51.912,empathy_intonation_perc,2024.1.4,Win32,58.47953216,,,,,,,,,,,,,,170,diabo,,,,,,265.4364,266.6522,1,0,0.668,,0,154,154,169,1,pseudoword,0,REAL,FALSA
,,,,,,,,,6660dbf811e5973ac3fbbc44,001,2024-06-30_04h51.51.912,empathy_intonation_perc,2024.1.4,Win32,58.47953216,,,,,,,,,,,,,,151,prías,,,,,,266.6524,267.7188,0,1,0.5242,,0,155,155,150,1,pseudoword,0,REAL,FALSA
,,,,,,,,,6660dbf811e5973ac3fbbc44,001,2024-06-30_04h51.51.912,empathy_intonation_perc,2024.1.4,Win32,58.47953216,,,,,,,,,,,,,,147,alla,,,,,,267.7194,268.8021,0,1,0.5449,,0,156,156,146,1,pseudoword,0,REAL,FALSA
,,,,,,,,,6660dbf811e5973ac3fbbc44,001,2024-06-30_04h51.51.912,empathy_intonation_perc,2024.1.4,Win32,58.47953216,,,,,,,,,,,,,,57,regalo,,,,,,268.8025,269.952,0,1,0.6307,,0,157,157,56,1,non_cognate,1,REAL,FALSA
,,,,,,,,,6660dbf811e5973ac3fbbc44,001,2024-06-30_04h51.51.912,empathy_intonation_perc,2024.1.4,Win32,58.47953216,,,,,,,,,,,,,,41,pasta,,,,,,269.9522,271.3686,1,0,0.8801,,0,158,158,40,1,two_way_cognate,1,REAL,FALSA
,,,,,,,,,6660dbf811e5973ac3fbbc44,001,2024-06-30_04h51.51.912,empathy_intonation_perc,2024.1.4,Win32,58.47953216,,,,,,,,,,,,,,12,dogma,,,,,,271.3688,272.4861,0,1,0.5838,,0,159,159,11,1,three_way_cognate,1,REAL,FALSA
,,,,,,,,,6660dbf811e5973ac3fbbc44,001,2024-06-30_04h51.51.912,empathy_intonation_perc,2024.1.4,Win32,58.47953216,,,,,,,,,,,,,,121,barbs,,,,,,272.4864,273.7026,0,1,0.6916,,0,160,160,120,1,pseudoword,0,REAL,FALSA
,,,,,,,,,6660dbf811e5973ac3fbbc44,001,2024-06-30_04h51.51.912,empathy_intonation_perc,2024.1.4,Win32,58.47953216,,,,,,,,,,,,,,93,tapa,,,,,,273.7032,274.7694,1,0,0.5387,,0,161,161,92,1,non_cognate,1,REAL,FALSA
,,,,,,,,,6660dbf811e5973ac3fbbc44,001,2024-06-30_04h51.51.912,empathy_intonation_perc,2024.1.4,Win32,58.47953216,,,,,,,,,,,,,,150,cricó,,,,,,274.7698,275.9362,0,1,0.6229,,0,162,162,149,1,pseudoword,0,REAL,FALSA
,,,,,,,,,6660dbf811e5973ac3fbbc44,001,2024-06-30_04h51.51.912,empathy_intonation_perc,2024.1.4,Win32,58.47953216,,,,,,,,,,,,,,80,cuenco,,,,,,275.9367,277.0359,0,1,0.56,,0,163,163,79,1,non_cognate,1,REAL,FALSA
,,,,,,,,,6660dbf811e5973ac3fbbc44,001,2024-06-30_04h51.51.912,empathy_intonation_perc,2024.1.4,Win32,58.47953216,,,,,,,,,,,,,,38,halo,,,,,,277.0364,278.2531,0,1,0.6769,,0,164,164,37,1,two_way_cognate,1,REAL,FALSA
,,,,,,,,,6660dbf811e5973ac3fbbc44,001,2024-06-30_04h51.51.912,empathy_intonation_perc,2024.1.4,Win32,58.47953216,,,,,,,,,,,,,,155,kugis,,,,,,278.2536,280.0866,0,1,1.292,,0,165,165,154,1,pseudoword,0,REAL,FALSA
,,,,,,,,,6660dbf811e5973ac3fbbc44,001,2024-06-30_04h51.51.912,empathy_intonation_perc,2024.1.4,Win32,58.47953216,,,,,,,,,,,,,,61,aduana,,,,,,280.0873,281.4359,0,1,0.8024,,0,166,166,60,1,non_cognate,1,REAL,FALSA
,,,,,,,,,6660dbf811e5973ac3fbbc44,001,2024-06-30_04h51.51.912,empathy_intonation_perc,2024.1.4,Win32,58.47953216,,,,,,,,,,,,,,166,anfia,,,,,,281.4363,282.5526,0,1,0.5715,,0,167,167,165,1,pseudoword,0,REAL,FALSA
,,,,,,,,,6660dbf811e5973ac3fbbc44,001,2024-06-30_04h51.51.912,empathy_intonation_perc,2024.1.4,Win32,58.47953216,,,,,,,,,,,,,,39,casual,,,,,,282.553,283.6197,1,0,0.5365,,0,168,168,38,1,two_way_cognate,1,REAL,FALSA
,,,,,,,,,6660dbf811e5973ac3fbbc44,001,2024-06-30_04h51.51.912,empathy_intonation_perc,2024.1.4,Win32,58.47953216,,,,,,,,,,,,,,42,rumor,,,,,,283.6201,284.6867,1,0,0.5175,,0,169,169,41,1,two_way_cognate,1,REAL,FALSA
,,,,,,,,,6660dbf811e5973ac3fbbc44,001,2024-06-30_04h51.51.912,empathy_intonation_perc,2024.1.4,Win32,58.47953216,,,,,,,,,,,,,,173,mibro,,,,,,284.6873,285.8029,0,1,0.5785,,0,170,170,172,1,pseudoword,0,REAL,FALSA
,,,,,,,,,6660dbf811e5973ac3fbbc44,001,2024-06-30_04h51.51.912,empathy_intonation_perc,2024.1.4,Win32,58.47953216,,,,,,,,,,,,,,48,pelvis,,,,,,285.8035,286.9525,0,1,0.6135,,0,171,171,47,1,two_way_cognate,1,REAL,FALSA
,,,,,,,,,6660dbf811e5973ac3fbbc44,001,2024-06-30_04h51.51.912,empathy_intonation_perc,2024.1.4,Win32,58.47953216,,,,,,,,,,,,,,144,diroco,,,,,,286.9527,289.1691,0,1,1.6962,,0,172,172,143,1,pseudoword,0,REAL,FALSA
,,,,,,,,,6660dbf811e5973ac3fbbc44,001,2024-06-30_04h51.51.912,empathy_intonation_perc,2024.1.4,Win32,58.47953216,,,,,,,,,,,,,,81,sacar,,,,,,289.1694,290.3202,0,1,0.619,,0,173,173,80,1,non_cognate,1,REAL,FALSA
,,,,,,,,,6660dbf811e5973ac3fbbc44,001,2024-06-30_04h51.51.912,empathy_intonation_perc,2024.1.4,Win32,58.47953216,,,,,,,,,,,,,,98,martir,,,,,,290.3209,291.4362,0,1,0.5774,,0,174,174,97,1,pseudoword,0,REAL,FALSA
,,,,,,,,,6660dbf811e5973ac3fbbc44,001,2024-06-30_04h51.51.912,empathy_intonation_perc,2024.1.4,Win32,58.47953216,,,,,,,,,,,,,,10,drama,,,,,,291.4365,292.5029,1,0,0.5182,,0,175,175,9,1,three_way_cognate,1,REAL,FALSA
,,,,,,,,,6660dbf811e5973ac3fbbc44,001,2024-06-30_04h51.51.912,empathy_intonation_perc,2024.1.4,Win32,58.47953216,,,,,,,,,,,,,,72,rostro,,,,,,292.5034,293.6195,0,1,0.5786,,0,176,176,71,1,non_cognate,1,REAL,FALSA
,,,,,,,,,6660dbf811e5973ac3fbbc44,001,2024-06-30_04h51.51.912,empathy_intonation_perc,2024.1.4,Win32,58.47953216,,,,,,,,,,,,,,59,feo,,,,,,293.6197,295.4041,0,1,1.2538,,0,177,177,58,1,non_cognate,1,REAL,FALSA
,,,,,,,,,6660dbf811e5973ac3fbbc44,001,2024-06-30_04h51.51.912,empathy_intonation_perc,2024.1.4,Win32,58.47953216,,,,,,,,,,,,,,94,forro,,,,,,295.4047,296.8201,1,0,0.8697,,0,178,178,93,1,non_cognate,1,REAL,FALSA
,,,,,,,,,6660dbf811e5973ac3fbbc44,001,2024-06-30_04h51.51.912,empathy_intonation_perc,2024.1.4,Win32,58.47953216,,,,,,,,,,,,,,73,llevar,,,,,,296.8205,297.8728,1,0,0.5346,,0,179,179,72,1,non_cognate,1,REAL,FALSA
,,,,,,,,,6660dbf811e5973ac3fbbc44,001,2024-06-30_04h51.51.912,empathy_intonation_perc,2024.1.4,Win32,58.47953216,,,,,,,,,,,,,,20,trauma,,,,,,297.873,298.8695,1,0,0.4591,,0,180,180,19,1,three_way_cognate,1,REAL,FALSA
,,,,,,,,,6660dbf811e5973ac3fbbc44,001,2024-06-30_04h51.51.912,empathy_intonation_perc,2024.1.4,Win32,58.47953216,,,,,,,,,,,,,,40,pelvis,,,,,,298.8698,299.8038,1,0,0.4123,,0,181,181,39,1,two_way_cognate,1,REAL,FALSA
,,,,,,,,,6660dbf811e5973ac3fbbc44,001,2024-06-30_04h51.51.912,empathy_intonation_perc,2024.1.4,Win32,58.47953216,,,,,,,,,,,,,,18,altar,,,,,,299.8041,301.2865,1,0,0.9422,,0,182,182,17,1,three_way_cognate,1,REAL,FALSA
,,,,,,,,,6660dbf811e5973ac3fbbc44,001,2024-06-30_04h51.51.912,empathy_intonation_perc,2024.1.4,Win32,58.47953216,,,,,,,,,,,,,,154,harvé,,,,,,301.2868,302.4695,0,1,0.6509,,0,183,183,153,1,pseudoword,0,REAL,FALSA
,,,,,,,,,6660dbf811e5973ac3fbbc44,001,2024-06-30_04h51.51.912,empathy_intonation_perc,2024.1.4,Win32,58.47953216,,,,,,,,,,,,,,157,seled,,,,,,302.4697,303.7864,0,1,0.7957,,0,184,184,156,1,pseudoword,0,REAL,FALSA
,,,,,,,,,6660dbf811e5973ac3fbbc44,001,2024-06-30_04h51.51.912,empathy_intonation_perc,2024.1.4,Win32,58.47953216,,,,,,,,,,,,,,13,plan,,,,,,303.7866,304.8036,1,0,0.4871,,0,185,185,12,1,three_way_cognate,1,REAL,FALSA
,,,,,,,,,6660dbf811e5973ac3fbbc44,001,2024-06-30_04h51.51.912,empathy_intonation_perc,2024.1.4,Win32,58.47953216,,,,,,,,,,,,,,137,trugo,,,,,,304.804,306.0365,0,1,0.7102,,0,186,186,136,1,pseudoword,0,REAL,FALSA
,,,,,,,,,6660dbf811e5973ac3fbbc44,001,2024-06-30_04h51.51.912,empathy_intonation_perc,2024.1.4,Win32,58.47953216,,,,,,,,,,,,,,132,nocó,,,,,,306.0371,307.2367,0,1,0.6609,,0,187,187,131,1,pseudoword,0,REAL,FALSA
,,,,,,,,,6660dbf811e5973ac3fbbc44,001,2024-06-30_04h51.51.912,empathy_intonation_perc,2024.1.4,Win32,58.47953216,,,,,,,,,,,,,,5,extra,,,,,,307.2373,308.22,1,0,0.4454,,0,188,188,4,1,three_way_cognate,1,REAL,FALSA
,,,,,,,,,6660dbf811e5973ac3fbbc44,001,2024-06-30_04h51.51.912,empathy_intonation_perc,2024.1.4,Win32,58.47953216,,,,,,,,,,,,,,62,pegar,,,,,,308.2203,309.4207,1,0,0.6526,,0,189,189,61,1,non_cognate,1,REAL,FALSA
,,,,,,,,,6660dbf811e5973ac3fbbc44,001,2024-06-30_04h51.51.912,empathy_intonation_perc,2024.1.4,Win32,58.47953216,,,,,,,,,,,,,,139,sasos,,,,,,309.4209,310.7205,0,1,0.7569,,0,190,190,138,1,pseudoword,0,REAL,FALSA
,,,,,,,,,6660dbf811e5973ac3fbbc44,001,2024-06-30_04h51.51.912,empathy_intonation_perc,2024.1.4,Win32,58.47953216,,,,,,,,,,,,,,184,huenos,,,,,,310.7207,312.0872,0,1,0.8168,,0,191,191,183,1,pseudoword,0,REAL,FALSA
