lextale_instructions.started,lextale_instructions.stopped,lextale_instructions_loop.thisRepN,lextale_instructions_loop.thisTrialN,lextale_instructions_loop.thisN,lextale_instructions_loop.thisIndex,lextale_instructions_loop.ran,instructions_text,continue_text,participant,session,date,expName,psychopyVersion,OS,frameRate,lextale_practice.started,lextale_practice.stopped,key_resp_lextale_practice.keys,key_resp_lextale_practice.corr,key_resp_lextale_practice.rt,key_resp_lextale_practice.duration,lextale_practice_feedback.started,lextale_practice_feedback.stopped,lextale_practice_trials.thisRepN,lextale_practice_trials.thisTrialN,lextale_practice_trials.thisN,lextale_practice_trials.thisIndex,lextale_practice_trials.ran,stim,word,correct_response,prac_button_real,prac_button_false,lextale_check.started,lextale_check.stopped,lextale_trial.started,lextale_trial.stopped,key_resp_lextale_trial.keys,key_resp_lextale_trial.corr,key_resp_lextale_trial.rt,key_resp_lextale_trial.duration,lextail_trials.thisRepN,lextail_trials.thisTrialN,lextail_trials.thisN,lextail_trials.thisIndex,lextail_trials.ran,type,correct_reponse,button_real,button_false
0.0043,99.709,0,0,0,0,1,"Este es un test de vocabulario en español. 
  
  A continuación vas a ver 90 secuencias de letras que parecen 'españolas'.
  
  Solo algunas de ellas son palabras de verdad.",(presiona la barra espaciadora para continuar),6661af0a3ac2d859f0c077f7,001,2024-06-30_06h14.04.574,empathy_intonation_perc,2024.1.4,Win32,59.88023952,,,,,,,,,,,,,,,,,,,,,,,,,,,,,,,,,,,
99.7099,111.4808,0,1,1,1,1,"Por favor, señala las palabras que tú conoces (aquellas que estás convencido que son palabras españolas, incluso aunque no seas capaz de dar el significado preciso).",(presiona la barra espaciadora para continuar),6661af0a3ac2d859f0c077f7,001,2024-06-30_06h14.04.574,empathy_intonation_perc,2024.1.4,Win32,59.88023952,,,,,,,,,,,,,,,,,,,,,,,,,,,,,,,,,,,
111.4961,125.0286,0,2,2,2,1,Pero cuidado: los errores se penalizan. Por eso no tiene sentido tratar de incrementar tu puntuación marcando como reales palabras que nunca has visto.,(presiona la barra espaciadora para continuar),6661af0a3ac2d859f0c077f7,001,2024-06-30_06h14.04.574,empathy_intonation_perc,2024.1.4,Win32,59.88023952,,,,,,,,,,,,,,,,,,,,,,,,,,,,,,,,,,,
125.0625,136.9696,0,3,3,3,1,"Presiona la tecla 1 si piensas que es una palabra real y la tecla 
  0 si piensas que es una palabra falsa. 
  
  Vamos a practicar un poco...",(presiona la barra espaciadora para continuar),6661af0a3ac2d859f0c077f7,001,2024-06-30_06h14.04.574,empathy_intonation_perc,2024.1.4,Win32,59.88023952,,,,,,,,,,,,,,,,,,,,,,,,,,,,,,,,,,,
,,,,,,,,,6661af0a3ac2d859f0c077f7,001,2024-06-30_06h14.04.574,empathy_intonation_perc,2024.1.4,Win32,59.88023952,137.0055,169.7468,0,1,32.2063,,169.7839,170.7391,0,0,0,0,1,0,depiste,0,REAL,FALSA,,,,,,,,,,,,,,,,,
,,,,,,,,,6661af0a3ac2d859f0c077f7,001,2024-06-30_06h14.04.574,empathy_intonation_perc,2024.1.4,Win32,59.88023952,170.741,177.4296,1,1,6.1502,,177.4296,178.4233,0,1,1,1,1,0,sí,1,REAL,FALSA,,,,,,,,,,,,,,,,,
,,,,,,,,,6661af0a3ac2d859f0c077f7,001,2024-06-30_06h14.04.574,empathy_intonation_perc,2024.1.4,Win32,59.88023952,178.4602,198.579,1,0,19.5759,,198.5793,199.5726,0,2,2,2,1,0,coné,0,REAL,FALSA,,,,,,,,,,,,,,,,,
,,,,,,,,,6661af0a3ac2d859f0c077f7,001,2024-06-30_06h14.04.574,empathy_intonation_perc,2024.1.4,Win32,59.88023952,199.6105,209.4602,0,1,9.3139,,209.4604,210.4537,0,3,3,3,1,0,calpar,0,REAL,FALSA,,,,,,,,,,,,,,,,,
,,,,,,,,,6661af0a3ac2d859f0c077f7,001,2024-06-30_06h14.04.574,empathy_intonation_perc,2024.1.4,Win32,59.88023952,210.4919,268.5355,0,1,57.5032,,268.5356,269.5293,0,4,4,4,1,0,joten,0,REAL,FALSA,,,,,,,,,,,,,,,,,
,,,,,,,,,6661af0a3ac2d859f0c077f7,001,2024-06-30_06h14.04.574,empathy_intonation_perc,2024.1.4,Win32,59.88023952,269.5674,276.4352,1,1,6.3249,,276.4353,277.4289,0,5,5,5,1,0,sacapuntas,1,REAL,FALSA,,,,,,,,,,,,,,,,,
,,,,,,,,,6661af0a3ac2d859f0c077f7,001,2024-06-30_06h14.04.574,empathy_intonation_perc,2024.1.4,Win32,59.88023952,277.4527,286.5214,0,1,8.5295,,286.5216,287.5152,0,6,6,6,1,0,priba,0,REAL,FALSA,,,,,,,,,,,,,,,,,
,,,,,,,,,6661af0a3ac2d859f0c077f7,001,2024-06-30_06h14.04.574,empathy_intonation_perc,2024.1.4,Win32,59.88023952,287.5462,292.8978,0,1,4.8058,,292.8979,293.8915,0,7,7,7,1,0,pelasula,0,REAL,FALSA,,,,,,,,,,,,,,,,,
,,,,,,,,,6661af0a3ac2d859f0c077f7,001,2024-06-30_06h14.04.574,empathy_intonation_perc,2024.1.4,Win32,59.88023952,293.9287,298.0646,0,0,3.593,,298.0647,299.0583,0,8,8,8,1,0,bien,1,REAL,FALSA,,,,,,,,,,,,,,,,,
,,,,,,,,,6661af0a3ac2d859f0c077f7,001,2024-06-30_06h14.04.574,empathy_intonation_perc,2024.1.4,Win32,59.88023952,299.0704,308.482,1,1,8.8829,,308.4821,309.476,0,9,9,9,1,0,casa,1,REAL,FALSA,,,,,,,,,,,,,,,,,
,,,,,,,,,6661af0a3ac2d859f0c077f7,001,2024-06-30_06h14.04.574,empathy_intonation_perc,2024.1.4,Win32,59.88023952,309.5065,318.9494,0,1,8.9004,,318.9495,319.943,0,10,10,10,1,0,lejo,0,REAL,FALSA,,,,,,,,,,,,,,,,,
,,,,,,,,,6661af0a3ac2d859f0c077f7,001,2024-06-30_06h14.04.574,empathy_intonation_perc,2024.1.4,Win32,59.88023952,319.9741,334.9475,1,0,14.424,,334.9476,335.9412,0,11,11,11,1,0,pretantas,0,REAL,FALSA,,,,,,,,,,,,,,,,,
,,,,,,,,,6661af0a3ac2d859f0c077f7,001,2024-06-30_06h14.04.574,empathy_intonation_perc,2024.1.4,Win32,59.88023952,,,,,,,,,,,,,,,,,,,335.9419,342.782,,,,,,,,,,,,,,,
,,,,,,,,,6661af0a3ac2d859f0c077f7,001,2024-06-30_06h14.04.574,empathy_intonation_perc,2024.1.4,Win32,59.88023952,,,,,,,,,,,,,,4,flora,,,,,,342.8147,352.6698,0,1,9.3132,,0,0,0,3,1,three_way_cognate,1,REAL,FALSA
,,,,,,,,,6661af0a3ac2d859f0c077f7,001,2024-06-30_06h14.04.574,empathy_intonation_perc,2024.1.4,Win32,59.88023952,,,,,,,,,,,,,,113,nasce,,,,,,352.7026,362.3741,1,0,9.1306,,0,1,1,112,1,pseudoword,0,REAL,FALSA
,,,,,,,,,6661af0a3ac2d859f0c077f7,001,2024-06-30_06h14.04.574,empathy_intonation_perc,2024.1.4,Win32,59.88023952,,,,,,,,,,,,,,119,esís,,,,,,362.4013,372.1948,0,1,9.2713,,0,2,2,118,1,pseudoword,0,REAL,FALSA
,,,,,,,,,6661af0a3ac2d859f0c077f7,001,2024-06-30_06h14.04.574,empathy_intonation_perc,2024.1.4,Win32,59.88023952,,,,,,,,,,,,,,64,rizado,,,,,,372.2186,382.5297,0,1,9.7754,,0,3,3,63,1,non_cognate,1,REAL,FALSA
,,,,,,,,,6661af0a3ac2d859f0c077f7,001,2024-06-30_06h14.04.574,empathy_intonation_perc,2024.1.4,Win32,59.88023952,,,,,,,,,,,,,,131,fuar,,,,,,382.5609,395.2326,0,1,12.1264,,0,4,4,130,1,pseudoword,0,REAL,FALSA
,,,,,,,,,6661af0a3ac2d859f0c077f7,001,2024-06-30_06h14.04.574,empathy_intonation_perc,2024.1.4,Win32,59.88023952,,,,,,,,,,,,,,132,nocó,,,,,,395.2704,398.727,1,0,2.9144,,0,5,5,131,1,pseudoword,0,REAL,FALSA
,,,,,,,,,6661af0a3ac2d859f0c077f7,001,2024-06-30_06h14.04.574,empathy_intonation_perc,2024.1.4,Win32,59.88023952,,,,,,,,,,,,,,41,pasta,,,,,,398.7278,412.7047,0,1,13.437,,0,6,6,40,1,two_way_cognate,1,REAL,FALSA
,,,,,,,,,6661af0a3ac2d859f0c077f7,001,2024-06-30_06h14.04.574,empathy_intonation_perc,2024.1.4,Win32,59.88023952,,,,,,,,,,,,,,82,brillo,,,,,,412.7251,421.2343,1,0,7.9763,,0,7,7,81,1,non_cognate,1,REAL,FALSA
,,,,,,,,,6661af0a3ac2d859f0c077f7,001,2024-06-30_06h14.04.574,empathy_intonation_perc,2024.1.4,Win32,59.88023952,,,,,,,,,,,,,,169,pitis,,,,,,421.2725,436.0405,0,1,14.2377,,0,8,8,168,1,pseudoword,0,REAL,FALSA
,,,,,,,,,6661af0a3ac2d859f0c077f7,001,2024-06-30_06h14.04.574,empathy_intonation_perc,2024.1.4,Win32,59.88023952,,,,,,,,,,,,,,125,ceme,,,,,,436.0734,449.0909,0,1,12.4715,,0,9,9,124,1,pseudoword,0,REAL,FALSA
,,,,,,,,,6661af0a3ac2d859f0c077f7,001,2024-06-30_06h14.04.574,empathy_intonation_perc,2024.1.4,Win32,59.88023952,,,,,,,,,,,,,,106,diebro,,,,,,449.1185,466.348,0,1,16.7032,,0,10,10,105,1,pseudoword,0,REAL,FALSA
,,,,,,,,,6661af0a3ac2d859f0c077f7,001,2024-06-30_06h14.04.574,empathy_intonation_perc,2024.1.4,Win32,59.88023952,,,,,,,,,,,,,,50,sierra,,,,,,466.3605,470.6213,1,0,3.7385,,0,11,11,49,1,non_cognate,1,REAL,FALSA
,,,,,,,,,6661af0a3ac2d859f0c077f7,001,2024-06-30_06h14.04.574,empathy_intonation_perc,2024.1.4,Win32,59.88023952,,,,,,,,,,,,,,26,enigma,,,,,,470.6578,479.7466,0,1,8.5561,,0,12,12,25,1,two_way_cognate,1,REAL,FALSA
,,,,,,,,,6661af0a3ac2d859f0c077f7,001,2024-06-30_06h14.04.574,empathy_intonation_perc,2024.1.4,Win32,59.88023952,,,,,,,,,,,,,,192,próces,,,,,,479.7671,488.2925,0,1,7.9917,,0,13,13,191,1,pseudoword,0,REAL,FALSA
,,,,,,,,,6661af0a3ac2d859f0c077f7,001,2024-06-30_06h14.04.574,empathy_intonation_perc,2024.1.4,Win32,59.88023952,,,,,,,,,,,,,,18,altar,,,,,,488.318,496.3748,1,0,7.5307,,0,14,14,17,1,three_way_cognate,1,REAL,FALSA
,,,,,,,,,6661af0a3ac2d859f0c077f7,001,2024-06-30_06h14.04.574,empathy_intonation_perc,2024.1.4,Win32,59.88023952,,,,,,,,,,,,,,164,tecia,,,,,,496.4063,510.3859,0,1,13.4331,,0,15,15,163,1,pseudoword,0,REAL,FALSA
,,,,,,,,,6661af0a3ac2d859f0c077f7,001,2024-06-30_06h14.04.574,empathy_intonation_perc,2024.1.4,Win32,59.88023952,,,,,,,,,,,,,,143,hurcos,,,,,,510.4169,516.0003,0,1,5.0487,,0,16,16,142,1,pseudoword,0,REAL,FALSA
,,,,,,,,,6661af0a3ac2d859f0c077f7,001,2024-06-30_06h14.04.574,empathy_intonation_perc,2024.1.4,Win32,59.88023952,,,,,,,,,,,,,,144,diroco,,,,,,516.0293,521.2501,0,1,4.6866,,0,17,17,143,1,pseudoword,0,REAL,FALSA
,,,,,,,,,6661af0a3ac2d859f0c077f7,001,2024-06-30_06h14.04.574,empathy_intonation_perc,2024.1.4,Win32,59.88023952,,,,,,,,,,,,,,15,test,,,,,,521.2623,543.7742,1,0,21.9795,,0,18,18,14,1,three_way_cognate,1,REAL,FALSA
,,,,,,,,,6661af0a3ac2d859f0c077f7,001,2024-06-30_06h14.04.574,empathy_intonation_perc,2024.1.4,Win32,59.88023952,,,,,,,,,,,,,,49,teñir,,,,,,543.7984,547.8982,1,0,3.5625,,0,19,19,48,1,non_cognate,1,REAL,FALSA
,,,,,,,,,6661af0a3ac2d859f0c077f7,001,2024-06-30_06h14.04.574,empathy_intonation_perc,2024.1.4,Win32,59.88023952,,,,,,,,,,,,,,65,guerra,,,,,,547.9352,553.9931,1,0,5.5307,,0,20,20,64,1,non_cognate,1,REAL,FALSA
,,,,,,,,,6661af0a3ac2d859f0c077f7,001,2024-06-30_06h14.04.574,empathy_intonation_perc,2024.1.4,Win32,59.88023952,,,,,,,,,,,,,,52,blando,,,,,,554.0292,561.9094,1,0,7.3378,,0,21,21,51,1,non_cognate,1,REAL,FALSA
,,,,,,,,,6661af0a3ac2d859f0c077f7,001,2024-06-30_06h14.04.574,empathy_intonation_perc,2024.1.4,Win32,59.88023952,,,,,,,,,,,,,,80,cuenco,,,,,,561.9482,565.2881,1,0,2.8025,,0,22,22,79,1,non_cognate,1,REAL,FALSA
,,,,,,,,,6661af0a3ac2d859f0c077f7,001,2024-06-30_06h14.04.574,empathy_intonation_perc,2024.1.4,Win32,59.88023952,,,,,,,,,,,,,,63,hilo,,,,,,565.2888,569.6437,1,0,3.8101,,0,23,23,62,1,non_cognate,1,REAL,FALSA
,,,,,,,,,6661af0a3ac2d859f0c077f7,001,2024-06-30_06h14.04.574,empathy_intonation_perc,2024.1.4,Win32,59.88023952,,,,,,,,,,,,,,72,rostro,,,,,,569.6804,574.7944,1,0,4.5796,,0,24,24,71,1,non_cognate,1,REAL,FALSA
,,,,,,,,,6661af0a3ac2d859f0c077f7,001,2024-06-30_06h14.04.574,empathy_intonation_perc,2024.1.4,Win32,59.88023952,,,,,,,,,,,,,,99,bugor,,,,,,574.8238,584.0523,0,1,8.6951,,0,25,25,98,1,pseudoword,0,REAL,FALSA
,,,,,,,,,6661af0a3ac2d859f0c077f7,001,2024-06-30_06h14.04.574,empathy_intonation_perc,2024.1.4,Win32,59.88023952,,,,,,,,,,,,,,181,gravés,,,,,,584.0904,587.9112,1,0,3.2886,,0,26,26,180,1,pseudoword,0,REAL,FALSA
,,,,,,,,,6661af0a3ac2d859f0c077f7,001,2024-06-30_06h14.04.574,empathy_intonation_perc,2024.1.4,Win32,59.88023952,,,,,,,,,,,,,,59,feo,,,,,,587.9119,591.2732,1,0,2.8175,,0,27,27,58,1,non_cognate,1,REAL,FALSA
,,,,,,,,,6661af0a3ac2d859f0c077f7,001,2024-06-30_06h14.04.574,empathy_intonation_perc,2024.1.4,Win32,59.88023952,,,,,,,,,,,,,,68,puñal,,,,,,591.3022,595.9433,1,0,4.1068,,0,28,28,67,1,non_cognate,1,REAL,FALSA
,,,,,,,,,6661af0a3ac2d859f0c077f7,001,2024-06-30_06h14.04.574,empathy_intonation_perc,2024.1.4,Win32,59.88023952,,,,,,,,,,,,,,77,suave,,,,,,595.9552,599.3554,1,0,2.8738,,0,29,29,76,1,non_cognate,1,REAL,FALSA
,,,,,,,,,6661af0a3ac2d859f0c077f7,001,2024-06-30_06h14.04.574,empathy_intonation_perc,2024.1.4,Win32,59.88023952,,,,,,,,,,,,,,156,ozoso,,,,,,599.3904,611.1471,0,1,11.2241,,0,30,30,155,1,pseudoword,0,REAL,FALSA
,,,,,,,,,6661af0a3ac2d859f0c077f7,001,2024-06-30_06h14.04.574,empathy_intonation_perc,2024.1.4,Win32,59.88023952,,,,,,,,,,,,,,27,piano,,,,,,611.1741,624.1648,1,0,12.4656,,0,31,31,26,1,two_way_cognate,1,REAL,FALSA
,,,,,,,,,6661af0a3ac2d859f0c077f7,001,2024-06-30_06h14.04.574,empathy_intonation_perc,2024.1.4,Win32,59.88023952,,,,,,,,,,,,,,185,aljizo,,,,,,624.2009,635.3441,0,1,10.6115,,0,32,32,184,1,pseudoword,0,REAL,FALSA
,,,,,,,,,6661af0a3ac2d859f0c077f7,001,2024-06-30_06h14.04.574,empathy_intonation_perc,2024.1.4,Win32,59.88023952,,,,,,,,,,,,,,153,golla,,,,,,635.3719,642.929,0,1,7.0213,,0,33,33,152,1,pseudoword,0,REAL,FALSA
,,,,,,,,,6661af0a3ac2d859f0c077f7,001,2024-06-30_06h14.04.574,empathy_intonation_perc,2024.1.4,Win32,59.88023952,,,,,,,,,,,,,,94,forro,,,,,,642.9501,647.3673,1,0,3.8798,,0,34,34,93,1,non_cognate,1,REAL,FALSA
,,,,,,,,,6661af0a3ac2d859f0c077f7,001,2024-06-30_06h14.04.574,empathy_intonation_perc,2024.1.4,Win32,59.88023952,,,,,,,,,,,,,,69,tiza,,,,,,647.3792,651.7897,1,0,3.8809,,0,35,35,68,1,non_cognate,1,REAL,FALSA
,,,,,,,,,6661af0a3ac2d859f0c077f7,001,2024-06-30_06h14.04.574,empathy_intonation_perc,2024.1.4,Win32,59.88023952,,,,,,,,,,,,,,35,aurora,,,,,,651.8261,661.2958,0,1,8.9309,,0,36,36,34,1,two_way_cognate,1,REAL,FALSA
,,,,,,,,,6661af0a3ac2d859f0c077f7,001,2024-06-30_06h14.04.574,empathy_intonation_perc,2024.1.4,Win32,59.88023952,,,,,,,,,,,,,,48,pelvis,,,,,,661.3195,666.5292,1,0,4.6742,,0,37,37,47,1,two_way_cognate,1,REAL,FALSA
,,,,,,,,,6661af0a3ac2d859f0c077f7,001,2024-06-30_06h14.04.574,empathy_intonation_perc,2024.1.4,Win32,59.88023952,,,,,,,,,,,,,,104,estulo,,,,,,666.5405,674.5953,0,1,7.5218,,0,38,38,103,1,pseudoword,0,REAL,FALSA
,,,,,,,,,6661af0a3ac2d859f0c077f7,001,2024-06-30_06h14.04.574,empathy_intonation_perc,2024.1.4,Win32,59.88023952,,,,,,,,,,,,,,142,parre,,,,,,674.632,679.4311,0,1,4.2717,,0,39,39,141,1,pseudoword,0,REAL,FALSA
,,,,,,,,,6661af0a3ac2d859f0c077f7,001,2024-06-30_06h14.04.574,empathy_intonation_perc,2024.1.4,Win32,59.88023952,,,,,,,,,,,,,,83,hálito,,,,,,679.4629,683.8035,1,0,3.8037,,0,40,40,82,1,non_cognate,1,REAL,FALSA
,,,,,,,,,6661af0a3ac2d859f0c077f7,001,2024-06-30_06h14.04.574,empathy_intonation_perc,2024.1.4,Win32,59.88023952,,,,,,,,,,,,,,57,regalo,,,,,,683.8402,688.1094,1,0,3.7299,,0,41,41,56,1,non_cognate,1,REAL,FALSA
,,,,,,,,,6661af0a3ac2d859f0c077f7,001,2024-06-30_06h14.04.574,empathy_intonation_perc,2024.1.4,Win32,59.88023952,,,,,,,,,,,,,,44,editor,,,,,,688.1383,691.9023,1,0,3.2299,,0,42,42,43,1,two_way_cognate,1,REAL,FALSA
,,,,,,,,,6661af0a3ac2d859f0c077f7,001,2024-06-30_06h14.04.574,empathy_intonation_perc,2024.1.4,Win32,59.88023952,,,,,,,,,,,,,,122,boñaz,,,,,,691.9388,707.2545,0,1,14.7706,,0,43,43,121,1,pseudoword,0,REAL,FALSA
,,,,,,,,,6661af0a3ac2d859f0c077f7,001,2024-06-30_06h14.04.574,empathy_intonation_perc,2024.1.4,Win32,59.88023952,,,,,,,,,,,,,,93,tapa,,,,,,707.2858,711.4284,1,0,3.5971,,0,44,44,92,1,non_cognate,1,REAL,FALSA
,,,,,,,,,6661af0a3ac2d859f0c077f7,001,2024-06-30_06h14.04.574,empathy_intonation_perc,2024.1.4,Win32,59.88023952,,,,,,,,,,,,,,147,alla,,,,,,711.465,717.2577,1,0,5.2499,,0,45,45,146,1,pseudoword,0,REAL,FALSA
,,,,,,,,,6661af0a3ac2d859f0c077f7,001,2024-06-30_06h14.04.574,empathy_intonation_perc,2024.1.4,Win32,59.88023952,,,,,,,,,,,,,,175,tradía,,,,,,717.275,724.3299,0,1,6.5084,,0,46,46,174,1,pseudoword,0,REAL,FALSA
,,,,,,,,,6661af0a3ac2d859f0c077f7,001,2024-06-30_06h14.04.574,empathy_intonation_perc,2024.1.4,Win32,59.88023952,,,,,,,,,,,,,,101,losco,,,,,,724.369,736.2708,0,1,11.3771,,0,47,47,100,1,pseudoword,0,REAL,FALSA
,,,,,,,,,6661af0a3ac2d859f0c077f7,001,2024-06-30_06h14.04.574,empathy_intonation_perc,2024.1.4,Win32,59.88023952,,,,,,,,,,,,,,5,extra,,,,,,736.3092,740.3617,1,0,3.5116,,0,48,48,4,1,three_way_cognate,1,REAL,FALSA
,,,,,,,,,6661af0a3ac2d859f0c077f7,001,2024-06-30_06h14.04.574,empathy_intonation_perc,2024.1.4,Win32,59.88023952,,,,,,,,,,,,,,46,mortal,,,,,,740.3928,743.8226,1,0,2.8862,,0,49,49,45,1,two_way_cognate,1,REAL,FALSA
,,,,,,,,,6661af0a3ac2d859f0c077f7,001,2024-06-30_06h14.04.574,empathy_intonation_perc,2024.1.4,Win32,59.88023952,,,,,,,,,,,,,,12,dogma,,,,,,743.8231,755.2506,0,1,10.8916,,0,50,50,11,1,three_way_cognate,1,REAL,FALSA
,,,,,,,,,6661af0a3ac2d859f0c077f7,001,2024-06-30_06h14.04.574,empathy_intonation_perc,2024.1.4,Win32,59.88023952,,,,,,,,,,,,,,29,clamor,,,,,,755.28,761.5934,0,1,5.7923,,0,51,51,28,1,two_way_cognate,1,REAL,FALSA
,,,,,,,,,6661af0a3ac2d859f0c077f7,001,2024-06-30_06h14.04.574,empathy_intonation_perc,2024.1.4,Win32,59.88023952,,,,,,,,,,,,,,54,tapón,,,,,,761.6167,765.5685,1,0,3.4154,,0,52,52,53,1,non_cognate,1,REAL,FALSA
,,,,,,,,,6661af0a3ac2d859f0c077f7,001,2024-06-30_06h14.04.574,empathy_intonation_perc,2024.1.4,Win32,59.88023952,,,,,,,,,,,,,,174,pabea,,,,,,765.5976,770.8848,0,1,4.7621,,0,53,53,173,1,pseudoword,0,REAL,FALSA
,,,,,,,,,6661af0a3ac2d859f0c077f7,001,2024-06-30_06h14.04.574,empathy_intonation_perc,2024.1.4,Win32,59.88023952,,,,,,,,,,,,,,177,entodo,,,,,,770.9214,774.3794,1,0,2.9154,,0,54,54,176,1,pseudoword,0,REAL,FALSA
,,,,,,,,,6661af0a3ac2d859f0c077f7,001,2024-06-30_06h14.04.574,empathy_intonation_perc,2024.1.4,Win32,59.88023952,,,,,,,,,,,,,,24,retina,,,,,,774.4118,778.586,1,0,3.64,,0,55,55,23,1,three_way_cognate,1,REAL,FALSA
,,,,,,,,,6661af0a3ac2d859f0c077f7,001,2024-06-30_06h14.04.574,empathy_intonation_perc,2024.1.4,Win32,59.88023952,,,,,,,,,,,,,,157,seled,,,,,,778.6157,784.4489,0,1,5.2931,,0,56,56,156,1,pseudoword,0,REAL,FALSA
,,,,,,,,,6661af0a3ac2d859f0c077f7,001,2024-06-30_06h14.04.574,empathy_intonation_perc,2024.1.4,Win32,59.88023952,,,,,,,,,,,,,,176,gripar,,,,,,784.4853,788.8543,1,0,3.8302,,0,57,57,175,1,pseudoword,0,REAL,FALSA
,,,,,,,,,6661af0a3ac2d859f0c077f7,001,2024-06-30_06h14.04.574,empathy_intonation_perc,2024.1.4,Win32,59.88023952,,,,,,,,,,,,,,182,desaro,,,,,,788.8911,795.5452,0,1,6.1138,,0,58,58,181,1,pseudoword,0,REAL,FALSA
,,,,,,,,,6661af0a3ac2d859f0c077f7,001,2024-06-30_06h14.04.574,empathy_intonation_perc,2024.1.4,Win32,59.88023952,,,,,,,,,,,,,,150,cricó,,,,,,795.584,798.692,0,1,2.5764,,0,59,59,149,1,pseudoword,0,REAL,FALSA
,,,,,,,,,6661af0a3ac2d859f0c077f7,001,2024-06-30_06h14.04.574,empathy_intonation_perc,2024.1.4,Win32,59.88023952,,,,,,,,,,,,,,60,siglo,,,,,,798.6927,802.2029,1,0,2.9703,,0,60,60,59,1,non_cognate,1,REAL,FALSA
,,,,,,,,,6661af0a3ac2d859f0c077f7,001,2024-06-30_06h14.04.574,empathy_intonation_perc,2024.1.4,Win32,59.88023952,,,,,,,,,,,,,,19,mafia,,,,,,802.2316,805.002,1,0,2.242,,0,61,61,18,1,three_way_cognate,1,REAL,FALSA
,,,,,,,,,6661af0a3ac2d859f0c077f7,001,2024-06-30_06h14.04.574,empathy_intonation_perc,2024.1.4,Win32,59.88023952,,,,,,,,,,,,,,155,kugis,,,,,,805.0026,811.3613,0,1,5.8237,,0,62,62,154,1,pseudoword,0,REAL,FALSA
,,,,,,,,,6661af0a3ac2d859f0c077f7,001,2024-06-30_06h14.04.574,empathy_intonation_perc,2024.1.4,Win32,59.88023952,,,,,,,,,,,,,,189,medium,,,,,,811.3731,814.3588,1,0,2.467,,0,63,63,188,1,pseudoword,0,REAL,FALSA
,,,,,,,,,6661af0a3ac2d859f0c077f7,001,2024-06-30_06h14.04.574,empathy_intonation_perc,2024.1.4,Win32,59.88023952,,,,,,,,,,,,,,165,chote,,,,,,814.3703,819.1289,0,1,4.2352,,0,64,64,164,1,pseudoword,0,REAL,FALSA
,,,,,,,,,6661af0a3ac2d859f0c077f7,001,2024-06-30_06h14.04.574,empathy_intonation_perc,2024.1.4,Win32,59.88023952,,,,,,,,,,,,,,85,enorme,,,,,,819.1541,823.8653,1,0,4.1733,,0,65,65,84,1,non_cognate,1,REAL,FALSA
,,,,,,,,,6661af0a3ac2d859f0c077f7,001,2024-06-30_06h14.04.574,empathy_intonation_perc,2024.1.4,Win32,59.88023952,,,,,,,,,,,,,,180,pupica,,,,,,823.8823,828.9666,0,1,4.5376,,0,66,66,179,1,pseudoword,0,REAL,FALSA
,,,,,,,,,6661af0a3ac2d859f0c077f7,001,2024-06-30_06h14.04.574,empathy_intonation_perc,2024.1.4,Win32,59.88023952,,,,,,,,,,,,,,87,muleta,,,,,,828.9963,833.0409,1,0,3.5106,,0,67,67,86,1,non_cognate,1,REAL,FALSA
,,,,,,,,,6661af0a3ac2d859f0c077f7,001,2024-06-30_06h14.04.574,empathy_intonation_perc,2024.1.4,Win32,59.88023952,,,,,,,,,,,,,,127,vien,,,,,,833.0699,836.3201,1,0,2.7265,,0,68,68,126,1,pseudoword,0,REAL,FALSA
,,,,,,,,,6661af0a3ac2d859f0c077f7,001,2024-06-30_06h14.04.574,empathy_intonation_perc,2024.1.4,Win32,59.88023952,,,,,,,,,,,,,,140,chorde,,,,,,836.3614,845.1803,0,1,8.297,,0,69,69,139,1,pseudoword,0,REAL,FALSA
,,,,,,,,,6661af0a3ac2d859f0c077f7,001,2024-06-30_06h14.04.574,empathy_intonation_perc,2024.1.4,Win32,59.88023952,,,,,,,,,,,,,,183,edioso,,,,,,845.2062,849.9997,0,1,4.2684,,0,70,70,182,1,pseudoword,0,REAL,FALSA
,,,,,,,,,6661af0a3ac2d859f0c077f7,001,2024-06-30_06h14.04.574,empathy_intonation_perc,2024.1.4,Win32,59.88023952,,,,,,,,,,,,,,158,babrá,,,,,,850.0133,852.8648,0,1,2.3169,,0,71,71,157,1,pseudoword,0,REAL,FALSA
,,,,,,,,,6661af0a3ac2d859f0c077f7,001,2024-06-30_06h14.04.574,empathy_intonation_perc,2024.1.4,Win32,59.88023952,,,,,,,,,,,,,,71,torta,,,,,,852.8652,856.1112,1,0,2.717,,0,72,72,70,1,non_cognate,1,REAL,FALSA
,,,,,,,,,6661af0a3ac2d859f0c077f7,001,2024-06-30_06h14.04.574,empathy_intonation_perc,2024.1.4,Win32,59.88023952,,,,,,,,,,,,,,159,trcia,,,,,,856.1386,862.322,0,1,5.657,,0,73,73,158,1,pseudoword,0,REAL,FALSA
,,,,,,,,,6661af0a3ac2d859f0c077f7,001,2024-06-30_06h14.04.574,empathy_intonation_perc,2024.1.4,Win32,59.88023952,,,,,,,,,,,,,,67,llamar,,,,,,862.3513,865.6343,1,0,2.7496,,0,74,74,66,1,non_cognate,1,REAL,FALSA
,,,,,,,,,6661af0a3ac2d859f0c077f7,001,2024-06-30_06h14.04.574,empathy_intonation_perc,2024.1.4,Win32,59.88023952,,,,,,,,,,,,,,66,aleta,,,,,,865.6708,868.5823,1,0,2.3715,,0,75,75,65,1,non_cognate,1,REAL,FALSA
,,,,,,,,,6661af0a3ac2d859f0c077f7,001,2024-06-30_06h14.04.574,empathy_intonation_perc,2024.1.4,Win32,59.88023952,,,,,,,,,,,,,,76,chocar,,,,,,868.5831,871.1658,1,0,2.0441,,0,76,76,75,1,non_cognate,1,REAL,FALSA
,,,,,,,,,6661af0a3ac2d859f0c077f7,001,2024-06-30_06h14.04.574,empathy_intonation_perc,2024.1.4,Win32,59.88023952,,,,,,,,,,,,,,73,llevar,,,,,,871.1666,873.6337,1,0,1.9248,,0,77,77,72,1,non_cognate,1,REAL,FALSA
,,,,,,,,,6661af0a3ac2d859f0c077f7,001,2024-06-30_06h14.04.574,empathy_intonation_perc,2024.1.4,Win32,59.88023952,,,,,,,,,,,,,,163,olzan,,,,,,873.6706,877.9231,0,1,3.7128,,0,78,78,162,1,pseudoword,0,REAL,FALSA
,,,,,,,,,6661af0a3ac2d859f0c077f7,001,2024-06-30_06h14.04.574,empathy_intonation_perc,2024.1.4,Win32,59.88023952,,,,,,,,,,,,,,16,chat,,,,,,877.9534,880.8048,1,0,2.3054,,0,79,79,15,1,three_way_cognate,1,REAL,FALSA
,,,,,,,,,6661af0a3ac2d859f0c077f7,001,2024-06-30_06h14.04.574,empathy_intonation_perc,2024.1.4,Win32,59.88023952,,,,,,,,,,,,,,108,jauda,,,,,,880.8055,886.1709,0,1,4.8218,,0,80,80,107,1,pseudoword,0,REAL,FALSA
,,,,,,,,,6661af0a3ac2d859f0c077f7,001,2024-06-30_06h14.04.574,empathy_intonation_perc,2024.1.4,Win32,59.88023952,,,,,,,,,,,,,,8,kilo,,,,,,886.1999,889.8972,1,0,3.1642,,0,81,81,7,1,three_way_cognate,1,REAL,FALSA
,,,,,,,,,6661af0a3ac2d859f0c077f7,001,2024-06-30_06h14.04.574,empathy_intonation_perc,2024.1.4,Win32,59.88023952,,,,,,,,,,,,,,43,honor,,,,,,889.9337,892.4312,1,0,1.9552,,0,82,82,42,1,two_way_cognate,1,REAL,FALSA
,,,,,,,,,6661af0a3ac2d859f0c077f7,001,2024-06-30_06h14.04.574,empathy_intonation_perc,2024.1.4,Win32,59.88023952,,,,,,,,,,,,,,109,laras,,,,,,892.4319,897.0845,0,1,4.1119,,0,83,83,108,1,pseudoword,0,REAL,FALSA
,,,,,,,,,6661af0a3ac2d859f0c077f7,001,2024-06-30_06h14.04.574,empathy_intonation_perc,2024.1.4,Win32,59.88023952,,,,,,,,,,,,,,179,suelet,,,,,,897.0969,902.8323,0,1,5.2186,,0,84,84,178,1,pseudoword,0,REAL,FALSA
,,,,,,,,,6661af0a3ac2d859f0c077f7,001,2024-06-30_06h14.04.574,empathy_intonation_perc,2024.1.4,Win32,59.88023952,,,,,,,,,,,,,,191,frasis,,,,,,902.8692,907.9826,1,0,4.5818,,0,85,85,190,1,pseudoword,0,REAL,FALSA
,,,,,,,,,6661af0a3ac2d859f0c077f7,001,2024-06-30_06h14.04.574,empathy_intonation_perc,2024.1.4,Win32,59.88023952,,,,,,,,,,,,,,56,pico,,,,,,908.013,910.5165,1,0,1.9667,,0,86,86,55,1,non_cognate,1,REAL,FALSA
,,,,,,,,,6661af0a3ac2d859f0c077f7,001,2024-06-30_06h14.04.574,empathy_intonation_perc,2024.1.4,Win32,59.88023952,,,,,,,,,,,,,,25,vigor,,,,,,910.5172,912.4212,1,0,1.3609,,0,87,87,24,1,two_way_cognate,1,REAL,FALSA
,,,,,,,,,6661af0a3ac2d859f0c077f7,001,2024-06-30_06h14.04.574,empathy_intonation_perc,2024.1.4,Win32,59.88023952,,,,,,,,,,,,,,91,equipo,,,,,,912.4219,914.8556,1,0,1.8931,,0,88,88,90,1,non_cognate,1,REAL,FALSA
,,,,,,,,,6661af0a3ac2d859f0c077f7,001,2024-06-30_06h14.04.574,empathy_intonation_perc,2024.1.4,Win32,59.88023952,,,,,,,,,,,,,,190,asumie,,,,,,914.8563,917.2899,1,0,1.8907,,0,89,89,189,1,pseudoword,0,REAL,FALSA
,,,,,,,,,6661af0a3ac2d859f0c077f7,001,2024-06-30_06h14.04.574,empathy_intonation_perc,2024.1.4,Win32,59.88023952,,,,,,,,,,,,,,112,samón,,,,,,917.2905,919.9898,1,0,2.1587,,0,90,90,111,1,pseudoword,0,REAL,FALSA
,,,,,,,,,6661af0a3ac2d859f0c077f7,001,2024-06-30_06h14.04.574,empathy_intonation_perc,2024.1.4,Win32,59.88023952,,,,,,,,,,,,,,115,lidena,,,,,,920.0267,924.9584,0,1,4.3976,,0,91,91,114,1,pseudoword,0,REAL,FALSA
,,,,,,,,,6661af0a3ac2d859f0c077f7,001,2024-06-30_06h14.04.574,empathy_intonation_perc,2024.1.4,Win32,59.88023952,,,,,,,,,,,,,,160,fomeó,,,,,,924.9876,929.2147,0,1,3.6927,,0,92,92,159,1,pseudoword,0,REAL,FALSA
,,,,,,,,,6661af0a3ac2d859f0c077f7,001,2024-06-30_06h14.04.574,empathy_intonation_perc,2024.1.4,Win32,59.88023952,,,,,,,,,,,,,,187,nomata,,,,,,929.2438,933.057,1,0,3.2797,,0,93,93,186,1,pseudoword,0,REAL,FALSA
,,,,,,,,,6661af0a3ac2d859f0c077f7,001,2024-06-30_06h14.04.574,empathy_intonation_perc,2024.1.4,Win32,59.88023952,,,,,,,,,,,,,,39,casual,,,,,,933.0862,935.7071,1,0,2.0964,,0,94,94,38,1,two_way_cognate,1,REAL,FALSA
,,,,,,,,,6661af0a3ac2d859f0c077f7,001,2024-06-30_06h14.04.574,empathy_intonation_perc,2024.1.4,Win32,59.88023952,,,,,,,,,,,,,,98,martir,,,,,,935.7326,938.2905,1,0,2.0331,,0,95,95,97,1,pseudoword,0,REAL,FALSA
,,,,,,,,,6661af0a3ac2d859f0c077f7,001,2024-06-30_06h14.04.574,empathy_intonation_perc,2024.1.4,Win32,59.88023952,,,,,,,,,,,,,,55,maldad,,,,,,938.2912,940.4597,1,0,1.6252,,0,96,96,54,1,non_cognate,1,REAL,FALSA
,,,,,,,,,6661af0a3ac2d859f0c077f7,001,2024-06-30_06h14.04.574,empathy_intonation_perc,2024.1.4,Win32,59.88023952,,,,,,,,,,,,,,128,pelí,,,,,,940.4602,942.4971,1,0,1.4959,,0,97,97,127,1,pseudoword,0,REAL,FALSA
,,,,,,,,,6661af0a3ac2d859f0c077f7,001,2024-06-30_06h14.04.574,empathy_intonation_perc,2024.1.4,Win32,59.88023952,,,,,,,,,,,,,,31,civil,,,,,,942.4978,944.4014,1,0,1.3603,,0,98,98,30,1,two_way_cognate,1,REAL,FALSA
,,,,,,,,,6661af0a3ac2d859f0c077f7,001,2024-06-30_06h14.04.574,empathy_intonation_perc,2024.1.4,Win32,59.88023952,,,,,,,,,,,,,,37,torso,,,,,,944.402,946.5214,1,0,1.5741,,0,99,99,36,1,two_way_cognate,1,REAL,FALSA
,,,,,,,,,6661af0a3ac2d859f0c077f7,001,2024-06-30_06h14.04.574,empathy_intonation_perc,2024.1.4,Win32,59.88023952,,,,,,,,,,,,,,45,total,,,,,,946.5219,948.625,1,0,1.5705,,0,100,100,44,1,two_way_cognate,1,REAL,FALSA
,,,,,,,,,6661af0a3ac2d859f0c077f7,001,2024-06-30_06h14.04.574,empathy_intonation_perc,2024.1.4,Win32,59.88023952,,,,,,,,,,,,,,167,dobbo,,,,,,948.6257,953.1627,0,1,3.994,,0,101,101,166,1,pseudoword,0,REAL,FALSA
,,,,,,,,,6661af0a3ac2d859f0c077f7,001,2024-06-30_06h14.04.574,empathy_intonation_perc,2024.1.4,Win32,59.88023952,,,,,,,,,,,,,,100,épinas,,,,,,953.1882,957.601,0,1,3.8872,,0,102,102,99,1,pseudoword,0,REAL,FALSA
,,,,,,,,,6661af0a3ac2d859f0c077f7,001,2024-06-30_06h14.04.574,empathy_intonation_perc,2024.1.4,Win32,59.88023952,,,,,,,,,,,,,,53,punta,,,,,,957.6133,960.9139,1,0,2.7826,,0,103,103,52,1,non_cognate,1,REAL,FALSA
,,,,,,,,,6661af0a3ac2d859f0c077f7,001,2024-06-30_06h14.04.574,empathy_intonation_perc,2024.1.4,Win32,59.88023952,,,,,,,,,,,,,,135,panté,,,,,,960.9146,965.2363,0,1,3.7881,,0,104,104,134,1,pseudoword,0,REAL,FALSA
,,,,,,,,,6661af0a3ac2d859f0c077f7,001,2024-06-30_06h14.04.574,empathy_intonation_perc,2024.1.4,Win32,59.88023952,,,,,,,,,,,,,,36,viable,,,,,,965.2711,969.2277,1,0,3.4224,,0,105,105,35,1,two_way_cognate,1,REAL,FALSA
,,,,,,,,,6661af0a3ac2d859f0c077f7,001,2024-06-30_06h14.04.574,empathy_intonation_perc,2024.1.4,Win32,59.88023952,,,,,,,,,,,,,,130,dubo,,,,,,969.2612,973.5333,0,1,3.7325,,0,106,106,129,1,pseudoword,0,REAL,FALSA
,,,,,,,,,6661af0a3ac2d859f0c077f7,001,2024-06-30_06h14.04.574,empathy_intonation_perc,2024.1.4,Win32,59.88023952,,,,,,,,,,,,,,21,hotel,,,,,,973.5456,977.7238,1,0,3.6516,,0,107,107,20,1,three_way_cognate,1,REAL,FALSA
,,,,,,,,,6661af0a3ac2d859f0c077f7,001,2024-06-30_06h14.04.574,empathy_intonation_perc,2024.1.4,Win32,59.88023952,,,,,,,,,,,,,,120,mauja,,,,,,977.7541,982.8909,0,1,4.588,,0,108,108,119,1,pseudoword,0,REAL,FALSA
,,,,,,,,,6661af0a3ac2d859f0c077f7,001,2024-06-30_06h14.04.574,empathy_intonation_perc,2024.1.4,Win32,59.88023952,,,,,,,,,,,,,,134,molor,,,,,,982.9124,986.4519,0,1,2.9986,,0,109,109,133,1,pseudoword,0,REAL,FALSA
,,,,,,,,,6661af0a3ac2d859f0c077f7,001,2024-06-30_06h14.04.574,empathy_intonation_perc,2024.1.4,Win32,59.88023952,,,,,,,,,,,,,,168,cobén,,,,,,986.4832,989.0355,0,1,2.0072,,0,110,110,167,1,pseudoword,0,REAL,FALSA
,,,,,,,,,6661af0a3ac2d859f0c077f7,001,2024-06-30_06h14.04.574,empathy_intonation_perc,2024.1.4,Win32,59.88023952,,,,,,,,,,,,,,151,prías,,,,,,989.0363,991.586,0,1,2.0138,,0,111,111,150,1,pseudoword,0,REAL,FALSA
,,,,,,,,,6661af0a3ac2d859f0c077f7,001,2024-06-30_06h14.04.574,empathy_intonation_perc,2024.1.4,Win32,59.88023952,,,,,,,,,,,,,,3,disco,,,,,,991.6154,995.3454,1,0,3.2088,,0,112,112,2,1,three_way_cognate,1,REAL,FALSA
,,,,,,,,,6661af0a3ac2d859f0c077f7,001,2024-06-30_06h14.04.574,empathy_intonation_perc,2024.1.4,Win32,59.88023952,,,,,,,,,,,,,,123,arane,,,,,,995.3463,1000.0163,0,1,4.1248,,0,113,113,122,1,pseudoword,0,REAL,FALSA
,,,,,,,,,6661af0a3ac2d859f0c077f7,001,2024-06-30_06h14.04.574,empathy_intonation_perc,2024.1.4,Win32,59.88023952,,,,,,,,,,,,,,23,plural,,,,,,1000.0467,1002.9801,1,0,2.3882,,0,114,114,22,1,three_way_cognate,1,REAL,FALSA
,,,,,,,,,6661af0a3ac2d859f0c077f7,001,2024-06-30_06h14.04.574,empathy_intonation_perc,2024.1.4,Win32,59.88023952,,,,,,,,,,,,,,178,inichó,,,,,,1002.9806,1005.2158,1,0,1.7033,,0,115,115,177,1,pseudoword,0,REAL,FALSA
,,,,,,,,,6661af0a3ac2d859f0c077f7,001,2024-06-30_06h14.04.574,empathy_intonation_perc,2024.1.4,Win32,59.88023952,,,,,,,,,,,,,,129,vinzó,,,,,,1005.2163,1010.2345,0,1,4.4819,,0,116,116,128,1,pseudoword,0,REAL,FALSA
,,,,,,,,,6661af0a3ac2d859f0c077f7,001,2024-06-30_06h14.04.574,empathy_intonation_perc,2024.1.4,Win32,59.88023952,,,,,,,,,,,,,,170,diabo,,,,,,1010.2703,1013.5965,1,0,2.7833,,0,117,117,169,1,pseudoword,0,REAL,FALSA
,,,,,,,,,6661af0a3ac2d859f0c077f7,001,2024-06-30_06h14.04.574,empathy_intonation_perc,2024.1.4,Win32,59.88023952,,,,,,,,,,,,,,97,nocita,,,,,,1013.6308,1018.5649,0,1,4.3992,,0,118,118,96,1,pseudoword,0,REAL,FALSA
,,,,,,,,,6661af0a3ac2d859f0c077f7,001,2024-06-30_06h14.04.574,empathy_intonation_perc,2024.1.4,Win32,59.88023952,,,,,,,,,,,,,,141,virios,,,,,,1018.5975,1022.6891,0,1,3.5524,,0,119,119,140,1,pseudoword,0,REAL,FALSA
,,,,,,,,,6661af0a3ac2d859f0c077f7,001,2024-06-30_06h14.04.574,empathy_intonation_perc,2024.1.4,Win32,59.88023952,,,,,,,,,,,,,,90,venado,,,,,,1022.7225,1026.4319,1,0,3.1741,,0,120,120,89,1,non_cognate,1,REAL,FALSA
,,,,,,,,,6661af0a3ac2d859f0c077f7,001,2024-06-30_06h14.04.574,empathy_intonation_perc,2024.1.4,Win32,59.88023952,,,,,,,,,,,,,,81,sacar,,,,,,1026.4682,1029.4125,1,0,2.4041,,0,121,121,80,1,non_cognate,1,REAL,FALSA
,,,,,,,,,6661af0a3ac2d859f0c077f7,001,2024-06-30_06h14.04.574,empathy_intonation_perc,2024.1.4,Win32,59.88023952,,,,,,,,,,,,,,103,vueras,,,,,,1029.4129,1035.8554,0,1,5.9133,,0,122,122,102,1,pseudoword,0,REAL,FALSA
,,,,,,,,,6661af0a3ac2d859f0c077f7,001,2024-06-30_06h14.04.574,empathy_intonation_perc,2024.1.4,Win32,59.88023952,,,,,,,,,,,,,,118,bará,,,,,,1035.8913,1038.5053,0,1,2.0733,,0,123,123,117,1,pseudoword,0,REAL,FALSA
,,,,,,,,,6661af0a3ac2d859f0c077f7,001,2024-06-30_06h14.04.574,empathy_intonation_perc,2024.1.4,Win32,59.88023952,,,,,,,,,,,,,,89,muñeca,,,,,,1038.506,1042.3479,1,0,3.2989,,0,124,124,88,1,non_cognate,1,REAL,FALSA
,,,,,,,,,6661af0a3ac2d859f0c077f7,001,2024-06-30_06h14.04.574,empathy_intonation_perc,2024.1.4,Win32,59.88023952,,,,,,,,,,,,,,95,listo,,,,,,1042.3766,1044.5337,1,0,1.6236,,0,125,125,94,1,non_cognate,1,REAL,FALSA
,,,,,,,,,6661af0a3ac2d859f0c077f7,001,2024-06-30_06h14.04.574,empathy_intonation_perc,2024.1.4,Win32,59.88023952,,,,,,,,,,,,,,161,civas,,,,,,1044.5344,1051.2909,0,1,6.2113,,0,126,126,160,1,pseudoword,0,REAL,FALSA
,,,,,,,,,6661af0a3ac2d859f0c077f7,001,2024-06-30_06h14.04.574,empathy_intonation_perc,2024.1.4,Win32,59.88023952,,,,,,,,,,,,,,58,colcha,,,,,,1051.3172,1057.6336,1,0,5.7946,,0,127,127,57,1,non_cognate,1,REAL,FALSA
,,,,,,,,,6661af0a3ac2d859f0c077f7,001,2024-06-30_06h14.04.574,empathy_intonation_perc,2024.1.4,Win32,59.88023952,,,,,,,,,,,,,,102,coyo,,,,,,1057.6535,1061.5095,0,1,3.3221,,0,128,128,101,1,pseudoword,0,REAL,FALSA
,,,,,,,,,6661af0a3ac2d859f0c077f7,001,2024-06-30_06h14.04.574,empathy_intonation_perc,2024.1.4,Win32,59.88023952,,,,,,,,,,,,,,79,suelo,,,,,,1061.542,1064.8712,1,0,2.7825,,0,129,129,78,1,non_cognate,1,REAL,FALSA
,,,,,,,,,6661af0a3ac2d859f0c077f7,001,2024-06-30_06h14.04.574,empathy_intonation_perc,2024.1.4,Win32,59.88023952,,,,,,,,,,,,,,117,morrá,,,,,,1064.8923,1067.5375,1,0,2.1081,,0,130,130,116,1,pseudoword,0,REAL,FALSA
,,,,,,,,,6661af0a3ac2d859f0c077f7,001,2024-06-30_06h14.04.574,empathy_intonation_perc,2024.1.4,Win32,59.88023952,,,,,,,,,,,,,,30,fiscal,,,,,,1067.538,1070.7008,1,0,2.6339,,0,131,131,29,1,two_way_cognate,1,REAL,FALSA
,,,,,,,,,6661af0a3ac2d859f0c077f7,001,2024-06-30_06h14.04.574,empathy_intonation_perc,2024.1.4,Win32,59.88023952,,,,,,,,,,,,,,70,ánimo,,,,,,1070.7126,1072.7875,1,0,1.552,,0,132,132,69,1,non_cognate,1,REAL,FALSA
,,,,,,,,,6661af0a3ac2d859f0c077f7,001,2024-06-30_06h14.04.574,empathy_intonation_perc,2024.1.4,Win32,59.88023952,,,,,,,,,,,,,,173,mibro,,,,,,1072.7881,1076.3322,0,1,3.01,,0,133,133,172,1,pseudoword,0,REAL,FALSA
,,,,,,,,,6661af0a3ac2d859f0c077f7,001,2024-06-30_06h14.04.574,empathy_intonation_perc,2024.1.4,Win32,59.88023952,,,,,,,,,,,,,,9,portal,,,,,,1076.3643,1078.8993,1,0,1.9905,,0,134,134,8,1,three_way_cognate,1,REAL,FALSA
,,,,,,,,,6661af0a3ac2d859f0c077f7,001,2024-06-30_06h14.04.574,empathy_intonation_perc,2024.1.4,Win32,59.88023952,,,,,,,,,,,,,,133,conso,,,,,,1078.8999,1083.0066,0,1,3.5735,,0,135,135,132,1,pseudoword,0,REAL,FALSA
,,,,,,,,,6661af0a3ac2d859f0c077f7,001,2024-06-30_06h14.04.574,empathy_intonation_perc,2024.1.4,Win32,59.88023952,,,,,,,,,,,,,,124,lobe,,,,,,1083.0436,1086.2525,0,1,2.6692,,0,136,136,123,1,pseudoword,0,REAL,FALSA
,,,,,,,,,6661af0a3ac2d859f0c077f7,001,2024-06-30_06h14.04.574,empathy_intonation_perc,2024.1.4,Win32,59.88023952,,,,,,,,,,,,,,17,clan,,,,,,1086.2764,1088.6541,1,0,1.8392,,0,137,137,16,1,three_way_cognate,1,REAL,FALSA
,,,,,,,,,6661af0a3ac2d859f0c077f7,001,2024-06-30_06h14.04.574,empathy_intonation_perc,2024.1.4,Win32,59.88023952,,,,,,,,,,,,,,126,tobre,,,,,,1088.6549,1092.5792,0,1,3.3813,,0,138,138,125,1,pseudoword,0,REAL,FALSA
,,,,,,,,,6661af0a3ac2d859f0c077f7,001,2024-06-30_06h14.04.574,empathy_intonation_perc,2024.1.4,Win32,59.88023952,,,,,,,,,,,,,,22,mango,,,,,,1092.6157,1095.2955,1,0,2.1371,,0,139,139,21,1,three_way_cognate,1,REAL,FALSA
,,,,,,,,,6661af0a3ac2d859f0c077f7,001,2024-06-30_06h14.04.574,empathy_intonation_perc,2024.1.4,Win32,59.88023952,,,,,,,,,,,,,,78,rendir,,,,,,1095.2963,1097.3984,1,0,1.5636,,0,140,140,77,1,non_cognate,1,REAL,FALSA
,,,,,,,,,6661af0a3ac2d859f0c077f7,001,2024-06-30_06h14.04.574,empathy_intonation_perc,2024.1.4,Win32,59.88023952,,,,,,,,,,,,,,145,rúo,,,,,,1097.399,1102.1849,0,1,4.255,,0,141,141,144,1,pseudoword,0,REAL,FALSA
,,,,,,,,,6661af0a3ac2d859f0c077f7,001,2024-06-30_06h14.04.574,empathy_intonation_perc,2024.1.4,Win32,59.88023952,,,,,,,,,,,,,,110,densó,,,,,,1102.2201,1105.3318,1,0,2.5777,,0,142,142,109,1,pseudoword,0,REAL,FALSA
,,,,,,,,,6661af0a3ac2d859f0c077f7,001,2024-06-30_06h14.04.574,empathy_intonation_perc,2024.1.4,Win32,59.88023952,,,,,,,,,,,,,,34,actor,,,,,,1105.3325,1107.021,1,0,1.1434,,0,143,143,33,1,two_way_cognate,1,REAL,FALSA
,,,,,,,,,6661af0a3ac2d859f0c077f7,001,2024-06-30_06h14.04.574,empathy_intonation_perc,2024.1.4,Win32,59.88023952,,,,,,,,,,,,,,6,horror,,,,,,1107.0217,1108.5777,1,0,1.016,,0,144,144,5,1,three_way_cognate,1,REAL,FALSA
,,,,,,,,,6661af0a3ac2d859f0c077f7,001,2024-06-30_06h14.04.574,empathy_intonation_perc,2024.1.4,Win32,59.88023952,,,,,,,,,,,,,,186,rizate,,,,,,1108.5785,1111.2277,1,0,2.1066,,0,145,145,185,1,pseudoword,0,REAL,FALSA
,,,,,,,,,6661af0a3ac2d859f0c077f7,001,2024-06-30_06h14.04.574,empathy_intonation_perc,2024.1.4,Win32,59.88023952,,,,,,,,,,,,,,149,emén,,,,,,1111.2284,1114.5401,0,1,2.7679,,0,146,146,148,1,pseudoword,0,REAL,FALSA
,,,,,,,,,6661af0a3ac2d859f0c077f7,001,2024-06-30_06h14.04.574,empathy_intonation_perc,2024.1.4,Win32,59.88023952,,,,,,,,,,,,,,51,listo,,,,,,1114.5772,1120.2037,1,0,5.0885,,0,147,147,50,1,non_cognate,1,REAL,FALSA
,,,,,,,,,6661af0a3ac2d859f0c077f7,001,2024-06-30_06h14.04.574,empathy_intonation_perc,2024.1.4,Win32,59.88023952,,,,,,,,,,,,,,88,percha,,,,,,1120.2238,1122.3237,1,0,1.5684,,0,148,148,87,1,non_cognate,1,REAL,FALSA
,,,,,,,,,6661af0a3ac2d859f0c077f7,001,2024-06-30_06h14.04.574,empathy_intonation_perc,2024.1.4,Win32,59.88023952,,,,,,,,,,,,,,188,amplir,,,,,,1122.3241,1124.427,1,0,1.5682,,0,149,149,187,1,pseudoword,0,REAL,FALSA
,,,,,,,,,6661af0a3ac2d859f0c077f7,001,2024-06-30_06h14.04.574,empathy_intonation_perc,2024.1.4,Win32,59.88023952,,,,,,,,,,,,,,148,gino,,,,,,1124.4275,1131.433,0,1,6.4713,,0,150,150,147,1,pseudoword,0,REAL,FALSA
,,,,,,,,,6661af0a3ac2d859f0c077f7,001,2024-06-30_06h14.04.574,empathy_intonation_perc,2024.1.4,Win32,59.88023952,,,,,,,,,,,,,,105,leniz,,,,,,1131.4691,1138.9851,0,1,6.9733,,0,151,151,104,1,pseudoword,0,REAL,FALSA
,,,,,,,,,6661af0a3ac2d859f0c077f7,001,2024-06-30_06h14.04.574,empathy_intonation_perc,2024.1.4,Win32,59.88023952,,,,,,,,,,,,,,138,tator,,,,,,1139.0238,1142.695,0,1,3.139,,0,152,152,137,1,pseudoword,0,REAL,FALSA
,,,,,,,,,6661af0a3ac2d859f0c077f7,001,2024-06-30_06h14.04.574,empathy_intonation_perc,2024.1.4,Win32,59.88023952,,,,,,,,,,,,,,166,anfia,,,,,,1142.6958,1147.5309,0,1,4.2902,,0,153,153,165,1,pseudoword,0,REAL,FALSA
,,,,,,,,,6661af0a3ac2d859f0c077f7,001,2024-06-30_06h14.04.574,empathy_intonation_perc,2024.1.4,Win32,59.88023952,,,,,,,,,,,,,,11,golf,,,,,,1147.5594,1150.612,1,0,2.5244,,0,154,154,10,1,three_way_cognate,1,REAL,FALSA
,,,,,,,,,6661af0a3ac2d859f0c077f7,001,2024-06-30_06h14.04.574,empathy_intonation_perc,2024.1.4,Win32,59.88023952,,,,,,,,,,,,,,38,halo,,,,,,1150.6131,1157.1033,1,0,5.9532,,0,155,155,37,1,two_way_cognate,1,REAL,FALSA
,,,,,,,,,6661af0a3ac2d859f0c077f7,001,2024-06-30_06h14.04.574,empathy_intonation_perc,2024.1.4,Win32,59.88023952,,,,,,,,,,,,,,121,barbs,,,,,,1157.1284,1161.0285,1,0,3.3654,,0,156,156,120,1,pseudoword,0,REAL,FALSA
,,,,,,,,,6661af0a3ac2d859f0c077f7,001,2024-06-30_06h14.04.574,empathy_intonation_perc,2024.1.4,Win32,59.88023952,,,,,,,,,,,,,,111,monue,,,,,,1161.0291,1165.9144,0,1,4.3437,,0,157,157,110,1,pseudoword,0,REAL,FALSA
,,,,,,,,,6661af0a3ac2d859f0c077f7,001,2024-06-30_06h14.04.574,empathy_intonation_perc,2024.1.4,Win32,59.88023952,,,,,,,,,,,,,,146,gió,,,,,,1165.9444,1170.3198,0,1,3.8359,,0,158,158,145,1,pseudoword,0,REAL,FALSA
,,,,,,,,,6661af0a3ac2d859f0c077f7,001,2024-06-30_06h14.04.574,empathy_intonation_perc,2024.1.4,Win32,59.88023952,,,,,,,,,,,,,,96,caro,,,,,,1170.353,1173.8972,1,0,2.9982,,0,159,159,95,1,non_cognate,1,REAL,FALSA
,,,,,,,,,6661af0a3ac2d859f0c077f7,001,2024-06-30_06h14.04.574,empathy_intonation_perc,2024.1.4,Win32,59.88023952,,,,,,,,,,,,,,184,huenos,,,,,,1173.9263,1175.9343,1,0,1.4748,,0,160,160,183,1,pseudoword,0,REAL,FALSA
,,,,,,,,,6661af0a3ac2d859f0c077f7,001,2024-06-30_06h14.04.574,empathy_intonation_perc,2024.1.4,Win32,59.88023952,,,,,,,,,,,,,,74,ala,,,,,,1175.9349,1178.0873,1,0,1.61,,0,161,161,73,1,non_cognate,1,REAL,FALSA
,,,,,,,,,6661af0a3ac2d859f0c077f7,001,2024-06-30_06h14.04.574,empathy_intonation_perc,2024.1.4,Win32,59.88023952,,,,,,,,,,,,,,136,hueas,,,,,,1178.0879,1180.3397,1,0,1.7094,,0,162,162,135,1,pseudoword,0,REAL,FALSA
,,,,,,,,,6661af0a3ac2d859f0c077f7,001,2024-06-30_06h14.04.574,empathy_intonation_perc,2024.1.4,Win32,59.88023952,,,,,,,,,,,,,,28,ardor,,,,,,1180.3403,1182.5756,1,0,1.6924,,0,163,163,27,1,two_way_cognate,1,REAL,FALSA
,,,,,,,,,6661af0a3ac2d859f0c077f7,001,2024-06-30_06h14.04.574,empathy_intonation_perc,2024.1.4,Win32,59.88023952,,,,,,,,,,,,,,154,harvé,,,,,,1182.5763,1188.5874,0,1,5.4686,,0,164,164,153,1,pseudoword,0,REAL,FALSA
,,,,,,,,,6661af0a3ac2d859f0c077f7,001,2024-06-30_06h14.04.574,empathy_intonation_perc,2024.1.4,Win32,59.88023952,,,,,,,,,,,,,,7,albino,,,,,,1188.6212,1196.702,1,0,7.5496,,0,165,165,6,1,three_way_cognate,1,REAL,FALSA
,,,,,,,,,6661af0a3ac2d859f0c077f7,001,2024-06-30_06h14.04.574,empathy_intonation_perc,2024.1.4,Win32,59.88023952,,,,,,,,,,,,,,114,dibrea,,,,,,1196.7145,1204.8838,0,1,7.6383,,0,166,166,113,1,pseudoword,0,REAL,FALSA
,,,,,,,,,6661af0a3ac2d859f0c077f7,001,2024-06-30_06h14.04.574,empathy_intonation_perc,2024.1.4,Win32,59.88023952,,,,,,,,,,,,,,2,tumor,,,,,,1204.9063,1207.5003,1,0,2.058,,0,167,167,1,1,three_way_cognate,1,REAL,FALSA
,,,,,,,,,6661af0a3ac2d859f0c077f7,001,2024-06-30_06h14.04.574,empathy_intonation_perc,2024.1.4,Win32,59.88023952,,,,,,,,,,,,,,13,plan,,,,,,1207.5008,1209.1898,1,0,1.1463,,0,168,168,12,1,three_way_cognate,1,REAL,FALSA
,,,,,,,,,6661af0a3ac2d859f0c077f7,001,2024-06-30_06h14.04.574,empathy_intonation_perc,2024.1.4,Win32,59.88023952,,,,,,,,,,,,,,62,pegar,,,,,,1209.1902,1214.2082,0,1,4.4767,,0,169,169,61,1,non_cognate,1,REAL,FALSA
,,,,,,,,,6661af0a3ac2d859f0c077f7,001,2024-06-30_06h14.04.574,empathy_intonation_perc,2024.1.4,Win32,59.88023952,,,,,,,,,,,,,,32,animal,,,,,,1214.2417,1216.7253,1,0,1.9474,,0,170,170,31,1,two_way_cognate,1,REAL,FALSA
,,,,,,,,,6661af0a3ac2d859f0c077f7,001,2024-06-30_06h14.04.574,empathy_intonation_perc,2024.1.4,Win32,59.88023952,,,,,,,,,,,,,,92,flecha,,,,,,1216.7257,1220.8661,0,1,3.6072,,0,171,171,91,1,non_cognate,1,REAL,FALSA
,,,,,,,,,6661af0a3ac2d859f0c077f7,001,2024-06-30_06h14.04.574,empathy_intonation_perc,2024.1.4,Win32,59.88023952,,,,,,,,,,,,,,162,cengo,,,,,,1220.9007,1224.2115,0,1,2.7689,,0,172,172,161,1,pseudoword,0,REAL,FALSA
,,,,,,,,,6661af0a3ac2d859f0c077f7,001,2024-06-30_06h14.04.574,empathy_intonation_perc,2024.1.4,Win32,59.88023952,,,,,,,,,,,,,,61,aduana,,,,,,1224.2405,1229.5938,0,1,4.8272,,0,173,173,60,1,non_cognate,1,REAL,FALSA
,,,,,,,,,6661af0a3ac2d859f0c077f7,001,2024-06-30_06h14.04.574,empathy_intonation_perc,2024.1.4,Win32,59.88023952,,,,,,,,,,,,,,137,trugo,,,,,,1229.6152,1233.6682,0,1,3.5117,,0,174,174,136,1,pseudoword,0,REAL,FALSA
,,,,,,,,,6661af0a3ac2d859f0c077f7,001,2024-06-30_06h14.04.574,empathy_intonation_perc,2024.1.4,Win32,59.88023952,,,,,,,,,,,,,,139,sasos,,,,,,1233.7048,1236.4342,0,1,2.1935,,0,175,175,138,1,pseudoword,0,REAL,FALSA
,,,,,,,,,6661af0a3ac2d859f0c077f7,001,2024-06-30_06h14.04.574,empathy_intonation_perc,2024.1.4,Win32,59.88023952,,,,,,,,,,,,,,116,grigir,,,,,,1236.4351,1239.2496,0,1,2.2734,,0,176,176,115,1,pseudoword,0,REAL,FALSA
,,,,,,,,,6661af0a3ac2d859f0c077f7,001,2024-06-30_06h14.04.574,empathy_intonation_perc,2024.1.4,Win32,59.88023952,,,,,,,,,,,,,,152,prave,,,,,,1239.287,1251.2563,0,1,11.4368,,0,177,177,151,1,pseudoword,0,REAL,FALSA
,,,,,,,,,6661af0a3ac2d859f0c077f7,001,2024-06-30_06h14.04.574,empathy_intonation_perc,2024.1.4,Win32,59.88023952,,,,,,,,,,,,,,20,trauma,,,,,,1251.2689,1254.1878,1,0,2.3958,,0,178,178,19,1,three_way_cognate,1,REAL,FALSA
,,,,,,,,,6661af0a3ac2d859f0c077f7,001,2024-06-30_06h14.04.574,empathy_intonation_perc,2024.1.4,Win32,59.88023952,,,,,,,,,,,,,,107,plago,,,,,,1254.1883,1259.2061,0,1,4.4822,,0,179,179,106,1,pseudoword,0,REAL,FALSA
,,,,,,,,,6661af0a3ac2d859f0c077f7,001,2024-06-30_06h14.04.574,empathy_intonation_perc,2024.1.4,Win32,59.88023952,,,,,,,,,,,,,,40,pelvis,,,,,,1259.2287,1261.7567,1,0,1.9987,,0,180,180,39,1,two_way_cognate,1,REAL,FALSA
,,,,,,,,,6661af0a3ac2d859f0c077f7,001,2024-06-30_06h14.04.574,empathy_intonation_perc,2024.1.4,Win32,59.88023952,,,,,,,,,,,,,,171,gotro,,,,,,1261.7908,1268.1329,0,1,5.7992,,0,181,181,170,1,pseudoword,0,REAL,FALSA
,,,,,,,,,6661af0a3ac2d859f0c077f7,001,2024-06-30_06h14.04.574,empathy_intonation_perc,2024.1.4,Win32,59.88023952,,,,,,,,,,,,,,10,drama,,,,,,1268.154,1271.5943,1,0,2.9055,,0,182,182,9,1,three_way_cognate,1,REAL,FALSA
,,,,,,,,,6661af0a3ac2d859f0c077f7,001,2024-06-30_06h14.04.574,empathy_intonation_perc,2024.1.4,Win32,59.88023952,,,,,,,,,,,,,,47,color,,,,,,1271.6159,1275.1553,1,0,3.0091,,0,183,183,46,1,two_way_cognate,1,REAL,FALSA
,,,,,,,,,6661af0a3ac2d859f0c077f7,001,2024-06-30_06h14.04.574,empathy_intonation_perc,2024.1.4,Win32,59.88023952,,,,,,,,,,,,,,42,rumor,,,,,,1275.1559,1279.6602,1,0,3.9615,,0,184,184,41,1,two_way_cognate,1,REAL,FALSA
,,,,,,,,,6661af0a3ac2d859f0c077f7,001,2024-06-30_06h14.04.574,empathy_intonation_perc,2024.1.4,Win32,59.88023952,,,,,,,,,,,,,,75,patada,,,,,,1279.6964,1286.7319,0,1,6.4954,,0,185,185,74,1,non_cognate,1,REAL,FALSA
,,,,,,,,,6661af0a3ac2d859f0c077f7,001,2024-06-30_06h14.04.574,empathy_intonation_perc,2024.1.4,Win32,59.88023952,,,,,,,,,,,,,,84,aviso,,,,,,1286.757,1290.2596,0,1,2.9765,,0,186,186,83,1,non_cognate,1,REAL,FALSA
,,,,,,,,,6661af0a3ac2d859f0c077f7,001,2024-06-30_06h14.04.574,empathy_intonation_perc,2024.1.4,Win32,59.88023952,,,,,,,,,,,,,,86,cuenco,,,,,,1290.2921,1293.2904,0,1,2.4518,,0,187,187,85,1,non_cognate,1,REAL,FALSA
,,,,,,,,,6661af0a3ac2d859f0c077f7,001,2024-06-30_06h14.04.574,empathy_intonation_perc,2024.1.4,Win32,59.88023952,,,,,,,,,,,,,,14,aura,,,,,,1293.2912,1296.8347,1,0,2.9984,,0,188,188,13,1,three_way_cognate,1,REAL,FALSA
,,,,,,,,,6661af0a3ac2d859f0c077f7,001,2024-06-30_06h14.04.574,empathy_intonation_perc,2024.1.4,Win32,59.88023952,,,,,,,,,,,,,,33,collar,,,,,,1296.8647,1298.4575,1,0,1.0483,,0,189,189,32,1,two_way_cognate,1,REAL,FALSA
,,,,,,,,,6661af0a3ac2d859f0c077f7,001,2024-06-30_06h14.04.574,empathy_intonation_perc,2024.1.4,Win32,59.88023952,,,,,,,,,,,,,,172,dogue,,,,,,1298.4582,1303.2767,0,1,4.2765,,0,190,190,171,1,pseudoword,0,REAL,FALSA
,,,,,,,,,6661af0a3ac2d859f0c077f7,001,2024-06-30_06h14.04.574,empathy_intonation_perc,2024.1.4,Win32,59.88023952,,,,,,,,,,,,,,1,moral,,,,,,1303.2986,1305.6619,1,0,1.8223,,0,191,191,0,1,three_way_cognate,1,REAL,FALSA
