lextale_instructions.started,lextale_instructions.stopped,lextale_instructions_loop.thisRepN,lextale_instructions_loop.thisTrialN,lextale_instructions_loop.thisN,lextale_instructions_loop.thisIndex,lextale_instructions_loop.ran,instructions_text,continue_text,participant,session,date,expName,psychopyVersion,OS,frameRate,lextale_practice.started,lextale_practice.stopped,key_resp_lextale_practice.keys,key_resp_lextale_practice.corr,key_resp_lextale_practice.rt,key_resp_lextale_practice.duration,lextale_practice_feedback.started,lextale_practice_feedback.stopped,lextale_practice_trials.thisRepN,lextale_practice_trials.thisTrialN,lextale_practice_trials.thisN,lextale_practice_trials.thisIndex,lextale_practice_trials.ran,stim,word,correct_response,prac_button_real,prac_button_false,lextale_check.started,lextale_check.stopped,lextale_trial.started,lextale_trial.stopped,key_resp_lextale_trial.keys,key_resp_lextale_trial.corr,key_resp_lextale_trial.rt,key_resp_lextale_trial.duration,lextail_trials.thisRepN,lextail_trials.thisTrialN,lextail_trials.thisN,lextail_trials.thisIndex,lextail_trials.ran,type,correct_reponse,button_real,button_false
0.008,4.13,0,0,0,0,1,"Este es un test de vocabulario en español. 
  
  A continuación vas a ver 90 secuencias de letras que parecen 'españolas'.
  
  Solo algunas de ellas son palabras de verdad.",(presiona la barra espaciadora para continuar),666ad669cd0ab9c0210a1886,001,2024-06-30_06h48.57.796,empathy_intonation_perc,2024.1.4,Win32,59.95203837,,,,,,,,,,,,,,,,,,,,,,,,,,,,,,,,,,,
4.133,6.811,0,1,1,1,1,"Por favor, señala las palabras que tú conoces (aquellas que estás convencido que son palabras españolas, incluso aunque no seas capaz de dar el significado preciso).",(presiona la barra espaciadora para continuar),666ad669cd0ab9c0210a1886,001,2024-06-30_06h48.57.796,empathy_intonation_perc,2024.1.4,Win32,59.95203837,,,,,,,,,,,,,,,,,,,,,,,,,,,,,,,,,,,
6.815,8.258,0,2,2,2,1,Pero cuidado: los errores se penalizan. Por eso no tiene sentido tratar de incrementar tu puntuación marcando como reales palabras que nunca has visto.,(presiona la barra espaciadora para continuar),666ad669cd0ab9c0210a1886,001,2024-06-30_06h48.57.796,empathy_intonation_perc,2024.1.4,Win32,59.95203837,,,,,,,,,,,,,,,,,,,,,,,,,,,,,,,,,,,
8.259,14.215,0,3,3,3,1,"Presiona la tecla 1 si piensas que es una palabra real y la tecla 
  0 si piensas que es una palabra falsa. 
  
  Vamos a practicar un poco...",(presiona la barra espaciadora para continuar),666ad669cd0ab9c0210a1886,001,2024-06-30_06h48.57.796,empathy_intonation_perc,2024.1.4,Win32,59.95203837,,,,,,,,,,,,,,,,,,,,,,,,,,,,,,,,,,,
,,,,,,,,,666ad669cd0ab9c0210a1886,001,2024-06-30_06h48.57.796,empathy_intonation_perc,2024.1.4,Win32,59.95203837,14.225,21.47,1,0,6.571,,21.47,22.841,0,0,0,0,1,0,depiste,0,REAL,FALSA,,,,,,,,,,,,,,,,,
,,,,,,,,,666ad669cd0ab9c0210a1886,001,2024-06-30_06h48.57.796,empathy_intonation_perc,2024.1.4,Win32,59.95203837,22.843,25.097,1,1,1.713,,25.097,26.096,0,1,1,1,1,0,sí,1,REAL,FALSA,,,,,,,,,,,,,,,,,
,,,,,,,,,666ad669cd0ab9c0210a1886,001,2024-06-30_06h48.57.796,empathy_intonation_perc,2024.1.4,Win32,59.95203837,26.099,30.227,0,1,3.386,,30.227,30.851,0,2,2,2,1,0,coné,0,REAL,FALSA,,,,,,,,,,,,,,,,,
,,,,,,,,,666ad669cd0ab9c0210a1886,001,2024-06-30_06h48.57.796,empathy_intonation_perc,2024.1.4,Win32,59.95203837,30.859,33.685,1,0,2.295,,33.686,34.837,0,3,3,3,1,0,calpar,0,REAL,FALSA,,,,,,,,,,,,,,,,,
,,,,,,,,,666ad669cd0ab9c0210a1886,001,2024-06-30_06h48.57.796,empathy_intonation_perc,2024.1.4,Win32,59.95203837,34.838,37.095,0,1,1.713,,37.096,38.094,0,4,4,4,1,0,joten,0,REAL,FALSA,,,,,,,,,,,,,,,,,
,,,,,,,,,666ad669cd0ab9c0210a1886,001,2024-06-30_06h48.57.796,empathy_intonation_perc,2024.1.4,Win32,59.95203837,38.095,41.554,0,0,2.714,,41.554,42.829,0,5,5,5,1,0,sacapuntas,1,REAL,FALSA,,,,,,,,,,,,,,,,,
,,,,,,,,,666ad669cd0ab9c0210a1886,001,2024-06-30_06h48.57.796,empathy_intonation_perc,2024.1.4,Win32,59.95203837,42.831,44.822,1,0,1.34,,44.822,45.814,0,6,6,6,1,0,priba,0,REAL,FALSA,,,,,,,,,,,,,,,,,
,,,,,,,,,666ad669cd0ab9c0210a1886,001,2024-06-30_06h48.57.796,empathy_intonation_perc,2024.1.4,Win32,59.95203837,45.816,49.345,1,0,2.47,,49.345,50.826,0,7,7,7,1,0,pelasula,0,REAL,FALSA,,,,,,,,,,,,,,,,,
,,,,,,,,,666ad669cd0ab9c0210a1886,001,2024-06-30_06h48.57.796,empathy_intonation_perc,2024.1.4,Win32,59.95203837,50.828,53.054,1,1,1.698,,53.054,54.052,0,8,8,8,1,0,bien,1,REAL,FALSA,,,,,,,,,,,,,,,,,
,,,,,,,,,666ad669cd0ab9c0210a1886,001,2024-06-30_06h48.57.796,empathy_intonation_perc,2024.1.4,Win32,59.95203837,54.055,56.839,1,1,1.891,,56.839,57.83,0,9,9,9,1,0,casa,1,REAL,FALSA,,,,,,,,,,,,,,,,,
,,,,,,,,,666ad669cd0ab9c0210a1886,001,2024-06-30_06h48.57.796,empathy_intonation_perc,2024.1.4,Win32,59.95203837,57.832,60.126,0,1,1.246,,60.126,60.827,0,10,10,10,1,0,lejo,0,REAL,FALSA,,,,,,,,,,,,,,,,,
,,,,,,,,,666ad669cd0ab9c0210a1886,001,2024-06-30_06h48.57.796,empathy_intonation_perc,2024.1.4,Win32,59.95203837,60.828,62.832,1,0,1.41,,62.832,63.82,0,11,11,11,1,0,pretantas,0,REAL,FALSA,,,,,,,,,,,,,,,,,
,,,,,,,,,666ad669cd0ab9c0210a1886,001,2024-06-30_06h48.57.796,empathy_intonation_perc,2024.1.4,Win32,59.95203837,,,,,,,,,,,,,,,,,,,63.82,65.969,,,,,,,,,,,,,,,
,,,,,,,,,666ad669cd0ab9c0210a1886,001,2024-06-30_06h48.57.796,empathy_intonation_perc,2024.1.4,Win32,59.95203837,,,,,,,,,,,,,,7,albino,,,,,,66.005,69.014,0,1,2.129,,0,0,0,6,1,three_way_cognate,1,REAL,FALSA
,,,,,,,,,666ad669cd0ab9c0210a1886,001,2024-06-30_06h48.57.796,empathy_intonation_perc,2024.1.4,Win32,59.95203837,,,,,,,,,,,,,,45,total,,,,,,69.017,72.837,0,1,3.014,0.274,0,1,1,44,1,two_way_cognate,1,REAL,FALSA
,,,,,,,,,666ad669cd0ab9c0210a1886,001,2024-06-30_06h48.57.796,empathy_intonation_perc,2024.1.4,Win32,59.95203837,,,,,,,,,,,,,,51,listo,,,,,,72.838,74.822,1,0,1.287,,0,2,2,50,1,non_cognate,1,REAL,FALSA
,,,,,,,,,666ad669cd0ab9c0210a1886,001,2024-06-30_06h48.57.796,empathy_intonation_perc,2024.1.4,Win32,59.95203837,,,,,,,,,,,,,,21,hotel,,,,,,74.824,77.649,0,1,2.295,,0,3,3,20,1,three_way_cognate,1,REAL,FALSA
,,,,,,,,,666ad669cd0ab9c0210a1886,001,2024-06-30_06h48.57.796,empathy_intonation_perc,2024.1.4,Win32,59.95203837,,,,,,,,,,,,,,57,regalo,,,,,,77.651,81.659,1,0,3.479,,0,4,4,56,1,non_cognate,1,REAL,FALSA
,,,,,,,,,666ad669cd0ab9c0210a1886,001,2024-06-30_06h48.57.796,empathy_intonation_perc,2024.1.4,Win32,59.95203837,,,,,,,,,,,,,,166,anfia,,,,,,81.661,84.818,0,1,2.267,0.239,0,5,5,165,1,pseudoword,0,REAL,FALSA
,,,,,,,,,666ad669cd0ab9c0210a1886,001,2024-06-30_06h48.57.796,empathy_intonation_perc,2024.1.4,Win32,59.95203837,,,,,,,,,,,,,,85,enorme,,,,,,84.82,86.827,0,1,1.204,0.253,0,6,6,84,1,non_cognate,1,REAL,FALSA
,,,,,,,,,666ad669cd0ab9c0210a1886,001,2024-06-30_06h48.57.796,empathy_intonation_perc,2024.1.4,Win32,59.95203837,,,,,,,,,,,,,,40,pelvis,,,,,,86.829,89.63,1,0,2.268,,0,7,7,39,1,two_way_cognate,1,REAL,FALSA
,,,,,,,,,666ad669cd0ab9c0210a1886,001,2024-06-30_06h48.57.796,empathy_intonation_perc,2024.1.4,Win32,59.95203837,,,,,,,,,,,,,,173,mibro,,,,,,89.632,93.341,0,1,3.174,,0,8,8,172,1,pseudoword,0,REAL,FALSA
,,,,,,,,,666ad669cd0ab9c0210a1886,001,2024-06-30_06h48.57.796,empathy_intonation_perc,2024.1.4,Win32,59.95203837,,,,,,,,,,,,,,24,retina,,,,,,93.342,95.737,1,0,1.866,,0,9,9,23,1,three_way_cognate,1,REAL,FALSA
,,,,,,,,,666ad669cd0ab9c0210a1886,001,2024-06-30_06h48.57.796,empathy_intonation_perc,2024.1.4,Win32,59.95203837,,,,,,,,,,,,,,22,mango,,,,,,95.739,98.855,1,0,2.251,0.303,0,10,10,21,1,three_way_cognate,1,REAL,FALSA
,,,,,,,,,666ad669cd0ab9c0210a1886,001,2024-06-30_06h48.57.796,empathy_intonation_perc,2024.1.4,Win32,59.95203837,,,,,,,,,,,,,,118,bará,,,,,,98.858,101.312,1,0,1.926,,0,11,11,117,1,pseudoword,0,REAL,FALSA
,,,,,,,,,666ad669cd0ab9c0210a1886,001,2024-06-30_06h48.57.796,empathy_intonation_perc,2024.1.4,Win32,59.95203837,,,,,,,,,,,,,,59,feo,,,,,,101.315,103.093,0,1,1.248,,0,12,12,58,1,non_cognate,1,REAL,FALSA
,,,,,,,,,666ad669cd0ab9c0210a1886,001,2024-06-30_06h48.57.796,empathy_intonation_perc,2024.1.4,Win32,59.95203837,,,,,,,,,,,,,,141,virios,,,,,,103.096,105.056,1,0,1.426,,0,13,13,140,1,pseudoword,0,REAL,FALSA
,,,,,,,,,666ad669cd0ab9c0210a1886,001,2024-06-30_06h48.57.796,empathy_intonation_perc,2024.1.4,Win32,59.95203837,,,,,,,,,,,,,,122,boñaz,,,,,,105.058,106.988,1,0,1.4,,0,14,14,121,1,pseudoword,0,REAL,FALSA
,,,,,,,,,666ad669cd0ab9c0210a1886,001,2024-06-30_06h48.57.796,empathy_intonation_perc,2024.1.4,Win32,59.95203837,,,,,,,,,,,,,,41,pasta,,,,,,106.99,108.966,1,0,1.447,,0,15,15,40,1,two_way_cognate,1,REAL,FALSA
,,,,,,,,,666ad669cd0ab9c0210a1886,001,2024-06-30_06h48.57.796,empathy_intonation_perc,2024.1.4,Win32,59.95203837,,,,,,,,,,,,,,47,color,,,,,,108.969,111.081,1,0,1.579,,0,16,16,46,1,two_way_cognate,1,REAL,FALSA
,,,,,,,,,666ad669cd0ab9c0210a1886,001,2024-06-30_06h48.57.796,empathy_intonation_perc,2024.1.4,Win32,59.95203837,,,,,,,,,,,,,,188,amplir,,,,,,111.084,113.676,0,1,2.062,,0,17,17,187,1,pseudoword,0,REAL,FALSA
,,,,,,,,,666ad669cd0ab9c0210a1886,001,2024-06-30_06h48.57.796,empathy_intonation_perc,2024.1.4,Win32,59.95203837,,,,,,,,,,,,,,46,mortal,,,,,,113.677,116.189,1,0,1.977,,0,18,18,45,1,two_way_cognate,1,REAL,FALSA
,,,,,,,,,666ad669cd0ab9c0210a1886,001,2024-06-30_06h48.57.796,empathy_intonation_perc,2024.1.4,Win32,59.95203837,,,,,,,,,,,,,,64,rizado,,,,,,116.19,118.808,1,0,1.961,,0,19,19,63,1,non_cognate,1,REAL,FALSA
,,,,,,,,,666ad669cd0ab9c0210a1886,001,2024-06-30_06h48.57.796,empathy_intonation_perc,2024.1.4,Win32,59.95203837,,,,,,,,,,,,,,154,harvé,,,,,,118.809,120.806,1,0,1.298,,0,20,20,153,1,pseudoword,0,REAL,FALSA
,,,,,,,,,666ad669cd0ab9c0210a1886,001,2024-06-30_06h48.57.796,empathy_intonation_perc,2024.1.4,Win32,59.95203837,,,,,,,,,,,,,,74,ala,,,,,,120.808,122.819,0,1,1.007,0.267,0,21,21,73,1,non_cognate,1,REAL,FALSA
,,,,,,,,,666ad669cd0ab9c0210a1886,001,2024-06-30_06h48.57.796,empathy_intonation_perc,2024.1.4,Win32,59.95203837,,,,,,,,,,,,,,65,guerra,,,,,,122.82,124.975,1,0,1.618,,0,22,22,64,1,non_cognate,1,REAL,FALSA
,,,,,,,,,666ad669cd0ab9c0210a1886,001,2024-06-30_06h48.57.796,empathy_intonation_perc,2024.1.4,Win32,59.95203837,,,,,,,,,,,,,,136,hueas,,,,,,124.976,126.825,0,1,0.997,0.279,0,23,23,135,1,pseudoword,0,REAL,FALSA
,,,,,,,,,666ad669cd0ab9c0210a1886,001,2024-06-30_06h48.57.796,empathy_intonation_perc,2024.1.4,Win32,59.95203837,,,,,,,,,,,,,,184,huenos,,,,,,126.826,129.088,0,1,1.731,,0,24,24,183,1,pseudoword,0,REAL,FALSA
,,,,,,,,,666ad669cd0ab9c0210a1886,001,2024-06-30_06h48.57.796,empathy_intonation_perc,2024.1.4,Win32,59.95203837,,,,,,,,,,,,,,49,teñir,,,,,,129.092,130.857,1,0,1.103,,0,25,25,48,1,non_cognate,1,REAL,FALSA
,,,,,,,,,666ad669cd0ab9c0210a1886,001,2024-06-30_06h48.57.796,empathy_intonation_perc,2024.1.4,Win32,59.95203837,,,,,,,,,,,,,,143,hurcos,,,,,,130.858,132.828,0,1,1.08,0.267,0,26,26,142,1,pseudoword,0,REAL,FALSA
,,,,,,,,,666ad669cd0ab9c0210a1886,001,2024-06-30_06h48.57.796,empathy_intonation_perc,2024.1.4,Win32,59.95203837,,,,,,,,,,,,,,151,prías,,,,,,132.83,134.244,1,0,0.881,,0,27,27,150,1,pseudoword,0,REAL,FALSA
,,,,,,,,,666ad669cd0ab9c0210a1886,001,2024-06-30_06h48.57.796,empathy_intonation_perc,2024.1.4,Win32,59.95203837,,,,,,,,,,,,,,180,pupica,,,,,,134.246,137.273,0,1,2.41,,0,28,28,179,1,pseudoword,0,REAL,FALSA
,,,,,,,,,666ad669cd0ab9c0210a1886,001,2024-06-30_06h48.57.796,empathy_intonation_perc,2024.1.4,Win32,59.95203837,,,,,,,,,,,,,,31,civil,,,,,,137.276,138.817,1,0,0.893,,0,29,29,30,1,two_way_cognate,1,REAL,FALSA
,,,,,,,,,666ad669cd0ab9c0210a1886,001,2024-06-30_06h48.57.796,empathy_intonation_perc,2024.1.4,Win32,59.95203837,,,,,,,,,,,,,,55,maldad,,,,,,138.819,141.633,0,1,2.291,,0,30,30,54,1,non_cognate,1,REAL,FALSA
,,,,,,,,,666ad669cd0ab9c0210a1886,001,2024-06-30_06h48.57.796,empathy_intonation_perc,2024.1.4,Win32,59.95203837,,,,,,,,,,,,,,101,losco,,,,,,141.636,143.529,0,1,1.364,,0,31,31,100,1,pseudoword,0,REAL,FALSA
,,,,,,,,,666ad669cd0ab9c0210a1886,001,2024-06-30_06h48.57.796,empathy_intonation_perc,2024.1.4,Win32,59.95203837,,,,,,,,,,,,,,135,panté,,,,,,143.534,144.944,1,0,0.883,,0,32,32,134,1,pseudoword,0,REAL,FALSA
,,,,,,,,,666ad669cd0ab9c0210a1886,001,2024-06-30_06h48.57.796,empathy_intonation_perc,2024.1.4,Win32,59.95203837,,,,,,,,,,,,,,160,fomeó,,,,,,144.947,146.809,1,0,1.271,,0,33,33,159,1,pseudoword,0,REAL,FALSA
,,,,,,,,,666ad669cd0ab9c0210a1886,001,2024-06-30_06h48.57.796,empathy_intonation_perc,2024.1.4,Win32,59.95203837,,,,,,,,,,,,,,4,flora,,,,,,146.812,148.805,1,0,0.999,0.276,0,34,34,3,1,three_way_cognate,1,REAL,FALSA
,,,,,,,,,666ad669cd0ab9c0210a1886,001,2024-06-30_06h48.57.796,empathy_intonation_perc,2024.1.4,Win32,59.95203837,,,,,,,,,,,,,,187,nomata,,,,,,148.807,150.836,0,1,1.094,0.249,0,35,35,186,1,pseudoword,0,REAL,FALSA
,,,,,,,,,666ad669cd0ab9c0210a1886,001,2024-06-30_06h48.57.796,empathy_intonation_perc,2024.1.4,Win32,59.95203837,,,,,,,,,,,,,,170,diabo,,,,,,150.837,153.198,0,1,1.834,,0,36,36,169,1,pseudoword,0,REAL,FALSA
,,,,,,,,,666ad669cd0ab9c0210a1886,001,2024-06-30_06h48.57.796,empathy_intonation_perc,2024.1.4,Win32,59.95203837,,,,,,,,,,,,,,61,aduana,,,,,,153.199,154.962,0,1,1.227,,0,37,37,60,1,non_cognate,1,REAL,FALSA
,,,,,,,,,666ad669cd0ab9c0210a1886,001,2024-06-30_06h48.57.796,empathy_intonation_perc,2024.1.4,Win32,59.95203837,,,,,,,,,,,,,,6,horror,,,,,,154.964,156.813,1,0,1.062,,0,38,38,5,1,three_way_cognate,1,REAL,FALSA
,,,,,,,,,666ad669cd0ab9c0210a1886,001,2024-06-30_06h48.57.796,empathy_intonation_perc,2024.1.4,Win32,59.95203837,,,,,,,,,,,,,,176,gripar,,,,,,156.814,159.824,0,1,2.479,,0,39,39,175,1,pseudoword,0,REAL,FALSA
,,,,,,,,,666ad669cd0ab9c0210a1886,001,2024-06-30_06h48.57.796,empathy_intonation_perc,2024.1.4,Win32,59.95203837,,,,,,,,,,,,,,70,ánimo,,,,,,159.828,161.802,1,0,0.931,,0,40,40,69,1,non_cognate,1,REAL,FALSA
,,,,,,,,,666ad669cd0ab9c0210a1886,001,2024-06-30_06h48.57.796,empathy_intonation_perc,2024.1.4,Win32,59.95203837,,,,,,,,,,,,,,183,edioso,,,,,,161.804,163.784,1,0,0.931,,0,41,41,182,1,pseudoword,0,REAL,FALSA
,,,,,,,,,666ad669cd0ab9c0210a1886,001,2024-06-30_06h48.57.796,empathy_intonation_perc,2024.1.4,Win32,59.95203837,,,,,,,,,,,,,,117,morrá,,,,,,163.786,165.645,0,1,0.802,,0,42,42,116,1,pseudoword,0,REAL,FALSA
,,,,,,,,,666ad669cd0ab9c0210a1886,001,2024-06-30_06h48.57.796,empathy_intonation_perc,2024.1.4,Win32,59.95203837,,,,,,,,,,,,,,81,sacar,,,,,,165.647,166.867,1,0,0.68,,0,43,43,80,1,non_cognate,1,REAL,FALSA
,,,,,,,,,666ad669cd0ab9c0210a1886,001,2024-06-30_06h48.57.796,empathy_intonation_perc,2024.1.4,Win32,59.95203837,,,,,,,,,,,,,,3,disco,,,,,,166.868,168.258,1,0,0.861,,0,44,44,2,1,three_way_cognate,1,REAL,FALSA
,,,,,,,,,666ad669cd0ab9c0210a1886,001,2024-06-30_06h48.57.796,empathy_intonation_perc,2024.1.4,Win32,59.95203837,,,,,,,,,,,,,,67,llamar,,,,,,168.259,169.788,0,1,0.943,,0,45,45,66,1,non_cognate,1,REAL,FALSA
,,,,,,,,,666ad669cd0ab9c0210a1886,001,2024-06-30_06h48.57.796,empathy_intonation_perc,2024.1.4,Win32,59.95203837,,,,,,,,,,,,,,142,parre,,,,,,169.79,171.585,1,0,0.725,,0,46,46,141,1,pseudoword,0,REAL,FALSA
,,,,,,,,,666ad669cd0ab9c0210a1886,001,2024-06-30_06h48.57.796,empathy_intonation_perc,2024.1.4,Win32,59.95203837,,,,,,,,,,,,,,23,plural,,,,,,171.587,173.084,1,0,0.961,,0,47,47,22,1,three_way_cognate,1,REAL,FALSA
,,,,,,,,,666ad669cd0ab9c0210a1886,001,2024-06-30_06h48.57.796,empathy_intonation_perc,2024.1.4,Win32,59.95203837,,,,,,,,,,,,,,156,ozoso,,,,,,173.086,174.83,0,1,0.872,0.255,0,48,48,155,1,pseudoword,0,REAL,FALSA
,,,,,,,,,666ad669cd0ab9c0210a1886,001,2024-06-30_06h48.57.796,empathy_intonation_perc,2024.1.4,Win32,59.95203837,,,,,,,,,,,,,,36,viable,,,,,,174.832,176.826,1,0,1.103,0.291,0,49,49,35,1,two_way_cognate,1,REAL,FALSA
,,,,,,,,,666ad669cd0ab9c0210a1886,001,2024-06-30_06h48.57.796,empathy_intonation_perc,2024.1.4,Win32,59.95203837,,,,,,,,,,,,,,102,coyo,,,,,,176.828,178.259,0,1,0.898,,0,50,50,101,1,pseudoword,0,REAL,FALSA
,,,,,,,,,666ad669cd0ab9c0210a1886,001,2024-06-30_06h48.57.796,empathy_intonation_perc,2024.1.4,Win32,59.95203837,,,,,,,,,,,,,,171,gotro,,,,,,178.26,179.889,0,1,1.049,,0,51,51,170,1,pseudoword,0,REAL,FALSA
,,,,,,,,,666ad669cd0ab9c0210a1886,001,2024-06-30_06h48.57.796,empathy_intonation_perc,2024.1.4,Win32,59.95203837,,,,,,,,,,,,,,90,venado,,,,,,179.892,181.52,1,0,0.681,,0,52,52,89,1,non_cognate,1,REAL,FALSA
,,,,,,,,,666ad669cd0ab9c0210a1886,001,2024-06-30_06h48.57.796,empathy_intonation_perc,2024.1.4,Win32,59.95203837,,,,,,,,,,,,,,146,gió,,,,,,181.522,182.818,1,0,0.702,,0,53,53,145,1,pseudoword,0,REAL,FALSA
,,,,,,,,,666ad669cd0ab9c0210a1886,001,2024-06-30_06h48.57.796,empathy_intonation_perc,2024.1.4,Win32,59.95203837,,,,,,,,,,,,,,48,pelvis,,,,,,182.819,184.133,1,0,0.794,,0,54,54,47,1,two_way_cognate,1,REAL,FALSA
,,,,,,,,,666ad669cd0ab9c0210a1886,001,2024-06-30_06h48.57.796,empathy_intonation_perc,2024.1.4,Win32,59.95203837,,,,,,,,,,,,,,145,rúo,,,,,,184.135,186.115,1,0,1.254,,0,55,55,144,1,pseudoword,0,REAL,FALSA
,,,,,,,,,666ad669cd0ab9c0210a1886,001,2024-06-30_06h48.57.796,empathy_intonation_perc,2024.1.4,Win32,59.95203837,,,,,,,,,,,,,,73,llevar,,,,,,186.115,187.828,0,1,0.962,,0,56,56,72,1,non_cognate,1,REAL,FALSA
,,,,,,,,,666ad669cd0ab9c0210a1886,001,2024-06-30_06h48.57.796,empathy_intonation_perc,2024.1.4,Win32,59.95203837,,,,,,,,,,,,,,60,siglo,,,,,,187.828,190.009,0,1,1.152,,0,57,57,59,1,non_cognate,1,REAL,FALSA
,,,,,,,,,666ad669cd0ab9c0210a1886,001,2024-06-30_06h48.57.796,empathy_intonation_perc,2024.1.4,Win32,59.95203837,,,,,,,,,,,,,,175,tradía,,,,,,190.013,191.571,1,0,0.716,,0,58,58,174,1,pseudoword,0,REAL,FALSA
,,,,,,,,,666ad669cd0ab9c0210a1886,001,2024-06-30_06h48.57.796,empathy_intonation_perc,2024.1.4,Win32,59.95203837,,,,,,,,,,,,,,18,altar,,,,,,191.574,193.036,1,0,0.932,,0,59,59,17,1,three_way_cognate,1,REAL,FALSA
,,,,,,,,,666ad669cd0ab9c0210a1886,001,2024-06-30_06h48.57.796,empathy_intonation_perc,2024.1.4,Win32,59.95203837,,,,,,,,,,,,,,103,vueras,,,,,,193.038,194.84,1,0,1.028,0.236,0,60,60,102,1,pseudoword,0,REAL,FALSA
,,,,,,,,,666ad669cd0ab9c0210a1886,001,2024-06-30_06h48.57.796,empathy_intonation_perc,2024.1.4,Win32,59.95203837,,,,,,,,,,,,,,15,test,,,,,,194.841,196.828,1,0,0.896,0.27,0,61,61,14,1,three_way_cognate,1,REAL,FALSA
,,,,,,,,,666ad669cd0ab9c0210a1886,001,2024-06-30_06h48.57.796,empathy_intonation_perc,2024.1.4,Win32,59.95203837,,,,,,,,,,,,,,96,caro,,,,,,196.831,198.839,1,0,1.14,0.292,0,62,62,95,1,non_cognate,1,REAL,FALSA
,,,,,,,,,666ad669cd0ab9c0210a1886,001,2024-06-30_06h48.57.796,empathy_intonation_perc,2024.1.4,Win32,59.95203837,,,,,,,,,,,,,,34,actor,,,,,,198.839,200.816,1,0,1.011,0.273,0,63,63,33,1,two_way_cognate,1,REAL,FALSA
,,,,,,,,,666ad669cd0ab9c0210a1886,001,2024-06-30_06h48.57.796,empathy_intonation_perc,2024.1.4,Win32,59.95203837,,,,,,,,,,,,,,162,cengo,,,,,,200.817,202.867,0,1,1.004,0.284,0,64,64,161,1,pseudoword,0,REAL,FALSA
,,,,,,,,,666ad669cd0ab9c0210a1886,001,2024-06-30_06h48.57.796,empathy_intonation_perc,2024.1.4,Win32,59.95203837,,,,,,,,,,,,,,155,kugis,,,,,,202.867,204.207,0,1,0.798,,0,65,65,154,1,pseudoword,0,REAL,FALSA
,,,,,,,,,666ad669cd0ab9c0210a1886,001,2024-06-30_06h48.57.796,empathy_intonation_perc,2024.1.4,Win32,59.95203837,,,,,,,,,,,,,,32,animal,,,,,,204.208,205.7,1,0,0.869,,0,66,66,31,1,two_way_cognate,1,REAL,FALSA
,,,,,,,,,666ad669cd0ab9c0210a1886,001,2024-06-30_06h48.57.796,empathy_intonation_perc,2024.1.4,Win32,59.95203837,,,,,,,,,,,,,,52,blando,,,,,,205.701,207.763,1,0,1.525,,0,67,67,51,1,non_cognate,1,REAL,FALSA
,,,,,,,,,666ad669cd0ab9c0210a1886,001,2024-06-30_06h48.57.796,empathy_intonation_perc,2024.1.4,Win32,59.95203837,,,,,,,,,,,,,,99,bugor,,,,,,207.765,209.761,1,0,0.889,,0,68,68,98,1,pseudoword,0,REAL,FALSA
,,,,,,,,,666ad669cd0ab9c0210a1886,001,2024-06-30_06h48.57.796,empathy_intonation_perc,2024.1.4,Win32,59.95203837,,,,,,,,,,,,,,104,estulo,,,,,,209.762,211.541,1,0,1.247,,0,69,69,103,1,pseudoword,0,REAL,FALSA
,,,,,,,,,666ad669cd0ab9c0210a1886,001,2024-06-30_06h48.57.796,empathy_intonation_perc,2024.1.4,Win32,59.95203837,,,,,,,,,,,,,,190,asumie,,,,,,211.542,213.021,1,0,0.944,,0,70,70,189,1,pseudoword,0,REAL,FALSA
,,,,,,,,,666ad669cd0ab9c0210a1886,001,2024-06-30_06h48.57.796,empathy_intonation_perc,2024.1.4,Win32,59.95203837,,,,,,,,,,,,,,185,aljizo,,,,,,213.022,214.838,0,1,0.735,0.282,0,71,71,184,1,pseudoword,0,REAL,FALSA
,,,,,,,,,666ad669cd0ab9c0210a1886,001,2024-06-30_06h48.57.796,empathy_intonation_perc,2024.1.4,Win32,59.95203837,,,,,,,,,,,,,,12,dogma,,,,,,214.839,216.265,0,1,0.897,,0,72,72,11,1,three_way_cognate,1,REAL,FALSA
,,,,,,,,,666ad669cd0ab9c0210a1886,001,2024-06-30_06h48.57.796,empathy_intonation_perc,2024.1.4,Win32,59.95203837,,,,,,,,,,,,,,27,piano,,,,,,216.267,217.498,1,0,0.662,,0,73,73,26,1,two_way_cognate,1,REAL,FALSA
,,,,,,,,,666ad669cd0ab9c0210a1886,001,2024-06-30_06h48.57.796,empathy_intonation_perc,2024.1.4,Win32,59.95203837,,,,,,,,,,,,,,66,aleta,,,,,,217.498,219.215,0,1,1.186,,0,74,74,65,1,non_cognate,1,REAL,FALSA
,,,,,,,,,666ad669cd0ab9c0210a1886,001,2024-06-30_06h48.57.796,empathy_intonation_perc,2024.1.4,Win32,59.95203837,,,,,,,,,,,,,,43,honor,,,,,,219.216,220.858,1,0,0.611,0.309,0,75,75,42,1,two_way_cognate,1,REAL,FALSA
,,,,,,,,,666ad669cd0ab9c0210a1886,001,2024-06-30_06h48.57.796,empathy_intonation_perc,2024.1.4,Win32,59.95203837,,,,,,,,,,,,,,113,nasce,,,,,,220.859,222.29,1,0,0.905,,0,76,76,112,1,pseudoword,0,REAL,FALSA
,,,,,,,,,666ad669cd0ab9c0210a1886,001,2024-06-30_06h48.57.796,empathy_intonation_perc,2024.1.4,Win32,59.95203837,,,,,,,,,,,,,,95,listo,,,,,,222.291,223.938,0,1,1.05,,0,77,77,94,1,non_cognate,1,REAL,FALSA
,,,,,,,,,666ad669cd0ab9c0210a1886,001,2024-06-30_06h48.57.796,empathy_intonation_perc,2024.1.4,Win32,59.95203837,,,,,,,,,,,,,,112,samón,,,,,,223.945,225.601,1,0,0.754,,0,78,78,111,1,pseudoword,0,REAL,FALSA
,,,,,,,,,666ad669cd0ab9c0210a1886,001,2024-06-30_06h48.57.796,empathy_intonation_perc,2024.1.4,Win32,59.95203837,,,,,,,,,,,,,,178,inichó,,,,,,225.604,227.133,1,0,0.994,,0,79,79,177,1,pseudoword,0,REAL,FALSA
,,,,,,,,,666ad669cd0ab9c0210a1886,001,2024-06-30_06h48.57.796,empathy_intonation_perc,2024.1.4,Win32,59.95203837,,,,,,,,,,,,,,124,lobe,,,,,,227.136,228.834,0,1,0.991,,0,80,80,123,1,pseudoword,0,REAL,FALSA
,,,,,,,,,666ad669cd0ab9c0210a1886,001,2024-06-30_06h48.57.796,empathy_intonation_perc,2024.1.4,Win32,59.95203837,,,,,,,,,,,,,,126,tobre,,,,,,228.835,230.88,0,1,1.016,0.273,0,81,81,125,1,pseudoword,0,REAL,FALSA
,,,,,,,,,666ad669cd0ab9c0210a1886,001,2024-06-30_06h48.57.796,empathy_intonation_perc,2024.1.4,Win32,59.95203837,,,,,,,,,,,,,,167,dobbo,,,,,,230.883,232.074,1,0,0.66,,0,82,82,166,1,pseudoword,0,REAL,FALSA
,,,,,,,,,666ad669cd0ab9c0210a1886,001,2024-06-30_06h48.57.796,empathy_intonation_perc,2024.1.4,Win32,59.95203837,,,,,,,,,,,,,,58,colcha,,,,,,232.076,234.825,1,0,1.603,0.271,0,83,83,57,1,non_cognate,1,REAL,FALSA
,,,,,,,,,666ad669cd0ab9c0210a1886,001,2024-06-30_06h48.57.796,empathy_intonation_perc,2024.1.4,Win32,59.95203837,,,,,,,,,,,,,,5,extra,,,,,,234.826,236.134,1,0,0.782,,0,84,84,4,1,three_way_cognate,1,REAL,FALSA
,,,,,,,,,666ad669cd0ab9c0210a1886,001,2024-06-30_06h48.57.796,empathy_intonation_perc,2024.1.4,Win32,59.95203837,,,,,,,,,,,,,,71,torta,,,,,,236.136,237.999,0,1,1.126,,0,85,85,70,1,non_cognate,1,REAL,FALSA
,,,,,,,,,666ad669cd0ab9c0210a1886,001,2024-06-30_06h48.57.796,empathy_intonation_perc,2024.1.4,Win32,59.95203837,,,,,,,,,,,,,,17,clan,,,,,,238,242.075,1,0,3.225,,0,86,86,16,1,three_way_cognate,1,REAL,FALSA
,,,,,,,,,666ad669cd0ab9c0210a1886,001,2024-06-30_06h48.57.796,empathy_intonation_perc,2024.1.4,Win32,59.95203837,,,,,,,,,,,,,,169,pitis,,,,,,242.078,247.285,0,1,4.405,,0,87,87,168,1,pseudoword,0,REAL,FALSA
,,,,,,,,,666ad669cd0ab9c0210a1886,001,2024-06-30_06h48.57.796,empathy_intonation_perc,2024.1.4,Win32,59.95203837,,,,,,,,,,,,,,92,flecha,,,,,,247.287,250.146,0,1,2.326,,0,88,88,91,1,non_cognate,1,REAL,FALSA
,,,,,,,,,666ad669cd0ab9c0210a1886,001,2024-06-30_06h48.57.796,empathy_intonation_perc,2024.1.4,Win32,59.95203837,,,,,,,,,,,,,,56,pico,,,,,,250.15,253.841,1,0,3.011,,0,89,89,55,1,non_cognate,1,REAL,FALSA
,,,,,,,,,666ad669cd0ab9c0210a1886,001,2024-06-30_06h48.57.796,empathy_intonation_perc,2024.1.4,Win32,59.95203837,,,,,,,,,,,,,,28,ardor,,,,,,253.844,255.705,1,0,0.854,,0,90,90,27,1,two_way_cognate,1,REAL,FALSA
,,,,,,,,,666ad669cd0ab9c0210a1886,001,2024-06-30_06h48.57.796,empathy_intonation_perc,2024.1.4,Win32,59.95203837,,,,,,,,,,,,,,133,conso,,,,,,255.706,257.871,0,1,1.63,,0,91,91,132,1,pseudoword,0,REAL,FALSA
,,,,,,,,,666ad669cd0ab9c0210a1886,001,2024-06-30_06h48.57.796,empathy_intonation_perc,2024.1.4,Win32,59.95203837,,,,,,,,,,,,,,149,emén,,,,,,257.876,259.6,1,0,0.751,,0,92,92,148,1,pseudoword,0,REAL,FALSA
,,,,,,,,,666ad669cd0ab9c0210a1886,001,2024-06-30_06h48.57.796,empathy_intonation_perc,2024.1.4,Win32,59.95203837,,,,,,,,,,,,,,116,grigir,,,,,,259.602,261.196,0,1,1.06,,0,93,93,115,1,pseudoword,0,REAL,FALSA
,,,,,,,,,666ad669cd0ab9c0210a1886,001,2024-06-30_06h48.57.796,empathy_intonation_perc,2024.1.4,Win32,59.95203837,,,,,,,,,,,,,,123,arane,,,,,,261.199,262.83,1,0,0.839,,0,94,94,122,1,pseudoword,0,REAL,FALSA
,,,,,,,,,666ad669cd0ab9c0210a1886,001,2024-06-30_06h48.57.796,empathy_intonation_perc,2024.1.4,Win32,59.95203837,,,,,,,,,,,,,,42,rumor,,,,,,262.831,264.941,1,0,1.568,,0,95,95,41,1,two_way_cognate,1,REAL,FALSA
,,,,,,,,,666ad669cd0ab9c0210a1886,001,2024-06-30_06h48.57.796,empathy_intonation_perc,2024.1.4,Win32,59.95203837,,,,,,,,,,,,,,93,tapa,,,,,,264.944,267.071,1,0,1.6,,0,96,96,92,1,non_cognate,1,REAL,FALSA
,,,,,,,,,666ad669cd0ab9c0210a1886,001,2024-06-30_06h48.57.796,empathy_intonation_perc,2024.1.4,Win32,59.95203837,,,,,,,,,,,,,,128,pelí,,,,,,267.075,268.829,1,0,1.006,,0,97,97,127,1,pseudoword,0,REAL,FALSA
,,,,,,,,,666ad669cd0ab9c0210a1886,001,2024-06-30_06h48.57.796,empathy_intonation_perc,2024.1.4,Win32,59.95203837,,,,,,,,,,,,,,158,babrá,,,,,,268.829,270.849,1,0,0.935,0.318,0,98,98,157,1,pseudoword,0,REAL,FALSA
,,,,,,,,,666ad669cd0ab9c0210a1886,001,2024-06-30_06h48.57.796,empathy_intonation_perc,2024.1.4,Win32,59.95203837,,,,,,,,,,,,,,50,sierra,,,,,,270.851,272.246,1,0,0.862,,0,99,99,49,1,non_cognate,1,REAL,FALSA
,,,,,,,,,666ad669cd0ab9c0210a1886,001,2024-06-30_06h48.57.796,empathy_intonation_perc,2024.1.4,Win32,59.95203837,,,,,,,,,,,,,,53,punta,,,,,,272.247,273.644,1,0,0.783,,0,100,100,52,1,non_cognate,1,REAL,FALSA
,,,,,,,,,666ad669cd0ab9c0210a1886,001,2024-06-30_06h48.57.796,empathy_intonation_perc,2024.1.4,Win32,59.95203837,,,,,,,,,,,,,,33,collar,,,,,,273.645,275.008,0,1,0.828,,0,101,101,32,1,two_way_cognate,1,REAL,FALSA
,,,,,,,,,666ad669cd0ab9c0210a1886,001,2024-06-30_06h48.57.796,empathy_intonation_perc,2024.1.4,Win32,59.95203837,,,,,,,,,,,,,,179,suelet,,,,,,275.011,277.288,1,0,1.743,,0,102,102,178,1,pseudoword,0,REAL,FALSA
,,,,,,,,,666ad669cd0ab9c0210a1886,001,2024-06-30_06h48.57.796,empathy_intonation_perc,2024.1.4,Win32,59.95203837,,,,,,,,,,,,,,153,golla,,,,,,277.289,278.845,0,1,1.028,,0,103,103,152,1,pseudoword,0,REAL,FALSA
,,,,,,,,,666ad669cd0ab9c0210a1886,001,2024-06-30_06h48.57.796,empathy_intonation_perc,2024.1.4,Win32,59.95203837,,,,,,,,,,,,,,182,desaro,,,,,,278.845,280.812,0,1,1.107,0.295,0,104,104,181,1,pseudoword,0,REAL,FALSA
,,,,,,,,,666ad669cd0ab9c0210a1886,001,2024-06-30_06h48.57.796,empathy_intonation_perc,2024.1.4,Win32,59.95203837,,,,,,,,,,,,,,91,equipo,,,,,,280.812,282.28,1,0,0.936,,0,105,105,90,1,non_cognate,1,REAL,FALSA
,,,,,,,,,666ad669cd0ab9c0210a1886,001,2024-06-30_06h48.57.796,empathy_intonation_perc,2024.1.4,Win32,59.95203837,,,,,,,,,,,,,,94,forro,,,,,,282.28,284.84,0,1,1.431,0.291,0,106,106,93,1,non_cognate,1,REAL,FALSA
,,,,,,,,,666ad669cd0ab9c0210a1886,001,2024-06-30_06h48.57.796,empathy_intonation_perc,2024.1.4,Win32,59.95203837,,,,,,,,,,,,,,84,aviso,,,,,,284.842,286.124,1,0,0.746,,0,107,107,83,1,non_cognate,1,REAL,FALSA
,,,,,,,,,666ad669cd0ab9c0210a1886,001,2024-06-30_06h48.57.796,empathy_intonation_perc,2024.1.4,Win32,59.95203837,,,,,,,,,,,,,,20,trauma,,,,,,286.126,287.739,1,0,0.872,,0,108,108,19,1,three_way_cognate,1,REAL,FALSA
,,,,,,,,,666ad669cd0ab9c0210a1886,001,2024-06-30_06h48.57.796,empathy_intonation_perc,2024.1.4,Win32,59.95203837,,,,,,,,,,,,,,165,chote,,,,,,287.745,289.618,1,0,1.35,,0,109,109,164,1,pseudoword,0,REAL,FALSA
,,,,,,,,,666ad669cd0ab9c0210a1886,001,2024-06-30_06h48.57.796,empathy_intonation_perc,2024.1.4,Win32,59.95203837,,,,,,,,,,,,,,148,gino,,,,,,289.619,290.936,1,0,0.788,,0,110,110,147,1,pseudoword,0,REAL,FALSA
,,,,,,,,,666ad669cd0ab9c0210a1886,001,2024-06-30_06h48.57.796,empathy_intonation_perc,2024.1.4,Win32,59.95203837,,,,,,,,,,,,,,2,tumor,,,,,,290.937,292.855,1,0,0.825,0.267,0,111,111,1,1,three_way_cognate,1,REAL,FALSA
,,,,,,,,,666ad669cd0ab9c0210a1886,001,2024-06-30_06h48.57.796,empathy_intonation_perc,2024.1.4,Win32,59.95203837,,,,,,,,,,,,,,140,chorde,,,,,,292.855,294.278,0,1,0.885,,0,112,112,139,1,pseudoword,0,REAL,FALSA
,,,,,,,,,666ad669cd0ab9c0210a1886,001,2024-06-30_06h48.57.796,empathy_intonation_perc,2024.1.4,Win32,59.95203837,,,,,,,,,,,,,,9,portal,,,,,,294.279,295.775,1,0,0.926,,0,113,113,8,1,three_way_cognate,1,REAL,FALSA
,,,,,,,,,666ad669cd0ab9c0210a1886,001,2024-06-30_06h48.57.796,empathy_intonation_perc,2024.1.4,Win32,59.95203837,,,,,,,,,,,,,,120,mauja,,,,,,295.777,298.238,1,0,1.365,,0,114,114,119,1,pseudoword,0,REAL,FALSA
,,,,,,,,,666ad669cd0ab9c0210a1886,001,2024-06-30_06h48.57.796,empathy_intonation_perc,2024.1.4,Win32,59.95203837,,,,,,,,,,,,,,107,plago,,,,,,298.24,299.986,1,0,1.13,,0,115,115,106,1,pseudoword,0,REAL,FALSA
,,,,,,,,,666ad669cd0ab9c0210a1886,001,2024-06-30_06h48.57.796,empathy_intonation_perc,2024.1.4,Win32,59.95203837,,,,,,,,,,,,,,38,halo,,,,,,299.987,301.967,1,0,1.111,,0,116,116,37,1,two_way_cognate,1,REAL,FALSA
,,,,,,,,,666ad669cd0ab9c0210a1886,001,2024-06-30_06h48.57.796,empathy_intonation_perc,2024.1.4,Win32,59.95203837,,,,,,,,,,,,,,168,cobén,,,,,,301.968,303.714,1,0,0.854,,0,117,117,167,1,pseudoword,0,REAL,FALSA
,,,,,,,,,666ad669cd0ab9c0210a1886,001,2024-06-30_06h48.57.796,empathy_intonation_perc,2024.1.4,Win32,59.95203837,,,,,,,,,,,,,,147,alla,,,,,,303.716,305.594,1,0,1.342,,0,118,118,146,1,pseudoword,0,REAL,FALSA
,,,,,,,,,666ad669cd0ab9c0210a1886,001,2024-06-30_06h48.57.796,empathy_intonation_perc,2024.1.4,Win32,59.95203837,,,,,,,,,,,,,,29,clamor,,,,,,305.596,306.909,1,0,0.78,,0,119,119,28,1,two_way_cognate,1,REAL,FALSA
,,,,,,,,,666ad669cd0ab9c0210a1886,001,2024-06-30_06h48.57.796,empathy_intonation_perc,2024.1.4,Win32,59.95203837,,,,,,,,,,,,,,72,rostro,,,,,,306.911,308.206,0,1,0.762,,0,120,120,71,1,non_cognate,1,REAL,FALSA
,,,,,,,,,666ad669cd0ab9c0210a1886,001,2024-06-30_06h48.57.796,empathy_intonation_perc,2024.1.4,Win32,59.95203837,,,,,,,,,,,,,,189,medium,,,,,,308.209,309.654,1,0,0.819,,0,121,121,188,1,pseudoword,0,REAL,FALSA
,,,,,,,,,666ad669cd0ab9c0210a1886,001,2024-06-30_06h48.57.796,empathy_intonation_perc,2024.1.4,Win32,59.95203837,,,,,,,,,,,,,,115,lidena,,,,,,309.654,311.352,1,0,1.161,,0,122,122,114,1,pseudoword,0,REAL,FALSA
,,,,,,,,,666ad669cd0ab9c0210a1886,001,2024-06-30_06h48.57.796,empathy_intonation_perc,2024.1.4,Win32,59.95203837,,,,,,,,,,,,,,8,kilo,,,,,,311.355,312.825,1,0,0.901,,0,123,123,7,1,three_way_cognate,1,REAL,FALSA
,,,,,,,,,666ad669cd0ab9c0210a1886,001,2024-06-30_06h48.57.796,empathy_intonation_perc,2024.1.4,Win32,59.95203837,,,,,,,,,,,,,,77,suave,,,,,,312.826,314.118,0,1,0.772,,0,124,124,76,1,non_cognate,1,REAL,FALSA
,,,,,,,,,666ad669cd0ab9c0210a1886,001,2024-06-30_06h48.57.796,empathy_intonation_perc,2024.1.4,Win32,59.95203837,,,,,,,,,,,,,,37,torso,,,,,,314.119,315.412,1,0,0.553,,0,125,125,36,1,two_way_cognate,1,REAL,FALSA
,,,,,,,,,666ad669cd0ab9c0210a1886,001,2024-06-30_06h48.57.796,empathy_intonation_perc,2024.1.4,Win32,59.95203837,,,,,,,,,,,,,,139,sasos,,,,,,315.413,316.848,1,0,0.65,,0,126,126,138,1,pseudoword,0,REAL,FALSA
,,,,,,,,,666ad669cd0ab9c0210a1886,001,2024-06-30_06h48.57.796,empathy_intonation_perc,2024.1.4,Win32,59.95203837,,,,,,,,,,,,,,79,suelo,,,,,,316.85,318.838,1,0,1.277,,0,127,127,78,1,non_cognate,1,REAL,FALSA
,,,,,,,,,666ad669cd0ab9c0210a1886,001,2024-06-30_06h48.57.796,empathy_intonation_perc,2024.1.4,Win32,59.95203837,,,,,,,,,,,,,,150,cricó,,,,,,318.84,319.888,0,1,0.522,,0,128,128,149,1,pseudoword,0,REAL,FALSA
,,,,,,,,,666ad669cd0ab9c0210a1886,001,2024-06-30_06h48.57.796,empathy_intonation_perc,2024.1.4,Win32,59.95203837,,,,,,,,,,,,,,111,monue,,,,,,319.89,321.386,1,0,0.519,,0,129,129,110,1,pseudoword,0,REAL,FALSA
,,,,,,,,,666ad669cd0ab9c0210a1886,001,2024-06-30_06h48.57.796,empathy_intonation_perc,2024.1.4,Win32,59.95203837,,,,,,,,,,,,,,174,pabea,,,,,,321.392,322.838,1,0,0.534,0.27,0,130,130,173,1,pseudoword,0,REAL,FALSA
,,,,,,,,,666ad669cd0ab9c0210a1886,001,2024-06-30_06h48.57.796,empathy_intonation_perc,2024.1.4,Win32,59.95203837,,,,,,,,,,,,,,163,olzan,,,,,,322.839,323.882,0,1,0.498,,0,131,131,162,1,pseudoword,0,REAL,FALSA
,,,,,,,,,666ad669cd0ab9c0210a1886,001,2024-06-30_06h48.57.796,empathy_intonation_perc,2024.1.4,Win32,59.95203837,,,,,,,,,,,,,,172,dogue,,,,,,323.885,325.514,1,0,0.643,,0,132,132,171,1,pseudoword,0,REAL,FALSA
,,,,,,,,,666ad669cd0ab9c0210a1886,001,2024-06-30_06h48.57.796,empathy_intonation_perc,2024.1.4,Win32,59.95203837,,,,,,,,,,,,,,157,seled,,,,,,325.516,327.078,1,0,1.036,,0,133,133,156,1,pseudoword,0,REAL,FALSA
,,,,,,,,,666ad669cd0ab9c0210a1886,001,2024-06-30_06h48.57.796,empathy_intonation_perc,2024.1.4,Win32,59.95203837,,,,,,,,,,,,,,152,prave,,,,,,327.079,328.829,1,0,0.805,0.306,0,134,134,151,1,pseudoword,0,REAL,FALSA
,,,,,,,,,666ad669cd0ab9c0210a1886,001,2024-06-30_06h48.57.796,empathy_intonation_perc,2024.1.4,Win32,59.95203837,,,,,,,,,,,,,,44,editor,,,,,,328.831,330.849,1,0,0.987,0.321,0,135,135,43,1,two_way_cognate,1,REAL,FALSA
,,,,,,,,,666ad669cd0ab9c0210a1886,001,2024-06-30_06h48.57.796,empathy_intonation_perc,2024.1.4,Win32,59.95203837,,,,,,,,,,,,,,129,vinzó,,,,,,330.851,332.848,1,0,1.414,,0,136,136,128,1,pseudoword,0,REAL,FALSA
,,,,,,,,,666ad669cd0ab9c0210a1886,001,2024-06-30_06h48.57.796,empathy_intonation_perc,2024.1.4,Win32,59.95203837,,,,,,,,,,,,,,10,drama,,,,,,332.849,334.233,1,0,0.861,,0,137,137,9,1,three_way_cognate,1,REAL,FALSA
,,,,,,,,,666ad669cd0ab9c0210a1886,001,2024-06-30_06h48.57.796,empathy_intonation_perc,2024.1.4,Win32,59.95203837,,,,,,,,,,,,,,105,leniz,,,,,,334.236,335.897,0,1,1.033,,0,138,138,104,1,pseudoword,0,REAL,FALSA
,,,,,,,,,666ad669cd0ab9c0210a1886,001,2024-06-30_06h48.57.796,empathy_intonation_perc,2024.1.4,Win32,59.95203837,,,,,,,,,,,,,,134,molor,,,,,,335.898,337.944,1,0,1.081,,0,139,139,133,1,pseudoword,0,REAL,FALSA
,,,,,,,,,666ad669cd0ab9c0210a1886,001,2024-06-30_06h48.57.796,empathy_intonation_perc,2024.1.4,Win32,59.95203837,,,,,,,,,,,,,,127,vien,,,,,,337.947,339.657,1,0,0.777,,0,140,140,126,1,pseudoword,0,REAL,FALSA
,,,,,,,,,666ad669cd0ab9c0210a1886,001,2024-06-30_06h48.57.796,empathy_intonation_perc,2024.1.4,Win32,59.95203837,,,,,,,,,,,,,,86,cuenco,,,,,,339.66,341.005,0,1,0.812,,0,141,141,85,1,non_cognate,1,REAL,FALSA
,,,,,,,,,666ad669cd0ab9c0210a1886,001,2024-06-30_06h48.57.796,empathy_intonation_perc,2024.1.4,Win32,59.95203837,,,,,,,,,,,,,,100,épinas,,,,,,341.006,342.824,1,0,0.741,0.301,0,142,142,99,1,pseudoword,0,REAL,FALSA
,,,,,,,,,666ad669cd0ab9c0210a1886,001,2024-06-30_06h48.57.796,empathy_intonation_perc,2024.1.4,Win32,59.95203837,,,,,,,,,,,,,,159,trcia,,,,,,342.826,344.829,0,1,1.351,,0,143,143,158,1,pseudoword,0,REAL,FALSA
,,,,,,,,,666ad669cd0ab9c0210a1886,001,2024-06-30_06h48.57.796,empathy_intonation_perc,2024.1.4,Win32,59.95203837,,,,,,,,,,,,,,106,diebro,,,,,,344.83,346.996,0,1,1.631,,0,144,144,105,1,pseudoword,0,REAL,FALSA
,,,,,,,,,666ad669cd0ab9c0210a1886,001,2024-06-30_06h48.57.796,empathy_intonation_perc,2024.1.4,Win32,59.95203837,,,,,,,,,,,,,,11,golf,,,,,,346.997,348.851,1,0,0.776,0.297,0,145,145,10,1,three_way_cognate,1,REAL,FALSA
,,,,,,,,,666ad669cd0ab9c0210a1886,001,2024-06-30_06h48.57.796,empathy_intonation_perc,2024.1.4,Win32,59.95203837,,,,,,,,,,,,,,98,martir,,,,,,348.852,350.853,0,1,0.934,0.265,0,146,146,97,1,pseudoword,0,REAL,FALSA
,,,,,,,,,666ad669cd0ab9c0210a1886,001,2024-06-30_06h48.57.796,empathy_intonation_perc,2024.1.4,Win32,59.95203837,,,,,,,,,,,,,,63,hilo,,,,,,350.855,352.038,1,0,0.647,,0,147,147,62,1,non_cognate,1,REAL,FALSA
,,,,,,,,,666ad669cd0ab9c0210a1886,001,2024-06-30_06h48.57.796,empathy_intonation_perc,2024.1.4,Win32,59.95203837,,,,,,,,,,,,,,82,brillo,,,,,,352.04,353.571,1,0,0.734,,0,148,148,81,1,non_cognate,1,REAL,FALSA
,,,,,,,,,666ad669cd0ab9c0210a1886,001,2024-06-30_06h48.57.796,empathy_intonation_perc,2024.1.4,Win32,59.95203837,,,,,,,,,,,,,,83,hálito,,,,,,353.572,354.855,1,0,0.723,,0,149,149,82,1,non_cognate,1,REAL,FALSA
,,,,,,,,,666ad669cd0ab9c0210a1886,001,2024-06-30_06h48.57.796,empathy_intonation_perc,2024.1.4,Win32,59.95203837,,,,,,,,,,,,,,181,gravés,,,,,,354.859,356.082,1,0,0.698,,0,150,150,180,1,pseudoword,0,REAL,FALSA
,,,,,,,,,666ad669cd0ab9c0210a1886,001,2024-06-30_06h48.57.796,empathy_intonation_perc,2024.1.4,Win32,59.95203837,,,,,,,,,,,,,,1,moral,,,,,,356.084,357.746,1,0,0.894,,0,151,151,0,1,three_way_cognate,1,REAL,FALSA
,,,,,,,,,666ad669cd0ab9c0210a1886,001,2024-06-30_06h48.57.796,empathy_intonation_perc,2024.1.4,Win32,59.95203837,,,,,,,,,,,,,,26,enigma,,,,,,357.748,360.838,1,0,2.304,,0,152,152,25,1,two_way_cognate,1,REAL,FALSA
,,,,,,,,,666ad669cd0ab9c0210a1886,001,2024-06-30_06h48.57.796,empathy_intonation_perc,2024.1.4,Win32,59.95203837,,,,,,,,,,,,,,138,tator,,,,,,360.839,362.816,0,1,1.108,0.276,0,153,153,137,1,pseudoword,0,REAL,FALSA
,,,,,,,,,666ad669cd0ab9c0210a1886,001,2024-06-30_06h48.57.796,empathy_intonation_perc,2024.1.4,Win32,59.95203837,,,,,,,,,,,,,,13,plan,,,,,,362.817,364.832,1,0,0.946,0.287,0,154,154,12,1,three_way_cognate,1,REAL,FALSA
,,,,,,,,,666ad669cd0ab9c0210a1886,001,2024-06-30_06h48.57.796,empathy_intonation_perc,2024.1.4,Win32,59.95203837,,,,,,,,,,,,,,121,barbs,,,,,,364.834,366.835,0,1,1.205,0.266,0,155,155,120,1,pseudoword,0,REAL,FALSA
,,,,,,,,,666ad669cd0ab9c0210a1886,001,2024-06-30_06h48.57.796,empathy_intonation_perc,2024.1.4,Win32,59.95203837,,,,,,,,,,,,,,19,mafia,,,,,,366.838,368.197,1,0,0.831,,0,156,156,18,1,three_way_cognate,1,REAL,FALSA
,,,,,,,,,666ad669cd0ab9c0210a1886,001,2024-06-30_06h48.57.796,empathy_intonation_perc,2024.1.4,Win32,59.95203837,,,,,,,,,,,,,,39,casual,,,,,,368.198,369.86,1,0,1.012,,0,157,157,38,1,two_way_cognate,1,REAL,FALSA
,,,,,,,,,666ad669cd0ab9c0210a1886,001,2024-06-30_06h48.57.796,empathy_intonation_perc,2024.1.4,Win32,59.95203837,,,,,,,,,,,,,,89,muñeca,,,,,,369.862,371.757,1,0,0.911,,0,158,158,88,1,non_cognate,1,REAL,FALSA
,,,,,,,,,666ad669cd0ab9c0210a1886,001,2024-06-30_06h48.57.796,empathy_intonation_perc,2024.1.4,Win32,59.95203837,,,,,,,,,,,,,,69,tiza,,,,,,371.759,374.071,1,0,1.218,,0,159,159,68,1,non_cognate,1,REAL,FALSA
,,,,,,,,,666ad669cd0ab9c0210a1886,001,2024-06-30_06h48.57.796,empathy_intonation_perc,2024.1.4,Win32,59.95203837,,,,,,,,,,,,,,186,rizate,,,,,,374.073,376.201,1,0,1.31,,0,160,160,185,1,pseudoword,0,REAL,FALSA
,,,,,,,,,666ad669cd0ab9c0210a1886,001,2024-06-30_06h48.57.796,empathy_intonation_perc,2024.1.4,Win32,59.95203837,,,,,,,,,,,,,,108,jauda,,,,,,376.205,378.836,1,0,1.926,,0,161,161,107,1,pseudoword,0,REAL,FALSA
,,,,,,,,,666ad669cd0ab9c0210a1886,001,2024-06-30_06h48.57.796,empathy_intonation_perc,2024.1.4,Win32,59.95203837,,,,,,,,,,,,,,192,próces,,,,,,378.836,380.227,1,0,0.848,,0,162,162,191,1,pseudoword,0,REAL,FALSA
,,,,,,,,,666ad669cd0ab9c0210a1886,001,2024-06-30_06h48.57.796,empathy_intonation_perc,2024.1.4,Win32,59.95203837,,,,,,,,,,,,,,191,frasis,,,,,,380.229,382.124,1,0,1.264,,0,163,163,190,1,pseudoword,0,REAL,FALSA
,,,,,,,,,666ad669cd0ab9c0210a1886,001,2024-06-30_06h48.57.796,empathy_intonation_perc,2024.1.4,Win32,59.95203837,,,,,,,,,,,,,,16,chat,,,,,,382.125,383.689,1,0,0.827,,0,164,164,15,1,three_way_cognate,1,REAL,FALSA
,,,,,,,,,666ad669cd0ab9c0210a1886,001,2024-06-30_06h48.57.796,empathy_intonation_perc,2024.1.4,Win32,59.95203837,,,,,,,,,,,,,,161,civas,,,,,,383.689,385.286,1,0,1.061,,0,165,165,160,1,pseudoword,0,REAL,FALSA
,,,,,,,,,666ad669cd0ab9c0210a1886,001,2024-06-30_06h48.57.796,empathy_intonation_perc,2024.1.4,Win32,59.95203837,,,,,,,,,,,,,,25,vigor,,,,,,385.288,386.837,1,0,0.792,,0,166,166,24,1,two_way_cognate,1,REAL,FALSA
,,,,,,,,,666ad669cd0ab9c0210a1886,001,2024-06-30_06h48.57.796,empathy_intonation_perc,2024.1.4,Win32,59.95203837,,,,,,,,,,,,,,119,esís,,,,,,386.838,388.204,1,0,0.82,,0,167,167,118,1,pseudoword,0,REAL,FALSA
,,,,,,,,,666ad669cd0ab9c0210a1886,001,2024-06-30_06h48.57.796,empathy_intonation_perc,2024.1.4,Win32,59.95203837,,,,,,,,,,,,,,114,dibrea,,,,,,388.208,389.764,0,1,0.897,,0,168,168,113,1,pseudoword,0,REAL,FALSA
,,,,,,,,,666ad669cd0ab9c0210a1886,001,2024-06-30_06h48.57.796,empathy_intonation_perc,2024.1.4,Win32,59.95203837,,,,,,,,,,,,,,177,entodo,,,,,,389.765,391.895,1,0,1.038,,0,169,169,176,1,pseudoword,0,REAL,FALSA
,,,,,,,,,666ad669cd0ab9c0210a1886,001,2024-06-30_06h48.57.796,empathy_intonation_perc,2024.1.4,Win32,59.95203837,,,,,,,,,,,,,,78,rendir,,,,,,391.896,393.807,1,0,0.966,,0,170,170,77,1,non_cognate,1,REAL,FALSA
,,,,,,,,,666ad669cd0ab9c0210a1886,001,2024-06-30_06h48.57.796,empathy_intonation_perc,2024.1.4,Win32,59.95203837,,,,,,,,,,,,,,62,pegar,,,,,,393.808,395.453,1,0,0.592,,0,171,171,61,1,non_cognate,1,REAL,FALSA
,,,,,,,,,666ad669cd0ab9c0210a1886,001,2024-06-30_06h48.57.796,empathy_intonation_perc,2024.1.4,Win32,59.95203837,,,,,,,,,,,,,,76,chocar,,,,,,395.456,396.954,0,1,0.966,,0,172,172,75,1,non_cognate,1,REAL,FALSA
,,,,,,,,,666ad669cd0ab9c0210a1886,001,2024-06-30_06h48.57.796,empathy_intonation_perc,2024.1.4,Win32,59.95203837,,,,,,,,,,,,,,87,muleta,,,,,,396.957,398.116,1,0,0.628,,0,173,173,86,1,non_cognate,1,REAL,FALSA
,,,,,,,,,666ad669cd0ab9c0210a1886,001,2024-06-30_06h48.57.796,empathy_intonation_perc,2024.1.4,Win32,59.95203837,,,,,,,,,,,,,,75,patada,,,,,,398.118,399.664,1,0,0.807,,0,174,174,74,1,non_cognate,1,REAL,FALSA
,,,,,,,,,666ad669cd0ab9c0210a1886,001,2024-06-30_06h48.57.796,empathy_intonation_perc,2024.1.4,Win32,59.95203837,,,,,,,,,,,,,,80,cuenco,,,,,,399.665,400.995,1,0,0.794,,0,175,175,79,1,non_cognate,1,REAL,FALSA
,,,,,,,,,666ad669cd0ab9c0210a1886,001,2024-06-30_06h48.57.796,empathy_intonation_perc,2024.1.4,Win32,59.95203837,,,,,,,,,,,,,,14,aura,,,,,,400.996,402.849,1,0,1.117,,0,176,176,13,1,three_way_cognate,1,REAL,FALSA
,,,,,,,,,666ad669cd0ab9c0210a1886,001,2024-06-30_06h48.57.796,empathy_intonation_perc,2024.1.4,Win32,59.95203837,,,,,,,,,,,,,,125,ceme,,,,,,402.85,404.174,0,1,0.782,,0,177,177,124,1,pseudoword,0,REAL,FALSA
,,,,,,,,,666ad669cd0ab9c0210a1886,001,2024-06-30_06h48.57.796,empathy_intonation_perc,2024.1.4,Win32,59.95203837,,,,,,,,,,,,,,130,dubo,,,,,,404.176,405.576,1,0,0.725,,0,178,178,129,1,pseudoword,0,REAL,FALSA
,,,,,,,,,666ad669cd0ab9c0210a1886,001,2024-06-30_06h48.57.796,empathy_intonation_perc,2024.1.4,Win32,59.95203837,,,,,,,,,,,,,,164,tecia,,,,,,405.577,406.886,0,1,0.779,,0,179,179,163,1,pseudoword,0,REAL,FALSA
,,,,,,,,,666ad669cd0ab9c0210a1886,001,2024-06-30_06h48.57.796,empathy_intonation_perc,2024.1.4,Win32,59.95203837,,,,,,,,,,,,,,35,aurora,,,,,,406.887,408.234,1,0,0.818,,0,180,180,34,1,two_way_cognate,1,REAL,FALSA
,,,,,,,,,666ad669cd0ab9c0210a1886,001,2024-06-30_06h48.57.796,empathy_intonation_perc,2024.1.4,Win32,59.95203837,,,,,,,,,,,,,,110,densó,,,,,,408.235,409.532,1,0,0.665,,0,181,181,109,1,pseudoword,0,REAL,FALSA
,,,,,,,,,666ad669cd0ab9c0210a1886,001,2024-06-30_06h48.57.796,empathy_intonation_perc,2024.1.4,Win32,59.95203837,,,,,,,,,,,,,,97,nocita,,,,,,409.534,410.93,1,0,0.862,,0,182,182,96,1,pseudoword,0,REAL,FALSA
,,,,,,,,,666ad669cd0ab9c0210a1886,001,2024-06-30_06h48.57.796,empathy_intonation_perc,2024.1.4,Win32,59.95203837,,,,,,,,,,,,,,30,fiscal,,,,,,410.931,412.195,1,0,0.73,,0,183,183,29,1,two_way_cognate,1,REAL,FALSA
,,,,,,,,,666ad669cd0ab9c0210a1886,001,2024-06-30_06h48.57.796,empathy_intonation_perc,2024.1.4,Win32,59.95203837,,,,,,,,,,,,,,132,nocó,,,,,,412.196,417.702,1,0,4.874,,0,184,184,131,1,pseudoword,0,REAL,FALSA
,,,,,,,,,666ad669cd0ab9c0210a1886,001,2024-06-30_06h48.57.796,empathy_intonation_perc,2024.1.4,Win32,59.95203837,,,,,,,,,,,,,,144,diroco,,,,,,417.705,432.839,1,0,14.281,0.34,0,185,185,143,1,pseudoword,0,REAL,FALSA
,,,,,,,,,666ad669cd0ab9c0210a1886,001,2024-06-30_06h48.57.796,empathy_intonation_perc,2024.1.4,Win32,59.95203837,,,,,,,,,,,,,,137,trugo,,,,,,432.842,434.859,0,1,1.495,,0,186,186,136,1,pseudoword,0,REAL,FALSA
,,,,,,,,,666ad669cd0ab9c0210a1886,001,2024-06-30_06h48.57.796,empathy_intonation_perc,2024.1.4,Win32,59.95203837,,,,,,,,,,,,,,131,fuar,,,,,,434.861,436.845,1,0,1.034,0.28,0,187,187,130,1,pseudoword,0,REAL,FALSA
,,,,,,,,,666ad669cd0ab9c0210a1886,001,2024-06-30_06h48.57.796,empathy_intonation_perc,2024.1.4,Win32,59.95203837,,,,,,,,,,,,,,54,tapón,,,,,,436.846,438.104,1,0,0.714,,0,188,188,53,1,non_cognate,1,REAL,FALSA
,,,,,,,,,666ad669cd0ab9c0210a1886,001,2024-06-30_06h48.57.796,empathy_intonation_perc,2024.1.4,Win32,59.95203837,,,,,,,,,,,,,,109,laras,,,,,,438.106,439.487,1,0,0.64,,0,189,189,108,1,pseudoword,0,REAL,FALSA
,,,,,,,,,666ad669cd0ab9c0210a1886,001,2024-06-30_06h48.57.796,empathy_intonation_perc,2024.1.4,Win32,59.95203837,,,,,,,,,,,,,,68,puñal,,,,,,439.489,440.836,0,1,0.81,,0,190,190,67,1,non_cognate,1,REAL,FALSA
,,,,,,,,,666ad669cd0ab9c0210a1886,001,2024-06-30_06h48.57.796,empathy_intonation_perc,2024.1.4,Win32,59.95203837,,,,,,,,,,,,,,88,percha,,,,,,440.837,441.864,1,0,0.504,,0,191,191,87,1,non_cognate,1,REAL,FALSA
