lextale_instructions.started,lextale_instructions.stopped,lextale_instructions_loop.thisRepN,lextale_instructions_loop.thisTrialN,lextale_instructions_loop.thisN,lextale_instructions_loop.thisIndex,lextale_instructions_loop.ran,instructions_text,continue_text,participant,session,date,expName,psychopyVersion,OS,frameRate,lextale_practice.started,lextale_practice.stopped,key_resp_lextale_practice.keys,key_resp_lextale_practice.corr,key_resp_lextale_practice.rt,key_resp_lextale_practice.duration,lextale_practice_feedback.started,lextale_practice_feedback.stopped,lextale_practice_trials.thisRepN,lextale_practice_trials.thisTrialN,lextale_practice_trials.thisN,lextale_practice_trials.thisIndex,lextale_practice_trials.ran,stim,word,correct_response,prac_button_real,prac_button_false,lextale_check.started,lextale_check.stopped,lextale_trial.started,lextale_trial.stopped,key_resp_lextale_trial.keys,key_resp_lextale_trial.corr,key_resp_lextale_trial.rt,key_resp_lextale_trial.duration,lextail_trials.thisRepN,lextail_trials.thisTrialN,lextail_trials.thisN,lextail_trials.thisIndex,lextail_trials.ran,type,correct_reponse,button_real,button_false
0.0028,18.5583,0,0,0,0,1,"Este es un test de vocabulario en español. 
  
  A continuación vas a ver 90 secuencias de letras que parecen 'españolas'.
  
  Solo algunas de ellas son palabras de verdad.",(presiona la barra espaciadora para continuar),666d9472f663334d43d632b1,001,2024-06-30_07h21.07.853,empathy_intonation_perc,2024.1.4,Win32,59.17159763,,,,,,,,,,,,,,,,,,,,,,,,,,,,,,,,,,,
18.5588,23.85,0,1,1,1,1,"Por favor, señala las palabras que tú conoces (aquellas que estás convencido que son palabras españolas, incluso aunque no seas capaz de dar el significado preciso).",(presiona la barra espaciadora para continuar),666d9472f663334d43d632b1,001,2024-06-30_07h21.07.853,empathy_intonation_perc,2024.1.4,Win32,59.17159763,,,,,,,,,,,,,,,,,,,,,,,,,,,,,,,,,,,
23.8502,30.1576,0,2,2,2,1,Pero cuidado: los errores se penalizan. Por eso no tiene sentido tratar de incrementar tu puntuación marcando como reales palabras que nunca has visto.,(presiona la barra espaciadora para continuar),666d9472f663334d43d632b1,001,2024-06-30_07h21.07.853,empathy_intonation_perc,2024.1.4,Win32,59.17159763,,,,,,,,,,,,,,,,,,,,,,,,,,,,,,,,,,,
30.1578,35.5089,0,3,3,3,1,"Presiona la tecla 1 si piensas que es una palabra real y la tecla 
  0 si piensas que es una palabra falsa. 
  
  Vamos a practicar un poco...",(presiona la barra espaciadora para continuar),666d9472f663334d43d632b1,001,2024-06-30_07h21.07.853,empathy_intonation_perc,2024.1.4,Win32,59.17159763,,,,,,,,,,,,,,,,,,,,,,,,,,,,,,,,,,,
,,,,,,,,,666d9472f663334d43d632b1,001,2024-06-30_07h21.07.853,empathy_intonation_perc,2024.1.4,Win32,59.17159763,35.5134,40.0261,0,1,3.9839,,40.0265,41.0251,0,0,0,0,1,0,depiste,0,REAL,FALSA,,,,,,,,,,,,,,,,,
,,,,,,,,,666d9472f663334d43d632b1,001,2024-06-30_07h21.07.853,empathy_intonation_perc,2024.1.4,Win32,59.17159763,41.026,42.7844,1,1,1.216,,42.7844,43.7753,0,1,1,1,1,0,sí,1,REAL,FALSA,,,,,,,,,,,,,,,,,
,,,,,,,,,666d9472f663334d43d632b1,001,2024-06-30_07h21.07.853,empathy_intonation_perc,2024.1.4,Win32,59.17159763,43.7759,46.0582,0,1,1.734,,46.0582,47.0585,0,2,2,2,1,0,coné,0,REAL,FALSA,,,,,,,,,,,,,,,,,
,,,,,,,,,666d9472f663334d43d632b1,001,2024-06-30_07h21.07.853,empathy_intonation_perc,2024.1.4,Win32,59.17159763,47.074,49.5855,1,0,1.9832,,49.5855,50.5752,0,3,3,3,1,0,calpar,0,REAL,FALSA,,,,,,,,,,,,,,,,,
,,,,,,,,,666d9472f663334d43d632b1,001,2024-06-30_07h21.07.853,empathy_intonation_perc,2024.1.4,Win32,59.17159763,50.5757,52.6757,0,1,1.5499,,52.6757,53.6751,0,4,4,4,1,0,joten,0,REAL,FALSA,,,,,,,,,,,,,,,,,
,,,,,,,,,666d9472f663334d43d632b1,001,2024-06-30_07h21.07.853,empathy_intonation_perc,2024.1.4,Win32,59.17159763,53.6905,56.7408,1,1,2.5178,,56.7409,57.7413,0,5,5,5,1,0,sacapuntas,1,REAL,FALSA,,,,,,,,,,,,,,,,,
,,,,,,,,,666d9472f663334d43d632b1,001,2024-06-30_07h21.07.853,empathy_intonation_perc,2024.1.4,Win32,59.17159763,57.7569,60.2407,0,1,1.9503,,60.2407,61.2342,0,6,6,6,1,0,priba,0,REAL,FALSA,,,,,,,,,,,,,,,,,
,,,,,,,,,666d9472f663334d43d632b1,001,2024-06-30_07h21.07.853,empathy_intonation_perc,2024.1.4,Win32,59.17159763,61.2485,63.8843,1,0,2.0996,,63.8844,64.8757,0,7,7,7,1,0,pelasula,0,REAL,FALSA,,,,,,,,,,,,,,,,,
,,,,,,,,,666d9472f663334d43d632b1,001,2024-06-30_07h21.07.853,empathy_intonation_perc,2024.1.4,Win32,59.17159763,64.8913,66.9084,1,1,1.4845,,66.9086,67.9088,0,8,8,8,1,0,bien,1,REAL,FALSA,,,,,,,,,,,,,,,,,
,,,,,,,,,666d9472f663334d43d632b1,001,2024-06-30_07h21.07.853,empathy_intonation_perc,2024.1.4,Win32,59.17159763,67.9093,70.1253,1,1,1.6674,,70.1254,71.1254,0,9,9,9,1,0,casa,1,REAL,FALSA,,,,,,,,,,,,,,,,,
,,,,,,,,,666d9472f663334d43d632b1,001,2024-06-30_07h21.07.853,empathy_intonation_perc,2024.1.4,Win32,59.17159763,71.1411,74.2753,0,1,2.6012,,74.2753,75.2845,0,10,10,10,1,0,lejo,0,REAL,FALSA,,,,,,,,,,,,,,,,,
,,,,,,,,,666d9472f663334d43d632b1,001,2024-06-30_07h21.07.853,empathy_intonation_perc,2024.1.4,Win32,59.17159763,75.2999,77.6584,1,0,1.8324,,77.6585,78.6581,0,11,11,11,1,0,pretantas,0,REAL,FALSA,,,,,,,,,,,,,,,,,
,,,,,,,,,666d9472f663334d43d632b1,001,2024-06-30_07h21.07.853,empathy_intonation_perc,2024.1.4,Win32,59.17159763,,,,,,,,,,,,,,,,,,,78.6588,82.4426,,,,,,,,,,,,,,,
,,,,,,,,,666d9472f663334d43d632b1,001,2024-06-30_07h21.07.853,empathy_intonation_perc,2024.1.4,Win32,59.17159763,,,,,,,,,,,,,,156,ozoso,,,,,,82.4699,85.0418,0,1,2.0521,,0,0,0,155,1,pseudoword,0,REAL,FALSA
,,,,,,,,,666d9472f663334d43d632b1,001,2024-06-30_07h21.07.853,empathy_intonation_perc,2024.1.4,Win32,59.17159763,,,,,,,,,,,,,,45,total,,,,,,85.057,88.9418,0,1,3.366,,0,1,1,44,1,two_way_cognate,1,REAL,FALSA
,,,,,,,,,666d9472f663334d43d632b1,001,2024-06-30_07h21.07.853,empathy_intonation_perc,2024.1.4,Win32,59.17159763,,,,,,,,,,,,,,166,anfia,,,,,,88.9581,91.9753,0,1,2.4814,,0,2,2,165,1,pseudoword,0,REAL,FALSA
,,,,,,,,,666d9472f663334d43d632b1,001,2024-06-30_07h21.07.853,empathy_intonation_perc,2024.1.4,Win32,59.17159763,,,,,,,,,,,,,,159,trcia,,,,,,91.9759,94.8908,0,1,2.3783,,0,3,3,158,1,pseudoword,0,REAL,FALSA
,,,,,,,,,666d9472f663334d43d632b1,001,2024-06-30_07h21.07.853,empathy_intonation_perc,2024.1.4,Win32,59.17159763,,,,,,,,,,,,,,38,halo,,,,,,94.8912,97.6749,1,0,2.2659,,0,4,4,37,1,two_way_cognate,1,REAL,FALSA
,,,,,,,,,666d9472f663334d43d632b1,001,2024-06-30_07h21.07.853,empathy_intonation_perc,2024.1.4,Win32,59.17159763,,,,,,,,,,,,,,109,laras,,,,,,97.6909,100.6924,0,1,2.4807,,0,5,5,108,1,pseudoword,0,REAL,FALSA
,,,,,,,,,666d9472f663334d43d632b1,001,2024-06-30_07h21.07.853,empathy_intonation_perc,2024.1.4,Win32,59.17159763,,,,,,,,,,,,,,164,tecia,,,,,,100.6931,103.8755,1,0,2.6484,,0,6,6,163,1,pseudoword,0,REAL,FALSA
,,,,,,,,,666d9472f663334d43d632b1,001,2024-06-30_07h21.07.853,empathy_intonation_perc,2024.1.4,Win32,59.17159763,,,,,,,,,,,,,,185,aljizo,,,,,,103.892,106.9754,0,1,2.5477,,0,7,7,184,1,pseudoword,0,REAL,FALSA
,,,,,,,,,666d9472f663334d43d632b1,001,2024-06-30_07h21.07.853,empathy_intonation_perc,2024.1.4,Win32,59.17159763,,,,,,,,,,,,,,76,chocar,,,,,,106.9915,110.3914,0,1,2.8695,,0,8,8,75,1,non_cognate,1,REAL,FALSA
,,,,,,,,,666d9472f663334d43d632b1,001,2024-06-30_07h21.07.853,empathy_intonation_perc,2024.1.4,Win32,59.17159763,,,,,,,,,,,,,,6,horror,,,,,,110.392,138.8244,0,1,27.8987,,0,9,9,5,1,three_way_cognate,1,REAL,FALSA
,,,,,,,,,666d9472f663334d43d632b1,001,2024-06-30_07h21.07.853,empathy_intonation_perc,2024.1.4,Win32,59.17159763,,,,,,,,,,,,,,14,aura,,,,,,138.8404,141.325,1,0,1.9631,,0,10,10,13,1,three_way_cognate,1,REAL,FALSA
,,,,,,,,,666d9472f663334d43d632b1,001,2024-06-30_07h21.07.853,empathy_intonation_perc,2024.1.4,Win32,59.17159763,,,,,,,,,,,,,,56,pico,,,,,,141.3256,143.2744,1,0,1.423,,0,11,11,55,1,non_cognate,1,REAL,FALSA
,,,,,,,,,666d9472f663334d43d632b1,001,2024-06-30_07h21.07.853,empathy_intonation_perc,2024.1.4,Win32,59.17159763,,,,,,,,,,,,,,178,inichó,,,,,,143.275,145.974,0,1,2.1856,,0,12,12,177,1,pseudoword,0,REAL,FALSA
,,,,,,,,,666d9472f663334d43d632b1,001,2024-06-30_07h21.07.853,empathy_intonation_perc,2024.1.4,Win32,59.17159763,,,,,,,,,,,,,,84,aviso,,,,,,145.9745,148.741,1,0,2.2505,,0,13,13,83,1,non_cognate,1,REAL,FALSA
,,,,,,,,,666d9472f663334d43d632b1,001,2024-06-30_07h21.07.853,empathy_intonation_perc,2024.1.4,Win32,59.17159763,,,,,,,,,,,,,,110,densó,,,,,,148.7415,152.7742,0,1,3.5185,,0,14,14,109,1,pseudoword,0,REAL,FALSA
,,,,,,,,,666d9472f663334d43d632b1,001,2024-06-30_07h21.07.853,empathy_intonation_perc,2024.1.4,Win32,59.17159763,,,,,,,,,,,,,,90,venado,,,,,,152.791,156.3416,1,0,3.0297,,0,15,15,89,1,non_cognate,1,REAL,FALSA
,,,,,,,,,666d9472f663334d43d632b1,001,2024-06-30_07h21.07.853,empathy_intonation_perc,2024.1.4,Win32,59.17159763,,,,,,,,,,,,,,50,sierra,,,,,,156.3578,159.4743,0,1,2.583,,0,16,16,49,1,non_cognate,1,REAL,FALSA
,,,,,,,,,666d9472f663334d43d632b1,001,2024-06-30_07h21.07.853,empathy_intonation_perc,2024.1.4,Win32,59.17159763,,,,,,,,,,,,,,171,gotro,,,,,,159.4892,163.5413,0,1,3.5321,,0,17,17,170,1,pseudoword,0,REAL,FALSA
,,,,,,,,,666d9472f663334d43d632b1,001,2024-06-30_07h21.07.853,empathy_intonation_perc,2024.1.4,Win32,59.17159763,,,,,,,,,,,,,,2,tumor,,,,,,163.5578,166.6916,0,1,2.6125,,0,18,18,1,1,three_way_cognate,1,REAL,FALSA
,,,,,,,,,666d9472f663334d43d632b1,001,2024-06-30_07h21.07.853,empathy_intonation_perc,2024.1.4,Win32,59.17159763,,,,,,,,,,,,,,137,trugo,,,,,,166.6921,169.5246,1,0,2.2981,,0,19,19,136,1,pseudoword,0,REAL,FALSA
,,,,,,,,,666d9472f663334d43d632b1,001,2024-06-30_07h21.07.853,empathy_intonation_perc,2024.1.4,Win32,59.17159763,,,,,,,,,,,,,,189,medium,,,,,,169.5394,172.1085,0,1,2.046,,0,20,20,188,1,pseudoword,0,REAL,FALSA
,,,,,,,,,666d9472f663334d43d632b1,001,2024-06-30_07h21.07.853,empathy_intonation_perc,2024.1.4,Win32,59.17159763,,,,,,,,,,,,,,61,aduana,,,,,,172.109,175.608,0,1,2.9641,,0,21,21,60,1,non_cognate,1,REAL,FALSA
,,,,,,,,,666d9472f663334d43d632b1,001,2024-06-30_07h21.07.853,empathy_intonation_perc,2024.1.4,Win32,59.17159763,,,,,,,,,,,,,,141,virios,,,,,,175.6243,179.2912,1,0,3.1487,,0,22,22,140,1,pseudoword,0,REAL,FALSA
,,,,,,,,,666d9472f663334d43d632b1,001,2024-06-30_07h21.07.853,empathy_intonation_perc,2024.1.4,Win32,59.17159763,,,,,,,,,,,,,,52,blando,,,,,,179.3066,182.7082,0,1,2.8816,,0,23,23,51,1,non_cognate,1,REAL,FALSA
,,,,,,,,,666d9472f663334d43d632b1,001,2024-06-30_07h21.07.853,empathy_intonation_perc,2024.1.4,Win32,59.17159763,,,,,,,,,,,,,,111,monue,,,,,,182.7087,186.3415,0,1,3.0975,,0,24,24,110,1,pseudoword,0,REAL,FALSA
,,,,,,,,,666d9472f663334d43d632b1,001,2024-06-30_07h21.07.853,empathy_intonation_perc,2024.1.4,Win32,59.17159763,,,,,,,,,,,,,,128,pelí,,,,,,186.3571,190.8248,0,1,3.946,,0,25,25,127,1,pseudoword,0,REAL,FALSA
,,,,,,,,,666d9472f663334d43d632b1,001,2024-06-30_07h21.07.853,empathy_intonation_perc,2024.1.4,Win32,59.17159763,,,,,,,,,,,,,,181,gravés,,,,,,190.8408,194.1583,0,1,2.7989,,0,26,26,180,1,pseudoword,0,REAL,FALSA
,,,,,,,,,666d9472f663334d43d632b1,001,2024-06-30_07h21.07.853,empathy_intonation_perc,2024.1.4,Win32,59.17159763,,,,,,,,,,,,,,42,rumor,,,,,,194.1739,196.6243,0,1,1.934,,0,27,27,41,1,two_way_cognate,1,REAL,FALSA
,,,,,,,,,666d9472f663334d43d632b1,001,2024-06-30_07h21.07.853,empathy_intonation_perc,2024.1.4,Win32,59.17159763,,,,,,,,,,,,,,62,pegar,,,,,,196.6248,199.3918,1,0,2.247,,0,28,28,61,1,non_cognate,1,REAL,FALSA
,,,,,,,,,666d9472f663334d43d632b1,001,2024-06-30_07h21.07.853,empathy_intonation_perc,2024.1.4,Win32,59.17159763,,,,,,,,,,,,,,34,actor,,,,,,199.4074,201.2744,0,1,1.3529,,0,29,29,33,1,two_way_cognate,1,REAL,FALSA
,,,,,,,,,666d9472f663334d43d632b1,001,2024-06-30_07h21.07.853,empathy_intonation_perc,2024.1.4,Win32,59.17159763,,,,,,,,,,,,,,19,mafia,,,,,,201.2749,203.558,0,1,1.7473,,0,30,30,18,1,three_way_cognate,1,REAL,FALSA
,,,,,,,,,666d9472f663334d43d632b1,001,2024-06-30_07h21.07.853,empathy_intonation_perc,2024.1.4,Win32,59.17159763,,,,,,,,,,,,,,82,brillo,,,,,,203.5586,206.1912,1,0,2.1047,,0,31,31,81,1,non_cognate,1,REAL,FALSA
,,,,,,,,,666d9472f663334d43d632b1,001,2024-06-30_07h21.07.853,empathy_intonation_perc,2024.1.4,Win32,59.17159763,,,,,,,,,,,,,,104,estulo,,,,,,206.1916,209.2582,0,1,2.5456,,0,32,32,103,1,pseudoword,0,REAL,FALSA
,,,,,,,,,666d9472f663334d43d632b1,001,2024-06-30_07h21.07.853,empathy_intonation_perc,2024.1.4,Win32,59.17159763,,,,,,,,,,,,,,122,boñaz,,,,,,209.2748,213.2414,1,0,3.4336,,0,33,33,121,1,pseudoword,0,REAL,FALSA
,,,,,,,,,666d9472f663334d43d632b1,001,2024-06-30_07h21.07.853,empathy_intonation_perc,2024.1.4,Win32,59.17159763,,,,,,,,,,,,,,27,piano,,,,,,213.2574,215.7408,0,1,1.9656,,0,34,34,26,1,two_way_cognate,1,REAL,FALSA
,,,,,,,,,666d9472f663334d43d632b1,001,2024-06-30_07h21.07.853,empathy_intonation_perc,2024.1.4,Win32,59.17159763,,,,,,,,,,,,,,175,tradía,,,,,,215.7412,218.8079,0,1,2.5318,,0,35,35,174,1,pseudoword,0,REAL,FALSA
,,,,,,,,,666d9472f663334d43d632b1,001,2024-06-30_07h21.07.853,empathy_intonation_perc,2024.1.4,Win32,59.17159763,,,,,,,,,,,,,,154,harvé,,,,,,218.8084,222.3749,0,1,3.03,,0,36,36,153,1,pseudoword,0,REAL,FALSA
,,,,,,,,,666d9472f663334d43d632b1,001,2024-06-30_07h21.07.853,empathy_intonation_perc,2024.1.4,Win32,59.17159763,,,,,,,,,,,,,,149,emén,,,,,,222.3914,225.9412,1,0,3.0167,,0,37,37,148,1,pseudoword,0,REAL,FALSA
,,,,,,,,,666d9472f663334d43d632b1,001,2024-06-30_07h21.07.853,empathy_intonation_perc,2024.1.4,Win32,59.17159763,,,,,,,,,,,,,,44,editor,,,,,,225.958,228.5576,0,1,2.0796,,0,38,38,43,1,two_way_cognate,1,REAL,FALSA
,,,,,,,,,666d9472f663334d43d632b1,001,2024-06-30_07h21.07.853,empathy_intonation_perc,2024.1.4,Win32,59.17159763,,,,,,,,,,,,,,13,plan,,,,,,228.5583,231.6416,0,1,2.5464,,0,39,39,12,1,three_way_cognate,1,REAL,FALSA
,,,,,,,,,666d9472f663334d43d632b1,001,2024-06-30_07h21.07.853,empathy_intonation_perc,2024.1.4,Win32,59.17159763,,,,,,,,,,,,,,147,alla,,,,,,231.6576,234.8574,1,0,2.6838,,0,40,40,146,1,pseudoword,0,REAL,FALSA
,,,,,,,,,666d9472f663334d43d632b1,001,2024-06-30_07h21.07.853,empathy_intonation_perc,2024.1.4,Win32,59.17159763,,,,,,,,,,,,,,22,mango,,,,,,234.8579,238.191,0,1,2.8007,,0,41,41,21,1,three_way_cognate,1,REAL,FALSA
,,,,,,,,,666d9472f663334d43d632b1,001,2024-06-30_07h21.07.853,empathy_intonation_perc,2024.1.4,Win32,59.17159763,,,,,,,,,,,,,,108,jauda,,,,,,238.2068,241.3906,1,0,2.6653,,0,42,42,107,1,pseudoword,0,REAL,FALSA
,,,,,,,,,666d9472f663334d43d632b1,001,2024-06-30_07h21.07.853,empathy_intonation_perc,2024.1.4,Win32,59.17159763,,,,,,,,,,,,,,152,prave,,,,,,241.4064,244.4745,0,1,2.5489,,0,43,43,151,1,pseudoword,0,REAL,FALSA
,,,,,,,,,666d9472f663334d43d632b1,001,2024-06-30_07h21.07.853,empathy_intonation_perc,2024.1.4,Win32,59.17159763,,,,,,,,,,,,,,49,teñir,,,,,,244.4752,248.1576,0,1,3.1548,,0,44,44,48,1,non_cognate,1,REAL,FALSA
,,,,,,,,,666d9472f663334d43d632b1,001,2024-06-30_07h21.07.853,empathy_intonation_perc,2024.1.4,Win32,59.17159763,,,,,,,,,,,,,,169,pitis,,,,,,248.1738,251.6246,1,0,2.93,,0,45,45,168,1,pseudoword,0,REAL,FALSA
,,,,,,,,,666d9472f663334d43d632b1,001,2024-06-30_07h21.07.853,empathy_intonation_perc,2024.1.4,Win32,59.17159763,,,,,,,,,,,,,,9,portal,,,,,,251.6415,255.191,0,1,3.0198,,0,46,46,8,1,three_way_cognate,1,REAL,FALSA
,,,,,,,,,666d9472f663334d43d632b1,001,2024-06-30_07h21.07.853,empathy_intonation_perc,2024.1.4,Win32,59.17159763,,,,,,,,,,,,,,11,golf,,,,,,255.207,259.1912,0,1,3.462,,0,47,47,10,1,three_way_cognate,1,REAL,FALSA
,,,,,,,,,666d9472f663334d43d632b1,001,2024-06-30_07h21.07.853,empathy_intonation_perc,2024.1.4,Win32,59.17159763,,,,,,,,,,,,,,16,chat,,,,,,259.207,264.4742,0,1,4.7495,,0,48,48,15,1,three_way_cognate,1,REAL,FALSA
,,,,,,,,,666d9472f663334d43d632b1,001,2024-06-30_07h21.07.853,empathy_intonation_perc,2024.1.4,Win32,59.17159763,,,,,,,,,,,,,,58,colcha,,,,,,264.4893,269.2908,0,1,4.2836,,0,49,49,57,1,non_cognate,1,REAL,FALSA
,,,,,,,,,666d9472f663334d43d632b1,001,2024-06-30_07h21.07.853,empathy_intonation_perc,2024.1.4,Win32,59.17159763,,,,,,,,,,,,,,57,regalo,,,,,,269.3056,272.9248,1,0,3.0961,,0,50,50,56,1,non_cognate,1,REAL,FALSA
,,,,,,,,,666d9472f663334d43d632b1,001,2024-06-30_07h21.07.853,empathy_intonation_perc,2024.1.4,Win32,59.17159763,,,,,,,,,,,,,,78,rendir,,,,,,272.9253,276.324,0,1,2.8688,,0,51,51,77,1,non_cognate,1,REAL,FALSA
,,,,,,,,,666d9472f663334d43d632b1,001,2024-06-30_07h21.07.853,empathy_intonation_perc,2024.1.4,Win32,59.17159763,,,,,,,,,,,,,,132,nocó,,,,,,276.3385,280.0246,0,1,3.1629,,0,52,52,131,1,pseudoword,0,REAL,FALSA
,,,,,,,,,666d9472f663334d43d632b1,001,2024-06-30_07h21.07.853,empathy_intonation_perc,2024.1.4,Win32,59.17159763,,,,,,,,,,,,,,133,conso,,,,,,280.0396,284.841,0,1,4.2841,,0,53,53,132,1,pseudoword,0,REAL,FALSA
,,,,,,,,,666d9472f663334d43d632b1,001,2024-06-30_07h21.07.853,empathy_intonation_perc,2024.1.4,Win32,59.17159763,,,,,,,,,,,,,,55,maldad,,,,,,284.8572,288.5913,0,1,3.1987,,0,54,54,54,1,non_cognate,1,REAL,FALSA
,,,,,,,,,666d9472f663334d43d632b1,001,2024-06-30_07h21.07.853,empathy_intonation_perc,2024.1.4,Win32,59.17159763,,,,,,,,,,,,,,47,color,,,,,,288.6076,292.4076,0,1,3.2644,,0,55,55,46,1,two_way_cognate,1,REAL,FALSA
,,,,,,,,,666d9472f663334d43d632b1,001,2024-06-30_07h21.07.853,empathy_intonation_perc,2024.1.4,Win32,59.17159763,,,,,,,,,,,,,,73,llevar,,,,,,292.424,297.3577,1,0,4.3973,,0,56,56,72,1,non_cognate,1,REAL,FALSA
,,,,,,,,,666d9472f663334d43d632b1,001,2024-06-30_07h21.07.853,empathy_intonation_perc,2024.1.4,Win32,59.17159763,,,,,,,,,,,,,,40,pelvis,,,,,,297.3728,301.1912,0,1,3.2975,,0,57,57,39,1,two_way_cognate,1,REAL,FALSA
,,,,,,,,,666d9472f663334d43d632b1,001,2024-06-30_07h21.07.853,empathy_intonation_perc,2024.1.4,Win32,59.17159763,,,,,,,,,,,,,,80,cuenco,,,,,,301.1917,306.8565,0,1,5.1316,,0,58,58,79,1,non_cognate,1,REAL,FALSA
,,,,,,,,,666d9472f663334d43d632b1,001,2024-06-30_07h21.07.853,empathy_intonation_perc,2024.1.4,Win32,59.17159763,,,,,,,,,,,,,,67,llamar,,,,,,306.867,310.5914,1,0,3.2001,,0,59,59,66,1,non_cognate,1,REAL,FALSA
,,,,,,,,,666d9472f663334d43d632b1,001,2024-06-30_07h21.07.853,empathy_intonation_perc,2024.1.4,Win32,59.17159763,,,,,,,,,,,,,,96,caro,,,,,,310.6089,313.9406,1,0,2.7971,,0,60,60,95,1,non_cognate,1,REAL,FALSA
,,,,,,,,,666d9472f663334d43d632b1,001,2024-06-30_07h21.07.853,empathy_intonation_perc,2024.1.4,Win32,59.17159763,,,,,,,,,,,,,,139,sasos,,,,,,313.9568,317.4569,0,1,2.9876,,0,61,61,138,1,pseudoword,0,REAL,FALSA
,,,,,,,,,666d9472f663334d43d632b1,001,2024-06-30_07h21.07.853,empathy_intonation_perc,2024.1.4,Win32,59.17159763,,,,,,,,,,,,,,105,leniz,,,,,,317.4722,320.5739,0,1,2.5893,,0,62,62,104,1,pseudoword,0,REAL,FALSA
,,,,,,,,,666d9472f663334d43d632b1,001,2024-06-30_07h21.07.853,empathy_intonation_perc,2024.1.4,Win32,59.17159763,,,,,,,,,,,,,,144,diroco,,,,,,320.5743,323.3579,0,1,2.2463,,0,63,63,143,1,pseudoword,0,REAL,FALSA
,,,,,,,,,666d9472f663334d43d632b1,001,2024-06-30_07h21.07.853,empathy_intonation_perc,2024.1.4,Win32,59.17159763,,,,,,,,,,,,,,179,suelet,,,,,,323.3741,326.1073,0,1,2.1987,,0,64,64,178,1,pseudoword,0,REAL,FALSA
,,,,,,,,,666d9472f663334d43d632b1,001,2024-06-30_07h21.07.853,empathy_intonation_perc,2024.1.4,Win32,59.17159763,,,,,,,,,,,,,,17,clan,,,,,,326.1079,329.374,0,1,2.735,,0,65,65,16,1,three_way_cognate,1,REAL,FALSA
,,,,,,,,,666d9472f663334d43d632b1,001,2024-06-30_07h21.07.853,empathy_intonation_perc,2024.1.4,Win32,59.17159763,,,,,,,,,,,,,,136,hueas,,,,,,329.3907,332.7737,0,1,2.8657,,0,66,66,135,1,pseudoword,0,REAL,FALSA
,,,,,,,,,666d9472f663334d43d632b1,001,2024-06-30_07h21.07.853,empathy_intonation_perc,2024.1.4,Win32,59.17159763,,,,,,,,,,,,,,153,golla,,,,,,332.7741,336.7242,0,1,3.4319,,0,67,67,152,1,pseudoword,0,REAL,FALSA
,,,,,,,,,666d9472f663334d43d632b1,001,2024-06-30_07h21.07.853,empathy_intonation_perc,2024.1.4,Win32,59.17159763,,,,,,,,,,,,,,129,vinzó,,,,,,336.741,340.8746,0,1,3.6126,,0,68,68,128,1,pseudoword,0,REAL,FALSA
,,,,,,,,,666d9472f663334d43d632b1,001,2024-06-30_07h21.07.853,empathy_intonation_perc,2024.1.4,Win32,59.17159763,,,,,,,,,,,,,,94,forro,,,,,,340.8906,345.1734,1,0,3.7539,,0,69,69,93,1,non_cognate,1,REAL,FALSA
,,,,,,,,,666d9472f663334d43d632b1,001,2024-06-30_07h21.07.853,empathy_intonation_perc,2024.1.4,Win32,59.17159763,,,,,,,,,,,,,,158,babrá,,,,,,345.1881,348.3566,1,0,2.6454,,0,70,70,157,1,pseudoword,0,REAL,FALSA
,,,,,,,,,666d9472f663334d43d632b1,001,2024-06-30_07h21.07.853,empathy_intonation_perc,2024.1.4,Win32,59.17159763,,,,,,,,,,,,,,77,suave,,,,,,348.3652,351.507,0,1,2.6191,,0,71,71,76,1,non_cognate,1,REAL,FALSA
,,,,,,,,,666d9472f663334d43d632b1,001,2024-06-30_07h21.07.853,empathy_intonation_perc,2024.1.4,Win32,59.17159763,,,,,,,,,,,,,,35,aurora,,,,,,351.5233,355.2906,1,0,3.2503,,0,72,72,34,1,two_way_cognate,1,REAL,FALSA
,,,,,,,,,666d9472f663334d43d632b1,001,2024-06-30_07h21.07.853,empathy_intonation_perc,2024.1.4,Win32,59.17159763,,,,,,,,,,,,,,118,bará,,,,,,355.2912,358.6569,1,0,2.8333,,0,73,73,117,1,pseudoword,0,REAL,FALSA
,,,,,,,,,666d9472f663334d43d632b1,001,2024-06-30_07h21.07.853,empathy_intonation_perc,2024.1.4,Win32,59.17159763,,,,,,,,,,,,,,10,drama,,,,,,358.6728,361.7568,0,1,2.5709,,0,74,74,9,1,three_way_cognate,1,REAL,FALSA
,,,,,,,,,666d9472f663334d43d632b1,001,2024-06-30_07h21.07.853,empathy_intonation_perc,2024.1.4,Win32,59.17159763,,,,,,,,,,,,,,102,coyo,,,,,,361.7719,364.2731,0,1,1.9869,,0,75,75,101,1,pseudoword,0,REAL,FALSA
,,,,,,,,,666d9472f663334d43d632b1,001,2024-06-30_07h21.07.853,empathy_intonation_perc,2024.1.4,Win32,59.17159763,,,,,,,,,,,,,,26,enigma,,,,,,364.2735,367.0737,0,1,2.2881,,0,76,76,25,1,two_way_cognate,1,REAL,FALSA
,,,,,,,,,666d9472f663334d43d632b1,001,2024-06-30_07h21.07.853,empathy_intonation_perc,2024.1.4,Win32,59.17159763,,,,,,,,,,,,,,134,molor,,,,,,367.0742,370.1235,0,1,2.5365,,0,77,77,133,1,pseudoword,0,REAL,FALSA
,,,,,,,,,666d9472f663334d43d632b1,001,2024-06-30_07h21.07.853,empathy_intonation_perc,2024.1.4,Win32,59.17159763,,,,,,,,,,,,,,79,suelo,,,,,,370.1387,373.1074,1,0,2.4467,,0,78,78,78,1,non_cognate,1,REAL,FALSA
,,,,,,,,,666d9472f663334d43d632b1,001,2024-06-30_07h21.07.853,empathy_intonation_perc,2024.1.4,Win32,59.17159763,,,,,,,,,,,,,,21,hotel,,,,,,373.1079,376.2571,1,0,2.6184,,0,79,79,20,1,three_way_cognate,1,REAL,FALSA
,,,,,,,,,666d9472f663334d43d632b1,001,2024-06-30_07h21.07.853,empathy_intonation_perc,2024.1.4,Win32,59.17159763,,,,,,,,,,,,,,36,viable,,,,,,376.2722,379.8575,0,1,3.0704,,0,80,80,35,1,two_way_cognate,1,REAL,FALSA
,,,,,,,,,666d9472f663334d43d632b1,001,2024-06-30_07h21.07.853,empathy_intonation_perc,2024.1.4,Win32,59.17159763,,,,,,,,,,,,,,18,altar,,,,,,379.8727,384.3073,0,1,3.9166,,0,81,81,17,1,three_way_cognate,1,REAL,FALSA
,,,,,,,,,666d9472f663334d43d632b1,001,2024-06-30_07h21.07.853,empathy_intonation_perc,2024.1.4,Win32,59.17159763,,,,,,,,,,,,,,92,flecha,,,,,,384.3232,387.957,0,1,3.1187,,0,82,82,91,1,non_cognate,1,REAL,FALSA
,,,,,,,,,666d9472f663334d43d632b1,001,2024-06-30_07h21.07.853,empathy_intonation_perc,2024.1.4,Win32,59.17159763,,,,,,,,,,,,,,32,animal,,,,,,387.9728,392.8575,0,1,4.3657,,0,83,83,31,1,two_way_cognate,1,REAL,FALSA
,,,,,,,,,666d9472f663334d43d632b1,001,2024-06-30_07h21.07.853,empathy_intonation_perc,2024.1.4,Win32,59.17159763,,,,,,,,,,,,,,127,vien,,,,,,392.8728,395.9579,1,0,2.5648,,0,84,84,126,1,pseudoword,0,REAL,FALSA
,,,,,,,,,666d9472f663334d43d632b1,001,2024-06-30_07h21.07.853,empathy_intonation_perc,2024.1.4,Win32,59.17159763,,,,,,,,,,,,,,148,gino,,,,,,395.9733,399.7236,0,1,3.2324,,0,85,85,147,1,pseudoword,0,REAL,FALSA
,,,,,,,,,666d9472f663334d43d632b1,001,2024-06-30_07h21.07.853,empathy_intonation_perc,2024.1.4,Win32,59.17159763,,,,,,,,,,,,,,66,aleta,,,,,,399.7391,402.9406,0,1,2.6892,,0,86,86,65,1,non_cognate,1,REAL,FALSA
,,,,,,,,,666d9472f663334d43d632b1,001,2024-06-30_07h21.07.853,empathy_intonation_perc,2024.1.4,Win32,59.17159763,,,,,,,,,,,,,,192,próces,,,,,,402.9412,407.2069,0,1,3.7355,,0,87,87,191,1,pseudoword,0,REAL,FALSA
,,,,,,,,,666d9472f663334d43d632b1,001,2024-06-30_07h21.07.853,empathy_intonation_perc,2024.1.4,Win32,59.17159763,,,,,,,,,,,,,,173,mibro,,,,,,407.2223,411.2738,0,1,3.5313,,0,88,88,172,1,pseudoword,0,REAL,FALSA
,,,,,,,,,666d9472f663334d43d632b1,001,2024-06-30_07h21.07.853,empathy_intonation_perc,2024.1.4,Win32,59.17159763,,,,,,,,,,,,,,184,huenos,,,,,,411.2889,415.0736,0,1,3.2659,,0,89,89,183,1,pseudoword,0,REAL,FALSA
,,,,,,,,,666d9472f663334d43d632b1,001,2024-06-30_07h21.07.853,empathy_intonation_perc,2024.1.4,Win32,59.17159763,,,,,,,,,,,,,,33,collar,,,,,,415.0889,421.6567,0,1,6.0474,,0,90,90,32,1,two_way_cognate,1,REAL,FALSA
,,,,,,,,,666d9472f663334d43d632b1,001,2024-06-30_07h21.07.853,empathy_intonation_perc,2024.1.4,Win32,59.17159763,,,,,,,,,,,,,,140,chorde,,,,,,421.672,425.8745,1,0,3.6828,,0,91,91,139,1,pseudoword,0,REAL,FALSA
,,,,,,,,,666d9472f663334d43d632b1,001,2024-06-30_07h21.07.853,empathy_intonation_perc,2024.1.4,Win32,59.17159763,,,,,,,,,,,,,,88,percha,,,,,,425.8899,429.2573,1,0,2.8472,,0,92,92,87,1,non_cognate,1,REAL,FALSA
,,,,,,,,,666d9472f663334d43d632b1,001,2024-06-30_07h21.07.853,empathy_intonation_perc,2024.1.4,Win32,59.17159763,,,,,,,,,,,,,,119,esís,,,,,,429.2578,431.1069,0,1,1.332,,0,93,93,118,1,pseudoword,0,REAL,FALSA
,,,,,,,,,666d9472f663334d43d632b1,001,2024-06-30_07h21.07.853,empathy_intonation_perc,2024.1.4,Win32,59.17159763,,,,,,,,,,,,,,28,ardor,,,,,,431.1074,433.6237,0,1,1.9958,,0,94,94,27,1,two_way_cognate,1,REAL,FALSA
,,,,,,,,,666d9472f663334d43d632b1,001,2024-06-30_07h21.07.853,empathy_intonation_perc,2024.1.4,Win32,59.17159763,,,,,,,,,,,,,,75,patada,,,,,,433.6244,438.0244,1,0,3.8634,,0,95,95,74,1,non_cognate,1,REAL,FALSA
,,,,,,,,,666d9472f663334d43d632b1,001,2024-06-30_07h21.07.853,empathy_intonation_perc,2024.1.4,Win32,59.17159763,,,,,,,,,,,,,,180,pupica,,,,,,438.0403,443.0408,0,1,4.4788,,0,96,96,179,1,pseudoword,0,REAL,FALSA
,,,,,,,,,666d9472f663334d43d632b1,001,2024-06-30_07h21.07.853,empathy_intonation_perc,2024.1.4,Win32,59.17159763,,,,,,,,,,,,,,46,mortal,,,,,,443.0588,445.9733,0,1,2.3885,,0,97,97,45,1,two_way_cognate,1,REAL,FALSA
,,,,,,,,,666d9472f663334d43d632b1,001,2024-06-30_07h21.07.853,empathy_intonation_perc,2024.1.4,Win32,59.17159763,,,,,,,,,,,,,,72,rostro,,,,,,445.9884,451.3735,0,1,4.8633,,0,98,98,71,1,non_cognate,1,REAL,FALSA
,,,,,,,,,666d9472f663334d43d632b1,001,2024-06-30_07h21.07.853,empathy_intonation_perc,2024.1.4,Win32,59.17159763,,,,,,,,,,,,,,172,dogue,,,,,,451.3887,454.6234,0,1,2.7168,,0,99,99,171,1,pseudoword,0,REAL,FALSA
,,,,,,,,,666d9472f663334d43d632b1,001,2024-06-30_07h21.07.853,empathy_intonation_perc,2024.1.4,Win32,59.17159763,,,,,,,,,,,,,,97,nocita,,,,,,454.64,458.1069,0,1,2.9495,,0,100,100,96,1,pseudoword,0,REAL,FALSA
,,,,,,,,,666d9472f663334d43d632b1,001,2024-06-30_07h21.07.853,empathy_intonation_perc,2024.1.4,Win32,59.17159763,,,,,,,,,,,,,,99,bugor,,,,,,458.1225,461.9571,0,1,3.3156,,0,101,101,98,1,pseudoword,0,REAL,FALSA
,,,,,,,,,666d9472f663334d43d632b1,001,2024-06-30_07h21.07.853,empathy_intonation_perc,2024.1.4,Win32,59.17159763,,,,,,,,,,,,,,135,panté,,,,,,461.9737,465.0572,1,0,2.5626,,0,102,102,134,1,pseudoword,0,REAL,FALSA
,,,,,,,,,666d9472f663334d43d632b1,001,2024-06-30_07h21.07.853,empathy_intonation_perc,2024.1.4,Win32,59.17159763,,,,,,,,,,,,,,162,cengo,,,,,,465.0578,468.5574,1,0,2.9658,,0,103,103,161,1,pseudoword,0,REAL,FALSA
,,,,,,,,,666d9472f663334d43d632b1,001,2024-06-30_07h21.07.853,empathy_intonation_perc,2024.1.4,Win32,59.17159763,,,,,,,,,,,,,,70,ánimo,,,,,,468.574,472.0239,0,1,2.9132,,0,104,104,69,1,non_cognate,1,REAL,FALSA
,,,,,,,,,666d9472f663334d43d632b1,001,2024-06-30_07h21.07.853,empathy_intonation_perc,2024.1.4,Win32,59.17159763,,,,,,,,,,,,,,167,dobbo,,,,,,472.039,475.5397,0,1,2.9881,,0,105,105,166,1,pseudoword,0,REAL,FALSA
,,,,,,,,,666d9472f663334d43d632b1,001,2024-06-30_07h21.07.853,empathy_intonation_perc,2024.1.4,Win32,59.17159763,,,,,,,,,,,,,,85,enorme,,,,,,475.54,478.79,1,0,2.7115,,0,106,106,84,1,non_cognate,1,REAL,FALSA
,,,,,,,,,666d9472f663334d43d632b1,001,2024-06-30_07h21.07.853,empathy_intonation_perc,2024.1.4,Win32,59.17159763,,,,,,,,,,,,,,130,dubo,,,,,,478.805,482.2399,1,0,2.9193,,0,107,107,129,1,pseudoword,0,REAL,FALSA
,,,,,,,,,666d9472f663334d43d632b1,001,2024-06-30_07h21.07.853,empathy_intonation_perc,2024.1.4,Win32,59.17159763,,,,,,,,,,,,,,89,muñeca,,,,,,482.2547,486.474,1,0,3.6956,,0,108,108,88,1,non_cognate,1,REAL,FALSA
,,,,,,,,,666d9472f663334d43d632b1,001,2024-06-30_07h21.07.853,empathy_intonation_perc,2024.1.4,Win32,59.17159763,,,,,,,,,,,,,,120,mauja,,,,,,486.4896,490.0566,1,0,3.051,,0,109,109,119,1,pseudoword,0,REAL,FALSA
,,,,,,,,,666d9472f663334d43d632b1,001,2024-06-30_07h21.07.853,empathy_intonation_perc,2024.1.4,Win32,59.17159763,,,,,,,,,,,,,,146,gió,,,,,,490.0722,493.2235,1,0,2.6332,,0,110,110,145,1,pseudoword,0,REAL,FALSA
,,,,,,,,,666d9472f663334d43d632b1,001,2024-06-30_07h21.07.853,empathy_intonation_perc,2024.1.4,Win32,59.17159763,,,,,,,,,,,,,,168,cobén,,,,,,493.224,495.8395,0,1,2.0825,,0,111,111,167,1,pseudoword,0,REAL,FALSA
,,,,,,,,,666d9472f663334d43d632b1,001,2024-06-30_07h21.07.853,empathy_intonation_perc,2024.1.4,Win32,59.17159763,,,,,,,,,,,,,,37,torso,,,,,,495.8408,498.6905,1,0,2.3166,,0,112,112,36,1,two_way_cognate,1,REAL,FALSA
,,,,,,,,,666d9472f663334d43d632b1,001,2024-06-30_07h21.07.853,empathy_intonation_perc,2024.1.4,Win32,59.17159763,,,,,,,,,,,,,,188,amplir,,,,,,498.7086,501.9895,1,0,2.755,,0,113,113,187,1,pseudoword,0,REAL,FALSA
,,,,,,,,,666d9472f663334d43d632b1,001,2024-06-30_07h21.07.853,empathy_intonation_perc,2024.1.4,Win32,59.17159763,,,,,,,,,,,,,,83,hálito,,,,,,502.0056,505.0896,1,0,2.5664,,0,114,114,82,1,non_cognate,1,REAL,FALSA
,,,,,,,,,666d9472f663334d43d632b1,001,2024-06-30_07h21.07.853,empathy_intonation_perc,2024.1.4,Win32,59.17159763,,,,,,,,,,,,,,48,pelvis,,,,,,505.0901,508.2066,0,1,2.6055,,0,115,115,47,1,two_way_cognate,1,REAL,FALSA
,,,,,,,,,666d9472f663334d43d632b1,001,2024-06-30_07h21.07.853,empathy_intonation_perc,2024.1.4,Win32,59.17159763,,,,,,,,,,,,,,113,nasce,,,,,,508.2227,510.9903,0,1,2.2469,,0,116,116,112,1,pseudoword,0,REAL,FALSA
,,,,,,,,,666d9472f663334d43d632b1,001,2024-06-30_07h21.07.853,empathy_intonation_perc,2024.1.4,Win32,59.17159763,,,,,,,,,,,,,,186,rizate,,,,,,510.991,514.3729,0,1,2.8488,,0,117,117,185,1,pseudoword,0,REAL,FALSA
,,,,,,,,,666d9472f663334d43d632b1,001,2024-06-30_07h21.07.853,empathy_intonation_perc,2024.1.4,Win32,59.17159763,,,,,,,,,,,,,,150,cricó,,,,,,514.3885,517.4062,0,1,2.5049,,0,118,118,149,1,pseudoword,0,REAL,FALSA
,,,,,,,,,666d9472f663334d43d632b1,001,2024-06-30_07h21.07.853,empathy_intonation_perc,2024.1.4,Win32,59.17159763,,,,,,,,,,,,,,81,sacar,,,,,,517.4067,520.2731,1,0,2.3372,,0,119,119,80,1,non_cognate,1,REAL,FALSA
,,,,,,,,,666d9472f663334d43d632b1,001,2024-06-30_07h21.07.853,empathy_intonation_perc,2024.1.4,Win32,59.17159763,,,,,,,,,,,,,,176,gripar,,,,,,520.2884,523.3401,0,1,2.5277,,0,120,120,175,1,pseudoword,0,REAL,FALSA
,,,,,,,,,666d9472f663334d43d632b1,001,2024-06-30_07h21.07.853,empathy_intonation_perc,2024.1.4,Win32,59.17159763,,,,,,,,,,,,,,125,ceme,,,,,,523.3407,526.2402,0,1,2.3651,,0,121,121,124,1,pseudoword,0,REAL,FALSA
,,,,,,,,,666d9472f663334d43d632b1,001,2024-06-30_07h21.07.853,empathy_intonation_perc,2024.1.4,Win32,59.17159763,,,,,,,,,,,,,,43,honor,,,,,,526.2559,529.5239,0,1,2.7449,,0,122,122,42,1,two_way_cognate,1,REAL,FALSA
,,,,,,,,,666d9472f663334d43d632b1,001,2024-06-30_07h21.07.853,empathy_intonation_perc,2024.1.4,Win32,59.17159763,,,,,,,,,,,,,,59,feo,,,,,,529.5244,533.4069,0,1,3.3448,,0,123,123,58,1,non_cognate,1,REAL,FALSA
,,,,,,,,,666d9472f663334d43d632b1,001,2024-06-30_07h21.07.853,empathy_intonation_perc,2024.1.4,Win32,59.17159763,,,,,,,,,,,,,,65,guerra,,,,,,533.4232,536.7897,1,0,2.8358,,0,124,124,64,1,non_cognate,1,REAL,FALSA
,,,,,,,,,666d9472f663334d43d632b1,001,2024-06-30_07h21.07.853,empathy_intonation_perc,2024.1.4,Win32,59.17159763,,,,,,,,,,,,,,182,desaro,,,,,,536.8063,540.0906,1,0,2.7636,,0,125,125,181,1,pseudoword,0,REAL,FALSA
,,,,,,,,,666d9472f663334d43d632b1,001,2024-06-30_07h21.07.853,empathy_intonation_perc,2024.1.4,Win32,59.17159763,,,,,,,,,,,,,,86,cuenco,,,,,,540.1093,545.1735,1,0,4.5321,,0,126,126,85,1,non_cognate,1,REAL,FALSA
,,,,,,,,,666d9472f663334d43d632b1,001,2024-06-30_07h21.07.853,empathy_intonation_perc,2024.1.4,Win32,59.17159763,,,,,,,,,,,,,,124,lobe,,,,,,545.1885,549.0237,0,1,3.3131,,0,127,127,123,1,pseudoword,0,REAL,FALSA
,,,,,,,,,666d9472f663334d43d632b1,001,2024-06-30_07h21.07.853,empathy_intonation_perc,2024.1.4,Win32,59.17159763,,,,,,,,,,,,,,145,rúo,,,,,,549.0396,553.6231,0,1,4.0528,,0,128,128,144,1,pseudoword,0,REAL,FALSA
,,,,,,,,,666d9472f663334d43d632b1,001,2024-06-30_07h21.07.853,empathy_intonation_perc,2024.1.4,Win32,59.17159763,,,,,,,,,,,,,,93,tapa,,,,,,553.639,557.4564,1,0,3.3054,,0,129,129,92,1,non_cognate,1,REAL,FALSA
,,,,,,,,,666d9472f663334d43d632b1,001,2024-06-30_07h21.07.853,empathy_intonation_perc,2024.1.4,Win32,59.17159763,,,,,,,,,,,,,,20,trauma,,,,,,557.4716,559.5069,0,1,1.517,,0,130,130,19,1,three_way_cognate,1,REAL,FALSA
,,,,,,,,,666d9472f663334d43d632b1,001,2024-06-30_07h21.07.853,empathy_intonation_perc,2024.1.4,Win32,59.17159763,,,,,,,,,,,,,,30,fiscal,,,,,,559.5075,561.3902,0,1,1.347,,0,131,131,29,1,two_way_cognate,1,REAL,FALSA
,,,,,,,,,666d9472f663334d43d632b1,001,2024-06-30_07h21.07.853,empathy_intonation_perc,2024.1.4,Win32,59.17159763,,,,,,,,,,,,,,87,muleta,,,,,,561.3907,563.1734,1,0,1.247,,0,132,132,86,1,non_cognate,1,REAL,FALSA
,,,,,,,,,666d9472f663334d43d632b1,001,2024-06-30_07h21.07.853,empathy_intonation_perc,2024.1.4,Win32,59.17159763,,,,,,,,,,,,,,12,dogma,,,,,,563.1746,565.3067,0,1,1.5979,,0,133,133,11,1,three_way_cognate,1,REAL,FALSA
,,,,,,,,,666d9472f663334d43d632b1,001,2024-06-30_07h21.07.853,empathy_intonation_perc,2024.1.4,Win32,59.17159763,,,,,,,,,,,,,,121,barbs,,,,,,565.3072,567.0568,0,1,1.2237,,0,134,134,120,1,pseudoword,0,REAL,FALSA
,,,,,,,,,666d9472f663334d43d632b1,001,2024-06-30_07h21.07.853,empathy_intonation_perc,2024.1.4,Win32,59.17159763,,,,,,,,,,,,,,123,arane,,,,,,567.0576,569.04,0,1,1.4499,,0,135,135,122,1,pseudoword,0,REAL,FALSA
,,,,,,,,,666d9472f663334d43d632b1,001,2024-06-30_07h21.07.853,empathy_intonation_perc,2024.1.4,Win32,59.17159763,,,,,,,,,,,,,,187,nomata,,,,,,569.0406,571.3736,1,0,1.7967,,0,136,136,186,1,pseudoword,0,REAL,FALSA
,,,,,,,,,666d9472f663334d43d632b1,001,2024-06-30_07h21.07.853,empathy_intonation_perc,2024.1.4,Win32,59.17159763,,,,,,,,,,,,,,155,kugis,,,,,,571.3742,574.7058,0,1,2.7949,,0,137,137,154,1,pseudoword,0,REAL,FALSA
,,,,,,,,,666d9472f663334d43d632b1,001,2024-06-30_07h21.07.853,empathy_intonation_perc,2024.1.4,Win32,59.17159763,,,,,,,,,,,,,,151,prías,,,,,,574.7209,576.8729,0,1,1.6314,,0,138,138,150,1,pseudoword,0,REAL,FALSA
,,,,,,,,,666d9472f663334d43d632b1,001,2024-06-30_07h21.07.853,empathy_intonation_perc,2024.1.4,Win32,59.17159763,,,,,,,,,,,,,,170,diabo,,,,,,576.8736,579.356,0,1,1.9473,,0,139,139,169,1,pseudoword,0,REAL,FALSA
,,,,,,,,,666d9472f663334d43d632b1,001,2024-06-30_07h21.07.853,empathy_intonation_perc,2024.1.4,Win32,59.17159763,,,,,,,,,,,,,,107,plago,,,,,,579.3564,581.9069,0,1,2.0276,,0,140,140,106,1,pseudoword,0,REAL,FALSA
,,,,,,,,,666d9472f663334d43d632b1,001,2024-06-30_07h21.07.853,empathy_intonation_perc,2024.1.4,Win32,59.17159763,,,,,,,,,,,,,,160,fomeó,,,,,,581.9075,584.4234,0,1,1.9809,,0,141,141,159,1,pseudoword,0,REAL,FALSA
,,,,,,,,,666d9472f663334d43d632b1,001,2024-06-30_07h21.07.853,empathy_intonation_perc,2024.1.4,Win32,59.17159763,,,,,,,,,,,,,,138,tator,,,,,,584.441,586.7564,0,1,1.789,,0,142,142,137,1,pseudoword,0,REAL,FALSA
,,,,,,,,,666d9472f663334d43d632b1,001,2024-06-30_07h21.07.853,empathy_intonation_perc,2024.1.4,Win32,59.17159763,,,,,,,,,,,,,,25,vigor,,,,,,586.7571,589.5729,1,0,2.2805,,0,143,143,24,1,two_way_cognate,1,REAL,FALSA
,,,,,,,,,666d9472f663334d43d632b1,001,2024-06-30_07h21.07.853,empathy_intonation_perc,2024.1.4,Win32,59.17159763,,,,,,,,,,,,,,24,retina,,,,,,589.5733,592.8389,0,1,2.7387,,0,144,144,23,1,three_way_cognate,1,REAL,FALSA
,,,,,,,,,666d9472f663334d43d632b1,001,2024-06-30_07h21.07.853,empathy_intonation_perc,2024.1.4,Win32,59.17159763,,,,,,,,,,,,,,126,tobre,,,,,,592.8534,596.5568,0,1,3.1819,,0,145,145,125,1,pseudoword,0,REAL,FALSA
,,,,,,,,,666d9472f663334d43d632b1,001,2024-06-30_07h21.07.853,empathy_intonation_perc,2024.1.4,Win32,59.17159763,,,,,,,,,,,,,,177,entodo,,,,,,596.5726,600.2895,1,0,3.1974,,0,146,146,176,1,pseudoword,0,REAL,FALSA
,,,,,,,,,666d9472f663334d43d632b1,001,2024-06-30_07h21.07.853,empathy_intonation_perc,2024.1.4,Win32,59.17159763,,,,,,,,,,,,,,5,extra,,,,,,600.3044,602.34,0,1,1.5124,,0,147,147,4,1,three_way_cognate,1,REAL,FALSA
,,,,,,,,,666d9472f663334d43d632b1,001,2024-06-30_07h21.07.853,empathy_intonation_perc,2024.1.4,Win32,59.17159763,,,,,,,,,,,,,,7,albino,,,,,,602.3405,604.5733,0,1,1.6972,,0,148,148,6,1,three_way_cognate,1,REAL,FALSA
,,,,,,,,,666d9472f663334d43d632b1,001,2024-06-30_07h21.07.853,empathy_intonation_perc,2024.1.4,Win32,59.17159763,,,,,,,,,,,,,,51,listo,,,,,,604.5738,608.3899,0,1,3.2811,,0,149,149,50,1,non_cognate,1,REAL,FALSA
,,,,,,,,,666d9472f663334d43d632b1,001,2024-06-30_07h21.07.853,empathy_intonation_perc,2024.1.4,Win32,59.17159763,,,,,,,,,,,,,,142,parre,,,,,,608.4055,611.6229,1,0,2.7033,,0,150,150,141,1,pseudoword,0,REAL,FALSA
,,,,,,,,,666d9472f663334d43d632b1,001,2024-06-30_07h21.07.853,empathy_intonation_perc,2024.1.4,Win32,59.17159763,,,,,,,,,,,,,,63,hilo,,,,,,611.6233,614.1894,0,1,2.0351,,0,151,151,62,1,non_cognate,1,REAL,FALSA
,,,,,,,,,666d9472f663334d43d632b1,001,2024-06-30_07h21.07.853,empathy_intonation_perc,2024.1.4,Win32,59.17159763,,,,,,,,,,,,,,143,hurcos,,,,,,614.2063,617.1401,0,1,2.4117,,0,152,152,142,1,pseudoword,0,REAL,FALSA
,,,,,,,,,666d9472f663334d43d632b1,001,2024-06-30_07h21.07.853,empathy_intonation_perc,2024.1.4,Win32,59.17159763,,,,,,,,,,,,,,15,test,,,,,,617.1407,619.1227,0,1,1.4558,,0,153,153,14,1,three_way_cognate,1,REAL,FALSA
,,,,,,,,,666d9472f663334d43d632b1,001,2024-06-30_07h21.07.853,empathy_intonation_perc,2024.1.4,Win32,59.17159763,,,,,,,,,,,,,,29,clamor,,,,,,619.1231,621.89,0,1,2.2493,,0,154,154,28,1,two_way_cognate,1,REAL,FALSA
,,,,,,,,,666d9472f663334d43d632b1,001,2024-06-30_07h21.07.853,empathy_intonation_perc,2024.1.4,Win32,59.17159763,,,,,,,,,,,,,,112,samón,,,,,,621.8906,625.4227,0,1,2.9977,,0,155,155,111,1,pseudoword,0,REAL,FALSA
,,,,,,,,,666d9472f663334d43d632b1,001,2024-06-30_07h21.07.853,empathy_intonation_perc,2024.1.4,Win32,59.17159763,,,,,,,,,,,,,,117,morrá,,,,,,625.4379,629.173,0,1,3.2172,,0,156,156,116,1,pseudoword,0,REAL,FALSA
,,,,,,,,,666d9472f663334d43d632b1,001,2024-06-30_07h21.07.853,empathy_intonation_perc,2024.1.4,Win32,59.17159763,,,,,,,,,,,,,,8,kilo,,,,,,629.1881,632.2064,0,1,2.4982,,0,157,157,7,1,three_way_cognate,1,REAL,FALSA
,,,,,,,,,666d9472f663334d43d632b1,001,2024-06-30_07h21.07.853,empathy_intonation_perc,2024.1.4,Win32,59.17159763,,,,,,,,,,,,,,131,fuar,,,,,,632.2225,636.3061,0,1,3.5639,,0,158,158,130,1,pseudoword,0,REAL,FALSA
,,,,,,,,,666d9472f663334d43d632b1,001,2024-06-30_07h21.07.853,empathy_intonation_perc,2024.1.4,Win32,59.17159763,,,,,,,,,,,,,,114,dibrea,,,,,,636.3223,639.8894,0,1,3.0565,,0,159,159,113,1,pseudoword,0,REAL,FALSA
,,,,,,,,,666d9472f663334d43d632b1,001,2024-06-30_07h21.07.853,empathy_intonation_perc,2024.1.4,Win32,59.17159763,,,,,,,,,,,,,,39,casual,,,,,,639.89,643.906,0,1,3.5029,,0,160,160,38,1,two_way_cognate,1,REAL,FALSA
,,,,,,,,,666d9472f663334d43d632b1,001,2024-06-30_07h21.07.853,empathy_intonation_perc,2024.1.4,Win32,59.17159763,,,,,,,,,,,,,,91,equipo,,,,,,643.9206,646.572,0,1,2.1375,,0,161,161,90,1,non_cognate,1,REAL,FALSA
,,,,,,,,,666d9472f663334d43d632b1,001,2024-06-30_07h21.07.853,empathy_intonation_perc,2024.1.4,Win32,59.17159763,,,,,,,,,,,,,,165,chote,,,,,,646.588,650.2399,0,1,3.1305,,0,162,162,164,1,pseudoword,0,REAL,FALSA
,,,,,,,,,666d9472f663334d43d632b1,001,2024-06-30_07h21.07.853,empathy_intonation_perc,2024.1.4,Win32,59.17159763,,,,,,,,,,,,,,191,frasis,,,,,,650.2547,653.757,0,1,2.9808,,0,163,163,190,1,pseudoword,0,REAL,FALSA
,,,,,,,,,666d9472f663334d43d632b1,001,2024-06-30_07h21.07.853,empathy_intonation_perc,2024.1.4,Win32,59.17159763,,,,,,,,,,,,,,163,olzan,,,,,,653.7575,657.106,0,1,2.817,,0,164,164,162,1,pseudoword,0,REAL,FALSA
,,,,,,,,,666d9472f663334d43d632b1,001,2024-06-30_07h21.07.853,empathy_intonation_perc,2024.1.4,Win32,59.17159763,,,,,,,,,,,,,,68,puñal,,,,,,657.1206,659.9064,0,1,2.261,,0,165,165,67,1,non_cognate,1,REAL,FALSA
,,,,,,,,,666d9472f663334d43d632b1,001,2024-06-30_07h21.07.853,empathy_intonation_perc,2024.1.4,Win32,59.17159763,,,,,,,,,,,,,,183,edioso,,,,,,659.9068,663.289,0,1,2.8537,,0,166,166,182,1,pseudoword,0,REAL,FALSA
,,,,,,,,,666d9472f663334d43d632b1,001,2024-06-30_07h21.07.853,empathy_intonation_perc,2024.1.4,Win32,59.17159763,,,,,,,,,,,,,,4,flora,,,,,,663.3037,665.4063,1,0,1.5813,,0,167,167,3,1,three_way_cognate,1,REAL,FALSA
,,,,,,,,,666d9472f663334d43d632b1,001,2024-06-30_07h21.07.853,empathy_intonation_perc,2024.1.4,Win32,59.17159763,,,,,,,,,,,,,,69,tiza,,,,,,665.4068,666.8058,0,1,0.8636,,0,168,168,68,1,non_cognate,1,REAL,FALSA
,,,,,,,,,666d9472f663334d43d632b1,001,2024-06-30_07h21.07.853,empathy_intonation_perc,2024.1.4,Win32,59.17159763,,,,,,,,,,,,,,103,vueras,,,,,,666.8063,668.2898,1,0,0.965,,0,169,169,102,1,pseudoword,0,REAL,FALSA
,,,,,,,,,666d9472f663334d43d632b1,001,2024-06-30_07h21.07.853,empathy_intonation_perc,2024.1.4,Win32,59.17159763,,,,,,,,,,,,,,41,pasta,,,,,,668.2903,669.7566,0,1,0.9285,,0,170,170,40,1,two_way_cognate,1,REAL,FALSA
,,,,,,,,,666d9472f663334d43d632b1,001,2024-06-30_07h21.07.853,empathy_intonation_perc,2024.1.4,Win32,59.17159763,,,,,,,,,,,,,,100,épinas,,,,,,669.7571,672.589,0,1,2.2942,,0,171,171,99,1,pseudoword,0,REAL,FALSA
,,,,,,,,,666d9472f663334d43d632b1,001,2024-06-30_07h21.07.853,empathy_intonation_perc,2024.1.4,Win32,59.17159763,,,,,,,,,,,,,,23,plural,,,,,,672.6034,674.1231,0,1,0.9975,,0,172,172,22,1,three_way_cognate,1,REAL,FALSA
,,,,,,,,,666d9472f663334d43d632b1,001,2024-06-30_07h21.07.853,empathy_intonation_perc,2024.1.4,Win32,59.17159763,,,,,,,,,,,,,,116,grigir,,,,,,674.1237,676.2224,1,0,1.5631,,0,173,173,115,1,pseudoword,0,REAL,FALSA
,,,,,,,,,666d9472f663334d43d632b1,001,2024-06-30_07h21.07.853,empathy_intonation_perc,2024.1.4,Win32,59.17159763,,,,,,,,,,,,,,174,pabea,,,,,,676.2229,677.989,0,1,1.2541,,0,174,174,173,1,pseudoword,0,REAL,FALSA
,,,,,,,,,666d9472f663334d43d632b1,001,2024-06-30_07h21.07.853,empathy_intonation_perc,2024.1.4,Win32,59.17159763,,,,,,,,,,,,,,101,losco,,,,,,677.9897,679.6404,0,1,1.131,,0,175,175,100,1,pseudoword,0,REAL,FALSA
,,,,,,,,,666d9472f663334d43d632b1,001,2024-06-30_07h21.07.853,empathy_intonation_perc,2024.1.4,Win32,59.17159763,,,,,,,,,,,,,,74,ala,,,,,,679.6409,681.4733,0,1,1.2987,,0,176,176,73,1,non_cognate,1,REAL,FALSA
,,,,,,,,,666d9472f663334d43d632b1,001,2024-06-30_07h21.07.853,empathy_intonation_perc,2024.1.4,Win32,59.17159763,,,,,,,,,,,,,,190,asumie,,,,,,681.4739,683.6227,0,1,1.6139,,0,177,177,189,1,pseudoword,0,REAL,FALSA
,,,,,,,,,666d9472f663334d43d632b1,001,2024-06-30_07h21.07.853,empathy_intonation_perc,2024.1.4,Win32,59.17159763,,,,,,,,,,,,,,161,civas,,,,,,683.6234,685.5899,1,0,1.4382,,0,178,178,160,1,pseudoword,0,REAL,FALSA
,,,,,,,,,666d9472f663334d43d632b1,001,2024-06-30_07h21.07.853,empathy_intonation_perc,2024.1.4,Win32,59.17159763,,,,,,,,,,,,,,95,listo,,,,,,685.5904,686.9727,0,1,0.8474,,0,179,179,94,1,non_cognate,1,REAL,FALSA
,,,,,,,,,666d9472f663334d43d632b1,001,2024-06-30_07h21.07.853,empathy_intonation_perc,2024.1.4,Win32,59.17159763,,,,,,,,,,,,,,53,punta,,,,,,686.9733,690.2891,0,1,2.7813,,0,180,180,52,1,non_cognate,1,REAL,FALSA
,,,,,,,,,666d9472f663334d43d632b1,001,2024-06-30_07h21.07.853,empathy_intonation_perc,2024.1.4,Win32,59.17159763,,,,,,,,,,,,,,106,diebro,,,,,,690.2895,692.289,0,1,1.4646,,0,181,181,105,1,pseudoword,0,REAL,FALSA
,,,,,,,,,666d9472f663334d43d632b1,001,2024-06-30_07h21.07.853,empathy_intonation_perc,2024.1.4,Win32,59.17159763,,,,,,,,,,,,,,31,civil,,,,,,692.2895,694.6396,0,1,1.8346,,0,182,182,30,1,two_way_cognate,1,REAL,FALSA
,,,,,,,,,666d9472f663334d43d632b1,001,2024-06-30_07h21.07.853,empathy_intonation_perc,2024.1.4,Win32,59.17159763,,,,,,,,,,,,,,115,lidena,,,,,,694.6549,699.6388,0,1,4.4696,,0,183,183,114,1,pseudoword,0,REAL,FALSA
,,,,,,,,,666d9472f663334d43d632b1,001,2024-06-30_07h21.07.853,empathy_intonation_perc,2024.1.4,Win32,59.17159763,,,,,,,,,,,,,,64,rizado,,,,,,699.6518,702.7727,0,1,2.598,,0,184,184,63,1,non_cognate,1,REAL,FALSA
,,,,,,,,,666d9472f663334d43d632b1,001,2024-06-30_07h21.07.853,empathy_intonation_perc,2024.1.4,Win32,59.17159763,,,,,,,,,,,,,,71,torta,,,,,,702.7874,705.356,1,0,2.0538,,0,185,185,70,1,non_cognate,1,REAL,FALSA
,,,,,,,,,666d9472f663334d43d632b1,001,2024-06-30_07h21.07.853,empathy_intonation_perc,2024.1.4,Win32,59.17159763,,,,,,,,,,,,,,1,moral,,,,,,705.3566,707.1726,0,1,1.2838,,0,186,186,0,1,three_way_cognate,1,REAL,FALSA
,,,,,,,,,666d9472f663334d43d632b1,001,2024-06-30_07h21.07.853,empathy_intonation_perc,2024.1.4,Win32,59.17159763,,,,,,,,,,,,,,98,martir,,,,,,707.173,710.4557,1,0,2.7557,,0,187,187,97,1,pseudoword,0,REAL,FALSA
,,,,,,,,,666d9472f663334d43d632b1,001,2024-06-30_07h21.07.853,empathy_intonation_perc,2024.1.4,Win32,59.17159763,,,,,,,,,,,,,,54,tapón,,,,,,710.4711,715.523,0,1,4.5312,,0,188,188,53,1,non_cognate,1,REAL,FALSA
,,,,,,,,,666d9472f663334d43d632b1,001,2024-06-30_07h21.07.853,empathy_intonation_perc,2024.1.4,Win32,59.17159763,,,,,,,,,,,,,,3,disco,,,,,,715.5402,717.3553,0,1,1.2779,,0,189,189,2,1,three_way_cognate,1,REAL,FALSA
,,,,,,,,,666d9472f663334d43d632b1,001,2024-06-30_07h21.07.853,empathy_intonation_perc,2024.1.4,Win32,59.17159763,,,,,,,,,,,,,,157,seled,,,,,,717.3556,720.1068,0,1,2.2309,,0,190,190,156,1,pseudoword,0,REAL,FALSA
,,,,,,,,,666d9472f663334d43d632b1,001,2024-06-30_07h21.07.853,empathy_intonation_perc,2024.1.4,Win32,59.17159763,,,,,,,,,,,,,,60,siglo,,,,,,720.1075,725.9057,0,1,5.264,,0,191,191,59,1,non_cognate,1,REAL,FALSA
