lextale_instructions.started,lextale_instructions.stopped,lextale_instructions_loop.thisRepN,lextale_instructions_loop.thisTrialN,lextale_instructions_loop.thisN,lextale_instructions_loop.thisIndex,lextale_instructions_loop.ran,instructions_text,continue_text,participant,session,date,expName,psychopyVersion,OS,frameRate,lextale_practice.started,lextale_practice.stopped,key_resp_lextale_practice.keys,key_resp_lextale_practice.corr,key_resp_lextale_practice.rt,key_resp_lextale_practice.duration,lextale_practice_feedback.started,lextale_practice_feedback.stopped,lextale_practice_trials.thisRepN,lextale_practice_trials.thisTrialN,lextale_practice_trials.thisN,lextale_practice_trials.thisIndex,lextale_practice_trials.ran,stim,word,correct_response,prac_button_real,prac_button_false,lextale_check.started,lextale_check.stopped,lextale_trial.started,lextale_trial.stopped,key_resp_lextale_trial.keys,key_resp_lextale_trial.corr,key_resp_lextale_trial.rt,key_resp_lextale_trial.duration,lextail_trials.thisRepN,lextail_trials.thisTrialN,lextail_trials.thisN,lextail_trials.thisIndex,lextail_trials.ran,type,correct_reponse,button_real,button_false
0.0089,362.9935,0,0,0,0,1,"Este es un test de vocabulario en español. 
  
  A continuación vas a ver 90 secuencias de letras que parecen 'españolas'.
  
  Solo algunas de ellas son palabras de verdad.",(presiona la barra espaciadora para continuar),6674af2317df8226293b0b08,001,2024-06-30_06h03.04.524,empathy_intonation_perc,2024.1.4,Win32,2.307869836,,,,,,,,,,,,,,,,,,,,,,,,,,,,,,,,,,,
362.9951,363.8947,0,1,1,1,1,"Por favor, señala las palabras que tú conoces (aquellas que estás convencido que son palabras españolas, incluso aunque no seas capaz de dar el significado preciso).",(presiona la barra espaciadora para continuar),6674af2317df8226293b0b08,001,2024-06-30_06h03.04.524,empathy_intonation_perc,2024.1.4,Win32,2.307869836,,,,,,,,,,,,,,,,,,,,,,,,,,,,,,,,,,,
363.8956,365.1752,0,2,2,2,1,Pero cuidado: los errores se penalizan. Por eso no tiene sentido tratar de incrementar tu puntuación marcando como reales palabras que nunca has visto.,(presiona la barra espaciadora para continuar),6674af2317df8226293b0b08,001,2024-06-30_06h03.04.524,empathy_intonation_perc,2024.1.4,Win32,2.307869836,,,,,,,,,,,,,,,,,,,,,,,,,,,,,,,,,,,
365.1762,366.1106,0,3,3,3,1,"Presiona la tecla 1 si piensas que es una palabra real y la tecla 
  0 si piensas que es una palabra falsa. 
  
  Vamos a practicar un poco...",(presiona la barra espaciadora para continuar),6674af2317df8226293b0b08,001,2024-06-30_06h03.04.524,empathy_intonation_perc,2024.1.4,Win32,2.307869836,,,,,,,,,,,,,,,,,,,,,,,,,,,,,,,,,,,
,,,,,,,,,6674af2317df8226293b0b08,001,2024-06-30_06h03.04.524,empathy_intonation_perc,2024.1.4,Win32,2.307869836,366.1175,369.6073,1,0,2.1932,0.0007,369.6079,370.4237,0,0,0,0,1,0,depiste,0,REAL,FALSA,,,,,,,,,,,,,,,,,
,,,,,,,,,6674af2317df8226293b0b08,001,2024-06-30_06h03.04.524,empathy_intonation_perc,2024.1.4,Win32,2.307869836,370.4244,372.9744,0,0,1.3397,0.0004,372.9744,373.7755,0,1,1,1,1,0,sí,1,REAL,FALSA,,,,,,,,,,,,,,,,,
,,,,,,,,,6674af2317df8226293b0b08,001,2024-06-30_06h03.04.524,empathy_intonation_perc,2024.1.4,Win32,2.307869836,373.7759,375.8541,0,1,0.8593,0.0004,375.8541,376.6243,0,2,2,2,1,0,coné,0,REAL,FALSA,,,,,,,,,,,,,,,,,
,,,,,,,,,6674af2317df8226293b0b08,001,2024-06-30_06h03.04.524,empathy_intonation_perc,2024.1.4,Win32,2.307869836,376.6248,378.7165,0,1,0.8706,0.0005,378.7166,379.5112,0,3,3,3,1,0,calpar,0,REAL,FALSA,,,,,,,,,,,,,,,,,
,,,,,,,,,6674af2317df8226293b0b08,001,2024-06-30_06h03.04.524,empathy_intonation_perc,2024.1.4,Win32,2.307869836,379.5117,381.9363,0,1,1.2466,,381.9364,382.7087,0,4,4,4,1,0,joten,0,REAL,FALSA,,,,,,,,,,,,,,,,,
,,,,,,,,,6674af2317df8226293b0b08,001,2024-06-30_06h03.04.524,empathy_intonation_perc,2024.1.4,Win32,2.307869836,382.7093,385.6627,0,0,1.6973,0.0008,385.6629,386.4798,0,5,5,5,1,0,sacapuntas,1,REAL,FALSA,,,,,,,,,,,,,,,,,
,,,,,,,,,6674af2317df8226293b0b08,001,2024-06-30_06h03.04.524,empathy_intonation_perc,2024.1.4,Win32,2.307869836,386.4974,389.3695,0,1,1.6984,,389.3695,390.1989,0,6,6,6,1,0,priba,0,REAL,FALSA,,,,,,,,,,,,,,,,,
,,,,,,,,,6674af2317df8226293b0b08,001,2024-06-30_06h03.04.524,empathy_intonation_perc,2024.1.4,Win32,2.307869836,390.1993,394.2912,0,1,2.901,0.0002,394.2913,395.0756,0,7,7,7,1,0,pelasula,0,REAL,FALSA,,,,,,,,,,,,,,,,,
,,,,,,,,,6674af2317df8226293b0b08,001,2024-06-30_06h03.04.524,empathy_intonation_perc,2024.1.4,Win32,2.307869836,395.0945,399.264,1,1,2.956,,399.264,400.0741,0,8,8,8,1,0,bien,1,REAL,FALSA,,,,,,,,,,,,,,,,,
,,,,,,,,,6674af2317df8226293b0b08,001,2024-06-30_06h03.04.524,empathy_intonation_perc,2024.1.4,Win32,2.307869836,400.0942,405.0628,1,1,3.7517,0.0005,405.0629,405.8553,0,9,9,9,1,0,casa,1,REAL,FALSA,,,,,,,,,,,,,,,,,
,,,,,,,,,6674af2317df8226293b0b08,001,2024-06-30_06h03.04.524,empathy_intonation_perc,2024.1.4,Win32,2.307869836,405.8759,407.1191,1,0,0.0184,0.0004,407.1191,407.9219,0,10,10,10,1,0,lejo,0,REAL,FALSA,,,,,,,,,,,,,,,,,
,,,,,,,,,6674af2317df8226293b0b08,001,2024-06-30_06h03.04.524,empathy_intonation_perc,2024.1.4,Win32,2.307869836,407.9224,409.9631,0,1,0.85,0.0003,409.9632,410.7803,0,11,11,11,1,0,pretantas,0,REAL,FALSA,,,,,,,,,,,,,,,,,
,,,,,,,,,6674af2317df8226293b0b08,001,2024-06-30_06h03.04.524,empathy_intonation_perc,2024.1.4,Win32,2.307869836,,,,,,,,,,,,,,,,,,,410.7811,417.6543,,,,,,,,,,,,,,,
,,,,,,,,,6674af2317df8226293b0b08,001,2024-06-30_06h03.04.524,empathy_intonation_perc,2024.1.4,Win32,2.307869836,,,,,,,,,,,,,,160,fomeó,,,,,,417.6932,420.5519,0,1,1.657,0.0004,0,0,0,159,1,pseudoword,0,REAL,FALSA
,,,,,,,,,6674af2317df8226293b0b08,001,2024-06-30_06h03.04.524,empathy_intonation_perc,2024.1.4,Win32,2.307869836,,,,,,,,,,,,,,183,edioso,,,,,,420.5527,422.1967,0,1,0.4426,0.0004,0,1,1,182,1,pseudoword,0,REAL,FALSA
,,,,,,,,,6674af2317df8226293b0b08,001,2024-06-30_06h03.04.524,empathy_intonation_perc,2024.1.4,Win32,2.307869836,,,,,,,,,,,,,,150,cricó,,,,,,422.1975,428.1886,0,1,4.6642,,0,2,2,149,1,pseudoword,0,REAL,FALSA
,,,,,,,,,6674af2317df8226293b0b08,001,2024-06-30_06h03.04.524,empathy_intonation_perc,2024.1.4,Win32,2.307869836,,,,,,,,,,,,,,190,asumie,,,,,,428.2097,434,0,1,4.5954,0.0004,0,3,3,189,1,pseudoword,0,REAL,FALSA
,,,,,,,,,6674af2317df8226293b0b08,001,2024-06-30_06h03.04.524,empathy_intonation_perc,2024.1.4,Win32,2.307869836,,,,,,,,,,,,,,91,equipo,,,,,,434.019,436.9388,0,1,1.6907,,0,4,4,90,1,non_cognate,1,REAL,FALSA
,,,,,,,,,6674af2317df8226293b0b08,001,2024-06-30_06h03.04.524,empathy_intonation_perc,2024.1.4,Win32,2.307869836,,,,,,,,,,,,,,53,punta,,,,,,436.9394,441.0209,0,1,2.8359,,0,5,5,52,1,non_cognate,1,REAL,FALSA
,,,,,,,,,6674af2317df8226293b0b08,001,2024-06-30_06h03.04.524,empathy_intonation_perc,2024.1.4,Win32,2.307869836,,,,,,,,,,,,,,162,cengo,,,,,,441.0387,444.3101,1,0,2.0822,,0,6,6,161,1,pseudoword,0,REAL,FALSA
,,,,,,,,,6674af2317df8226293b0b08,001,2024-06-30_06h03.04.524,empathy_intonation_perc,2024.1.4,Win32,2.307869836,,,,,,,,,,,,,,77,suave,,,,,,444.3106,445.9333,1,0,0.4314,,0,7,7,76,1,non_cognate,1,REAL,FALSA
,,,,,,,,,6674af2317df8226293b0b08,001,2024-06-30_06h03.04.524,empathy_intonation_perc,2024.1.4,Win32,2.307869836,,,,,,,,,,,,,,111,monue,,,,,,445.9338,447.141,1,0,0.019,,0,8,8,110,1,pseudoword,0,REAL,FALSA
,,,,,,,,,6674af2317df8226293b0b08,001,2024-06-30_06h03.04.524,empathy_intonation_perc,2024.1.4,Win32,2.307869836,,,,,,,,,,,,,,44,editor,,,,,,447.1415,448.3674,0,1,0.0219,0.0005,0,9,9,43,1,two_way_cognate,1,REAL,FALSA
,,,,,,,,,6674af2317df8226293b0b08,001,2024-06-30_06h03.04.524,empathy_intonation_perc,2024.1.4,Win32,2.307869836,,,,,,,,,,,,,,90,venado,,,,,,448.3678,450.3507,0,1,0.8262,,0,10,10,89,1,non_cognate,1,REAL,FALSA
,,,,,,,,,6674af2317df8226293b0b08,001,2024-06-30_06h03.04.524,empathy_intonation_perc,2024.1.4,Win32,2.307869836,,,,,,,,,,,,,,115,lidena,,,,,,450.3515,454.8284,0,1,3.3071,,0,11,11,114,1,pseudoword,0,REAL,FALSA
,,,,,,,,,6674af2317df8226293b0b08,001,2024-06-30_06h03.04.524,empathy_intonation_perc,2024.1.4,Win32,2.307869836,,,,,,,,,,,,,,99,bugor,,,,,,454.8475,459.3699,1,0,3.3641,0.0002,0,12,12,98,1,pseudoword,0,REAL,FALSA
,,,,,,,,,6674af2317df8226293b0b08,001,2024-06-30_06h03.04.524,empathy_intonation_perc,2024.1.4,Win32,2.307869836,,,,,,,,,,,,,,71,torta,,,,,,459.3877,460.9888,0,1,0.4118,0.0004,0,13,13,70,1,non_cognate,1,REAL,FALSA
,,,,,,,,,6674af2317df8226293b0b08,001,2024-06-30_06h03.04.524,empathy_intonation_perc,2024.1.4,Win32,2.307869836,,,,,,,,,,,,,,67,llamar,,,,,,460.9899,462.236,1,0,0.0189,,0,14,14,66,1,non_cognate,1,REAL,FALSA
,,,,,,,,,6674af2317df8226293b0b08,001,2024-06-30_06h03.04.524,empathy_intonation_perc,2024.1.4,Win32,2.307869836,,,,,,,,,,,,,,31,civil,,,,,,462.2364,466.24,0,1,2.828,0.0002,0,15,15,30,1,two_way_cognate,1,REAL,FALSA
,,,,,,,,,6674af2317df8226293b0b08,001,2024-06-30_06h03.04.524,empathy_intonation_perc,2024.1.4,Win32,2.307869836,,,,,,,,,,,,,,119,esís,,,,,,466.2584,468.3601,0,1,0.9062,,0,16,16,118,1,pseudoword,0,REAL,FALSA
,,,,,,,,,6674af2317df8226293b0b08,001,2024-06-30_06h03.04.524,empathy_intonation_perc,2024.1.4,Win32,2.307869836,,,,,,,,,,,,,,100,épinas,,,,,,468.3605,469.6032,1,0,0.0192,0.0005,0,17,17,99,1,pseudoword,0,REAL,FALSA
,,,,,,,,,6674af2317df8226293b0b08,001,2024-06-30_06h03.04.524,empathy_intonation_perc,2024.1.4,Win32,2.307869836,,,,,,,,,,,,,,4,flora,,,,,,469.604,470.8309,0,1,0.0306,,0,18,18,3,1,three_way_cognate,1,REAL,FALSA
,,,,,,,,,6674af2317df8226293b0b08,001,2024-06-30_06h03.04.524,empathy_intonation_perc,2024.1.4,Win32,2.307869836,,,,,,,,,,,,,,34,actor,,,,,,470.8314,472.8802,0,1,0.8388,0.0003,0,19,19,33,1,two_way_cognate,1,REAL,FALSA
,,,,,,,,,6674af2317df8226293b0b08,001,2024-06-30_06h03.04.524,empathy_intonation_perc,2024.1.4,Win32,2.307869836,,,,,,,,,,,,,,175,tradía,,,,,,472.8807,474.099,1,0,0.0244,,0,20,20,174,1,pseudoword,0,REAL,FALSA
,,,,,,,,,6674af2317df8226293b0b08,001,2024-06-30_06h03.04.524,empathy_intonation_perc,2024.1.4,Win32,2.307869836,,,,,,,,,,,,,,120,mauja,,,,,,474.0997,475.3336,0,1,0.0324,0.0004,0,21,21,119,1,pseudoword,0,REAL,FALSA
,,,,,,,,,6674af2317df8226293b0b08,001,2024-06-30_06h03.04.524,empathy_intonation_perc,2024.1.4,Win32,2.307869836,,,,,,,,,,,,,,182,desaro,,,,,,475.3343,476.5559,1,0,0.0212,0.0005,0,22,22,181,1,pseudoword,0,REAL,FALSA
,,,,,,,,,6674af2317df8226293b0b08,001,2024-06-30_06h03.04.524,empathy_intonation_perc,2024.1.4,Win32,2.307869836,,,,,,,,,,,,,,185,aljizo,,,,,,476.5563,478.9698,0,1,1.24,,0,23,23,184,1,pseudoword,0,REAL,FALSA
,,,,,,,,,6674af2317df8226293b0b08,001,2024-06-30_06h03.04.524,empathy_intonation_perc,2024.1.4,Win32,2.307869836,,,,,,,,,,,,,,61,aduana,,,,,,478.9711,480.1979,1,0,0.0189,,0,24,24,60,1,non_cognate,1,REAL,FALSA
,,,,,,,,,6674af2317df8226293b0b08,001,2024-06-30_06h03.04.524,empathy_intonation_perc,2024.1.4,Win32,2.307869836,,,,,,,,,,,,,,69,tiza,,,,,,480.1984,481.8142,0,1,0.4266,,0,25,25,68,1,non_cognate,1,REAL,FALSA
,,,,,,,,,6674af2317df8226293b0b08,001,2024-06-30_06h03.04.524,empathy_intonation_perc,2024.1.4,Win32,2.307869836,,,,,,,,,,,,,,97,nocita,,,,,,481.8149,483.4271,0,1,0.4347,0.0004,0,26,26,96,1,pseudoword,0,REAL,FALSA
,,,,,,,,,6674af2317df8226293b0b08,001,2024-06-30_06h03.04.524,empathy_intonation_perc,2024.1.4,Win32,2.307869836,,,,,,,,,,,,,,109,laras,,,,,,483.4278,484.6391,0,1,0.0219,,0,27,27,108,1,pseudoword,0,REAL,FALSA
,,,,,,,,,6674af2317df8226293b0b08,001,2024-06-30_06h03.04.524,empathy_intonation_perc,2024.1.4,Win32,2.307869836,,,,,,,,,,,,,,60,siglo,,,,,,484.6403,485.8662,1,0,0.0194,,0,28,28,59,1,non_cognate,1,REAL,FALSA
,,,,,,,,,6674af2317df8226293b0b08,001,2024-06-30_06h03.04.524,empathy_intonation_perc,2024.1.4,Win32,2.307869836,,,,,,,,,,,,,,189,medium,,,,,,485.8667,494.3398,1,0,7.168,,0,29,29,188,1,pseudoword,0,REAL,FALSA
,,,,,,,,,6674af2317df8226293b0b08,001,2024-06-30_06h03.04.524,empathy_intonation_perc,2024.1.4,Win32,2.307869836,,,,,,,,,,,,,,13,plan,,,,,,494.3406,495.7421,1,0,0.6476,,0,30,30,12,1,three_way_cognate,1,REAL,FALSA
,,,,,,,,,6674af2317df8226293b0b08,001,2024-06-30_06h03.04.524,empathy_intonation_perc,2024.1.4,Win32,2.307869836,,,,,,,,,,,,,,55,maldad,,,,,,495.743,496.9731,1,0,0.461,,0,31,31,54,1,non_cognate,1,REAL,FALSA
,,,,,,,,,6674af2317df8226293b0b08,001,2024-06-30_06h03.04.524,empathy_intonation_perc,2024.1.4,Win32,2.307869836,,,,,,,,,,,,,,172,dogue,,,,,,496.9739,498.3921,0,1,0.6428,,0,32,32,171,1,pseudoword,0,REAL,FALSA
,,,,,,,,,6674af2317df8226293b0b08,001,2024-06-30_06h03.04.524,empathy_intonation_perc,2024.1.4,Win32,2.307869836,,,,,,,,,,,,,,40,pelvis,,,,,,498.3929,499.5846,0,1,0.3727,,0,33,33,39,1,two_way_cognate,1,REAL,FALSA
,,,,,,,,,6674af2317df8226293b0b08,001,2024-06-30_06h03.04.524,empathy_intonation_perc,2024.1.4,Win32,2.307869836,,,,,,,,,,,,,,7,albino,,,,,,499.585,501.2934,0,1,0.6247,,0,34,34,6,1,three_way_cognate,1,REAL,FALSA
,,,,,,,,,6674af2317df8226293b0b08,001,2024-06-30_06h03.04.524,empathy_intonation_perc,2024.1.4,Win32,2.307869836,,,,,,,,,,,,,,158,babrá,,,,,,501.2942,502.8887,1,0,0.8056,,0,35,35,157,1,pseudoword,0,REAL,FALSA
,,,,,,,,,6674af2317df8226293b0b08,001,2024-06-30_06h03.04.524,empathy_intonation_perc,2024.1.4,Win32,2.307869836,,,,,,,,,,,,,,85,enorme,,,,,,502.8896,504.1874,0,1,0.5367,,0,36,36,84,1,non_cognate,1,REAL,FALSA
,,,,,,,,,6674af2317df8226293b0b08,001,2024-06-30_06h03.04.524,empathy_intonation_perc,2024.1.4,Win32,2.307869836,,,,,,,,,,,,,,63,hilo,,,,,,504.1881,506.0397,1,0,1.0896,,0,37,37,62,1,non_cognate,1,REAL,FALSA
,,,,,,,,,6674af2317df8226293b0b08,001,2024-06-30_06h03.04.524,empathy_intonation_perc,2024.1.4,Win32,2.307869836,,,,,,,,,,,,,,24,retina,,,,,,506.0403,508.6375,0,1,1.8393,,0,38,38,23,1,three_way_cognate,1,REAL,FALSA
,,,,,,,,,6674af2317df8226293b0b08,001,2024-06-30_06h03.04.524,empathy_intonation_perc,2024.1.4,Win32,2.307869836,,,,,,,,,,,,,,76,chocar,,,,,,508.6383,509.9489,0,1,0.5611,,0,39,39,75,1,non_cognate,1,REAL,FALSA
,,,,,,,,,6674af2317df8226293b0b08,001,2024-06-30_06h03.04.524,empathy_intonation_perc,2024.1.4,Win32,2.307869836,,,,,,,,,,,,,,3,disco,,,,,,509.9494,510.9894,1,0,0.2662,0.0003,0,40,40,2,1,three_way_cognate,1,REAL,FALSA
,,,,,,,,,6674af2317df8226293b0b08,001,2024-06-30_06h03.04.524,empathy_intonation_perc,2024.1.4,Win32,2.307869836,,,,,,,,,,,,,,26,enigma,,,,,,510.9899,513.8458,1,0,2.0405,0.0033,0,41,41,25,1,two_way_cognate,1,REAL,FALSA
,,,,,,,,,6674af2317df8226293b0b08,001,2024-06-30_06h03.04.524,empathy_intonation_perc,2024.1.4,Win32,2.307869836,,,,,,,,,,,,,,5,extra,,,,,,513.8756,515.1291,1,0,0.3364,,0,42,42,4,1,three_way_cognate,1,REAL,FALSA
,,,,,,,,,6674af2317df8226293b0b08,001,2024-06-30_06h03.04.524,empathy_intonation_perc,2024.1.4,Win32,2.307869836,,,,,,,,,,,,,,23,plural,,,,,,515.1306,516.4841,1,0,0.3339,,0,43,43,22,1,three_way_cognate,1,REAL,FALSA
,,,,,,,,,6674af2317df8226293b0b08,001,2024-06-30_06h03.04.524,empathy_intonation_perc,2024.1.4,Win32,2.307869836,,,,,,,,,,,,,,101,losco,,,,,,516.4847,517.3515,0,1,0.0156,,0,44,44,100,1,pseudoword,0,REAL,FALSA
,,,,,,,,,6674af2317df8226293b0b08,001,2024-06-30_06h03.04.524,empathy_intonation_perc,2024.1.4,Win32,2.307869836,,,,,,,,,,,,,,179,suelet,,,,,,517.3523,518.5238,1,0,0.3257,0.0005,0,45,45,178,1,pseudoword,0,REAL,FALSA
,,,,,,,,,6674af2317df8226293b0b08,001,2024-06-30_06h03.04.524,empathy_intonation_perc,2024.1.4,Win32,2.307869836,,,,,,,,,,,,,,74,ala,,,,,,518.5246,519.7227,0,1,0.3037,0.0002,0,46,46,73,1,non_cognate,1,REAL,FALSA
,,,,,,,,,6674af2317df8226293b0b08,001,2024-06-30_06h03.04.524,empathy_intonation_perc,2024.1.4,Win32,2.307869836,,,,,,,,,,,,,,170,diabo,,,,,,519.7234,520.5998,0,1,0.013,,0,47,47,169,1,pseudoword,0,REAL,FALSA
,,,,,,,,,6674af2317df8226293b0b08,001,2024-06-30_06h03.04.524,empathy_intonation_perc,2024.1.4,Win32,2.307869836,,,,,,,,,,,,,,70,ánimo,,,,,,520.6004,521.7212,0,1,0.2868,,0,48,48,69,1,non_cognate,1,REAL,FALSA
,,,,,,,,,6674af2317df8226293b0b08,001,2024-06-30_06h03.04.524,empathy_intonation_perc,2024.1.4,Win32,2.307869836,,,,,,,,,,,,,,33,collar,,,,,,521.7219,522.8522,0,1,0.2879,0.0006,0,49,49,32,1,two_way_cognate,1,REAL,FALSA
,,,,,,,,,6674af2317df8226293b0b08,001,2024-06-30_06h03.04.524,empathy_intonation_perc,2024.1.4,Win32,2.307869836,,,,,,,,,,,,,,151,prías,,,,,,522.853,523.6904,1,0,0.0138,,0,50,50,150,1,pseudoword,0,REAL,FALSA
,,,,,,,,,6674af2317df8226293b0b08,001,2024-06-30_06h03.04.524,empathy_intonation_perc,2024.1.4,Win32,2.307869836,,,,,,,,,,,,,,57,regalo,,,,,,523.6911,524.8514,0,1,0.3165,0.0005,0,51,51,56,1,non_cognate,1,REAL,FALSA
,,,,,,,,,6674af2317df8226293b0b08,001,2024-06-30_06h03.04.524,empathy_intonation_perc,2024.1.4,Win32,2.307869836,,,,,,,,,,,,,,64,rizado,,,,,,524.8521,526.0247,1,0,0.3126,,0,52,52,63,1,non_cognate,1,REAL,FALSA
,,,,,,,,,6674af2317df8226293b0b08,001,2024-06-30_06h03.04.524,empathy_intonation_perc,2024.1.4,Win32,2.307869836,,,,,,,,,,,,,,49,teñir,,,,,,526.0255,526.863,0,1,0.0123,,0,53,53,48,1,non_cognate,1,REAL,FALSA
,,,,,,,,,6674af2317df8226293b0b08,001,2024-06-30_06h03.04.524,empathy_intonation_perc,2024.1.4,Win32,2.307869836,,,,,,,,,,,,,,167,dobbo,,,,,,526.8655,527.7304,0,1,0.0165,,0,54,54,166,1,pseudoword,0,REAL,FALSA
,,,,,,,,,6674af2317df8226293b0b08,001,2024-06-30_06h03.04.524,empathy_intonation_perc,2024.1.4,Win32,2.307869836,,,,,,,,,,,,,,131,fuar,,,,,,527.7311,528.8475,1,0,0.2937,,0,55,55,130,1,pseudoword,0,REAL,FALSA
,,,,,,,,,6674af2317df8226293b0b08,001,2024-06-30_06h03.04.524,empathy_intonation_perc,2024.1.4,Win32,2.307869836,,,,,,,,,,,,,,35,aurora,,,,,,528.8483,529.7399,0,1,0.0195,0.0002,0,56,56,34,1,two_way_cognate,1,REAL,FALSA
,,,,,,,,,6674af2317df8226293b0b08,001,2024-06-30_06h03.04.524,empathy_intonation_perc,2024.1.4,Win32,2.307869836,,,,,,,,,,,,,,78,rendir,,,,,,529.7411,530.6665,1,0,0.0147,,0,57,57,77,1,non_cognate,1,REAL,FALSA
,,,,,,,,,6674af2317df8226293b0b08,001,2024-06-30_06h03.04.524,empathy_intonation_perc,2024.1.4,Win32,2.307869836,,,,,,,,,,,,,,159,trcia,,,,,,530.6672,531.5416,0,1,0.0148,0.0004,0,58,58,158,1,pseudoword,0,REAL,FALSA
,,,,,,,,,6674af2317df8226293b0b08,001,2024-06-30_06h03.04.524,empathy_intonation_perc,2024.1.4,Win32,2.307869836,,,,,,,,,,,,,,161,civas,,,,,,531.5421,532.3954,0,1,0.0134,,0,59,59,160,1,pseudoword,0,REAL,FALSA
,,,,,,,,,6674af2317df8226293b0b08,001,2024-06-30_06h03.04.524,empathy_intonation_perc,2024.1.4,Win32,2.307869836,,,,,,,,,,,,,,114,dibrea,,,,,,532.3961,533.3266,1,0,0.0168,,0,60,60,113,1,pseudoword,0,REAL,FALSA
,,,,,,,,,6674af2317df8226293b0b08,001,2024-06-30_06h03.04.524,empathy_intonation_perc,2024.1.4,Win32,2.307869836,,,,,,,,,,,,,,174,pabea,,,,,,533.3275,534.2141,0,1,0.0194,,0,61,61,173,1,pseudoword,0,REAL,FALSA
,,,,,,,,,6674af2317df8226293b0b08,001,2024-06-30_06h03.04.524,empathy_intonation_perc,2024.1.4,Win32,2.307869836,,,,,,,,,,,,,,80,cuenco,,,,,,534.2153,535.358,1,0,0.3005,,0,62,62,79,1,non_cognate,1,REAL,FALSA
,,,,,,,,,6674af2317df8226293b0b08,001,2024-06-30_06h03.04.524,empathy_intonation_perc,2024.1.4,Win32,2.307869836,,,,,,,,,,,,,,47,color,,,,,,535.3586,536.5263,0,1,0.3061,,0,63,63,46,1,two_way_cognate,1,REAL,FALSA
,,,,,,,,,6674af2317df8226293b0b08,001,2024-06-30_06h03.04.524,empathy_intonation_perc,2024.1.4,Win32,2.307869836,,,,,,,,,,,,,,153,golla,,,,,,536.5273,537.6558,1,0,0.3001,,0,64,64,152,1,pseudoword,0,REAL,FALSA
,,,,,,,,,6674af2317df8226293b0b08,001,2024-06-30_06h03.04.524,empathy_intonation_perc,2024.1.4,Win32,2.307869836,,,,,,,,,,,,,,29,clamor,,,,,,537.6569,538.5591,1,0,0.0136,,0,65,65,28,1,two_way_cognate,1,REAL,FALSA
,,,,,,,,,6674af2317df8226293b0b08,001,2024-06-30_06h03.04.524,empathy_intonation_perc,2024.1.4,Win32,2.307869836,,,,,,,,,,,,,,37,torso,,,,,,538.5598,539.7376,1,0,0.312,0.0008,0,66,66,36,1,two_way_cognate,1,REAL,FALSA
,,,,,,,,,6674af2317df8226293b0b08,001,2024-06-30_06h03.04.524,empathy_intonation_perc,2024.1.4,Win32,2.307869836,,,,,,,,,,,,,,65,guerra,,,,,,539.7381,540.6356,0,1,0.0146,,0,67,67,64,1,non_cognate,1,REAL,FALSA
,,,,,,,,,6674af2317df8226293b0b08,001,2024-06-30_06h03.04.524,empathy_intonation_perc,2024.1.4,Win32,2.307869836,,,,,,,,,,,,,,188,amplir,,,,,,540.6363,541.5642,1,0,0.014,,0,68,68,187,1,pseudoword,0,REAL,FALSA
,,,,,,,,,6674af2317df8226293b0b08,001,2024-06-30_06h03.04.524,empathy_intonation_perc,2024.1.4,Win32,2.307869836,,,,,,,,,,,,,,36,viable,,,,,,541.565,542.7417,0,1,0.3276,0.001,0,69,69,35,1,two_way_cognate,1,REAL,FALSA
,,,,,,,,,6674af2317df8226293b0b08,001,2024-06-30_06h03.04.524,empathy_intonation_perc,2024.1.4,Win32,2.307869836,,,,,,,,,,,,,,149,emén,,,,,,542.7424,543.6967,0,1,0.0144,0.0004,0,70,70,148,1,pseudoword,0,REAL,FALSA
,,,,,,,,,6674af2317df8226293b0b08,001,2024-06-30_06h03.04.524,empathy_intonation_perc,2024.1.4,Win32,2.307869836,,,,,,,,,,,,,,129,vinzó,,,,,,543.6974,544.5824,1,0,0.0147,0.0004,0,71,71,128,1,pseudoword,0,REAL,FALSA
,,,,,,,,,6674af2317df8226293b0b08,001,2024-06-30_06h03.04.524,empathy_intonation_perc,2024.1.4,Win32,2.307869836,,,,,,,,,,,,,,1,moral,,,,,,544.5839,545.4223,0,1,0.014,,0,72,72,0,1,three_way_cognate,1,REAL,FALSA
,,,,,,,,,6674af2317df8226293b0b08,001,2024-06-30_06h03.04.524,empathy_intonation_perc,2024.1.4,Win32,2.307869836,,,,,,,,,,,,,,87,muleta,,,,,,545.4236,547.2395,0,1,0.9437,,0,73,73,86,1,non_cognate,1,REAL,FALSA
,,,,,,,,,6674af2317df8226293b0b08,001,2024-06-30_06h03.04.524,empathy_intonation_perc,2024.1.4,Win32,2.307869836,,,,,,,,,,,,,,93,tapa,,,,,,547.2402,548.7333,0,1,0.6152,,0,74,74,92,1,non_cognate,1,REAL,FALSA
,,,,,,,,,6674af2317df8226293b0b08,001,2024-06-30_06h03.04.524,empathy_intonation_perc,2024.1.4,Win32,2.307869836,,,,,,,,,,,,,,88,percha,,,,,,548.7349,550.1851,0,1,0.6008,0.0005,0,75,75,87,1,non_cognate,1,REAL,FALSA
,,,,,,,,,6674af2317df8226293b0b08,001,2024-06-30_06h03.04.524,empathy_intonation_perc,2024.1.4,Win32,2.307869836,,,,,,,,,,,,,,187,nomata,,,,,,550.1869,551.0643,0,1,0.0148,,0,76,76,186,1,pseudoword,0,REAL,FALSA
,,,,,,,,,6674af2317df8226293b0b08,001,2024-06-30_06h03.04.524,empathy_intonation_perc,2024.1.4,Win32,2.307869836,,,,,,,,,,,,,,43,honor,,,,,,551.0647,552.1473,1,0,0.2875,,0,77,77,42,1,two_way_cognate,1,REAL,FALSA
,,,,,,,,,6674af2317df8226293b0b08,001,2024-06-30_06h03.04.524,empathy_intonation_perc,2024.1.4,Win32,2.307869836,,,,,,,,,,,,,,139,sasos,,,,,,552.148,552.9733,0,1,0.0154,,0,78,78,138,1,pseudoword,0,REAL,FALSA
,,,,,,,,,6674af2317df8226293b0b08,001,2024-06-30_06h03.04.524,empathy_intonation_perc,2024.1.4,Win32,2.307869836,,,,,,,,,,,,,,52,blando,,,,,,552.974,554.119,0,1,0.3263,0.0005,0,79,79,51,1,non_cognate,1,REAL,FALSA
,,,,,,,,,6674af2317df8226293b0b08,001,2024-06-30_06h03.04.524,empathy_intonation_perc,2024.1.4,Win32,2.307869836,,,,,,,,,,,,,,125,ceme,,,,,,554.1212,555.2555,0,1,0.301,0.0013,0,80,80,124,1,pseudoword,0,REAL,FALSA
,,,,,,,,,6674af2317df8226293b0b08,001,2024-06-30_06h03.04.524,empathy_intonation_perc,2024.1.4,Win32,2.307869836,,,,,,,,,,,,,,166,anfia,,,,,,555.256,556.1186,0,1,0.0136,0.0001,0,81,81,165,1,pseudoword,0,REAL,FALSA
,,,,,,,,,6674af2317df8226293b0b08,001,2024-06-30_06h03.04.524,empathy_intonation_perc,2024.1.4,Win32,2.307869836,,,,,,,,,,,,,,96,caro,,,,,,556.1199,557.275,0,1,0.3173,0.0004,0,82,82,95,1,non_cognate,1,REAL,FALSA
,,,,,,,,,6674af2317df8226293b0b08,001,2024-06-30_06h03.04.524,empathy_intonation_perc,2024.1.4,Win32,2.307869836,,,,,,,,,,,,,,39,casual,,,,,,557.2757,558.1429,1,0,0.0142,,0,83,83,38,1,two_way_cognate,1,REAL,FALSA
,,,,,,,,,6674af2317df8226293b0b08,001,2024-06-30_06h03.04.524,empathy_intonation_perc,2024.1.4,Win32,2.307869836,,,,,,,,,,,,,,58,colcha,,,,,,558.1434,559.6005,0,1,0.6029,0.0004,0,84,84,57,1,non_cognate,1,REAL,FALSA
,,,,,,,,,6674af2317df8226293b0b08,001,2024-06-30_06h03.04.524,empathy_intonation_perc,2024.1.4,Win32,2.307869836,,,,,,,,,,,,,,113,nasce,,,,,,559.6012,560.79,1,0,0.3408,,0,85,85,112,1,pseudoword,0,REAL,FALSA
,,,,,,,,,6674af2317df8226293b0b08,001,2024-06-30_06h03.04.524,empathy_intonation_perc,2024.1.4,Win32,2.307869836,,,,,,,,,,,,,,21,hotel,,,,,,560.791,562.5143,0,1,0.8922,,0,86,86,20,1,three_way_cognate,1,REAL,FALSA
,,,,,,,,,6674af2317df8226293b0b08,001,2024-06-30_06h03.04.524,empathy_intonation_perc,2024.1.4,Win32,2.307869836,,,,,,,,,,,,,,181,gravés,,,,,,562.5148,563.7112,1,0,0.314,0.0004,0,87,87,180,1,pseudoword,0,REAL,FALSA
,,,,,,,,,6674af2317df8226293b0b08,001,2024-06-30_06h03.04.524,empathy_intonation_perc,2024.1.4,Win32,2.307869836,,,,,,,,,,,,,,128,pelí,,,,,,563.7118,564.6097,0,1,0.0175,,0,88,88,127,1,pseudoword,0,REAL,FALSA
,,,,,,,,,6674af2317df8226293b0b08,001,2024-06-30_06h03.04.524,empathy_intonation_perc,2024.1.4,Win32,2.307869836,,,,,,,,,,,,,,137,trugo,,,,,,564.6109,565.5388,0,1,0.0132,,0,89,89,136,1,pseudoword,0,REAL,FALSA
,,,,,,,,,6674af2317df8226293b0b08,001,2024-06-30_06h03.04.524,empathy_intonation_perc,2024.1.4,Win32,2.307869836,,,,,,,,,,,,,,142,parre,,,,,,565.5395,566.7629,0,1,0.3155,0.0004,0,90,90,141,1,pseudoword,0,REAL,FALSA
,,,,,,,,,6674af2317df8226293b0b08,001,2024-06-30_06h03.04.524,empathy_intonation_perc,2024.1.4,Win32,2.307869836,,,,,,,,,,,,,,112,samón,,,,,,566.7635,567.6571,1,0,0.0138,0.0006,0,91,91,111,1,pseudoword,0,REAL,FALSA
,,,,,,,,,6674af2317df8226293b0b08,001,2024-06-30_06h03.04.524,empathy_intonation_perc,2024.1.4,Win32,2.307869836,,,,,,,,,,,,,,157,seled,,,,,,567.658,568.5018,1,0,0.0191,0.0028,0,92,92,156,1,pseudoword,0,REAL,FALSA
,,,,,,,,,6674af2317df8226293b0b08,001,2024-06-30_06h03.04.524,empathy_intonation_perc,2024.1.4,Win32,2.307869836,,,,,,,,,,,,,,176,gripar,,,,,,568.5031,569.7393,1,0,0.3469,0.0002,0,93,93,175,1,pseudoword,0,REAL,FALSA
,,,,,,,,,6674af2317df8226293b0b08,001,2024-06-30_06h03.04.524,empathy_intonation_perc,2024.1.4,Win32,2.307869836,,,,,,,,,,,,,,124,lobe,,,,,,569.7413,577.2756,1,0,6.649,,0,94,94,123,1,pseudoword,0,REAL,FALSA
,,,,,,,,,6674af2317df8226293b0b08,001,2024-06-30_06h03.04.524,empathy_intonation_perc,2024.1.4,Win32,2.307869836,,,,,,,,,,,,,,141,virios,,,,,,577.3041,578.4395,1,0,0.3085,0.0017,0,95,95,140,1,pseudoword,0,REAL,FALSA
,,,,,,,,,6674af2317df8226293b0b08,001,2024-06-30_06h03.04.524,empathy_intonation_perc,2024.1.4,Win32,2.307869836,,,,,,,,,,,,,,41,pasta,,,,,,578.4401,579.246,1,0,0.0149,,0,96,96,40,1,two_way_cognate,1,REAL,FALSA
,,,,,,,,,6674af2317df8226293b0b08,001,2024-06-30_06h03.04.524,empathy_intonation_perc,2024.1.4,Win32,2.307869836,,,,,,,,,,,,,,156,ozoso,,,,,,579.2467,580.3819,0,1,0.2949,,0,97,97,155,1,pseudoword,0,REAL,FALSA
,,,,,,,,,6674af2317df8226293b0b08,001,2024-06-30_06h03.04.524,empathy_intonation_perc,2024.1.4,Win32,2.307869836,,,,,,,,,,,,,,116,grigir,,,,,,580.3825,581.4956,0,1,0.3119,,0,98,98,115,1,pseudoword,0,REAL,FALSA
,,,,,,,,,6674af2317df8226293b0b08,001,2024-06-30_06h03.04.524,empathy_intonation_perc,2024.1.4,Win32,2.307869836,,,,,,,,,,,,,,154,harvé,,,,,,581.4962,582.6143,0,1,0.2922,,0,99,99,153,1,pseudoword,0,REAL,FALSA
,,,,,,,,,6674af2317df8226293b0b08,001,2024-06-30_06h03.04.524,empathy_intonation_perc,2024.1.4,Win32,2.307869836,,,,,,,,,,,,,,32,animal,,,,,,582.6149,583.5124,1,0,0.0149,0.0005,0,100,100,31,1,two_way_cognate,1,REAL,FALSA
,,,,,,,,,6674af2317df8226293b0b08,001,2024-06-30_06h03.04.524,empathy_intonation_perc,2024.1.4,Win32,2.307869836,,,,,,,,,,,,,,178,inichó,,,,,,583.513,584.3396,0,1,0.0144,,0,101,101,177,1,pseudoword,0,REAL,FALSA
,,,,,,,,,6674af2317df8226293b0b08,001,2024-06-30_06h03.04.524,empathy_intonation_perc,2024.1.4,Win32,2.307869836,,,,,,,,,,,,,,62,pegar,,,,,,584.3402,585.4582,1,0,0.3109,,0,102,102,61,1,non_cognate,1,REAL,FALSA
,,,,,,,,,6674af2317df8226293b0b08,001,2024-06-30_06h03.04.524,empathy_intonation_perc,2024.1.4,Win32,2.307869836,,,,,,,,,,,,,,186,rizate,,,,,,585.4587,586.3149,0,1,0.0151,,0,103,103,185,1,pseudoword,0,REAL,FALSA
,,,,,,,,,6674af2317df8226293b0b08,001,2024-06-30_06h03.04.524,empathy_intonation_perc,2024.1.4,Win32,2.307869836,,,,,,,,,,,,,,12,dogma,,,,,,586.3157,587.4109,1,0,0.3119,0.0007,0,104,104,11,1,three_way_cognate,1,REAL,FALSA
,,,,,,,,,6674af2317df8226293b0b08,001,2024-06-30_06h03.04.524,empathy_intonation_perc,2024.1.4,Win32,2.307869836,,,,,,,,,,,,,,19,mafia,,,,,,587.4124,588.2522,0,1,0.0137,,0,105,105,18,1,three_way_cognate,1,REAL,FALSA
,,,,,,,,,6674af2317df8226293b0b08,001,2024-06-30_06h03.04.524,empathy_intonation_perc,2024.1.4,Win32,2.307869836,,,,,,,,,,,,,,184,huenos,,,,,,588.2529,589.396,1,0,0.3181,,0,106,106,183,1,pseudoword,0,REAL,FALSA
,,,,,,,,,6674af2317df8226293b0b08,001,2024-06-30_06h03.04.524,empathy_intonation_perc,2024.1.4,Win32,2.307869836,,,,,,,,,,,,,,59,feo,,,,,,589.3971,591.6707,0,1,1.4839,0.0004,0,107,107,58,1,non_cognate,1,REAL,FALSA
,,,,,,,,,6674af2317df8226293b0b08,001,2024-06-30_06h03.04.524,empathy_intonation_perc,2024.1.4,Win32,2.307869836,,,,,,,,,,,,,,134,molor,,,,,,591.6712,592.7513,1,0,0.2962,,0,108,108,133,1,pseudoword,0,REAL,FALSA
,,,,,,,,,6674af2317df8226293b0b08,001,2024-06-30_06h03.04.524,empathy_intonation_perc,2024.1.4,Win32,2.307869836,,,,,,,,,,,,,,102,coyo,,,,,,592.7522,594.4651,1,0,0.8444,0.0005,0,109,109,101,1,pseudoword,0,REAL,FALSA
,,,,,,,,,6674af2317df8226293b0b08,001,2024-06-30_06h03.04.524,empathy_intonation_perc,2024.1.4,Win32,2.307869836,,,,,,,,,,,,,,106,diebro,,,,,,594.4656,596.6588,1,0,1.091,,0,110,110,105,1,pseudoword,0,REAL,FALSA
,,,,,,,,,6674af2317df8226293b0b08,001,2024-06-30_06h03.04.524,empathy_intonation_perc,2024.1.4,Win32,2.307869836,,,,,,,,,,,,,,38,halo,,,,,,596.6593,598.7105,0,1,1.054,,0,111,111,37,1,two_way_cognate,1,REAL,FALSA
,,,,,,,,,6674af2317df8226293b0b08,001,2024-06-30_06h03.04.524,empathy_intonation_perc,2024.1.4,Win32,2.307869836,,,,,,,,,,,,,,48,pelvis,,,,,,598.7113,600.55,1,0,1.0581,,0,112,112,47,1,two_way_cognate,1,REAL,FALSA
,,,,,,,,,6674af2317df8226293b0b08,001,2024-06-30_06h03.04.524,empathy_intonation_perc,2024.1.4,Win32,2.307869836,,,,,,,,,,,,,,103,vueras,,,,,,600.5507,602.3803,1,0,0.8231,,0,113,113,102,1,pseudoword,0,REAL,FALSA
,,,,,,,,,6674af2317df8226293b0b08,001,2024-06-30_06h03.04.524,empathy_intonation_perc,2024.1.4,Win32,2.307869836,,,,,,,,,,,,,,2,tumor,,,,,,602.381,603.4478,1,0,0.275,,0,114,114,1,1,three_way_cognate,1,REAL,FALSA
,,,,,,,,,6674af2317df8226293b0b08,001,2024-06-30_06h03.04.524,empathy_intonation_perc,2024.1.4,Win32,2.307869836,,,,,,,,,,,,,,163,olzan,,,,,,603.4484,605.349,1,0,1.1274,,0,115,115,162,1,pseudoword,0,REAL,FALSA
,,,,,,,,,6674af2317df8226293b0b08,001,2024-06-30_06h03.04.524,empathy_intonation_perc,2024.1.4,Win32,2.307869836,,,,,,,,,,,,,,89,muñeca,,,,,,605.3498,606.9258,0,1,0.803,,0,116,116,88,1,non_cognate,1,REAL,FALSA
,,,,,,,,,6674af2317df8226293b0b08,001,2024-06-30_06h03.04.524,empathy_intonation_perc,2024.1.4,Win32,2.307869836,,,,,,,,,,,,,,132,nocó,,,,,,606.9265,609.0089,1,0,1.0588,,0,117,117,131,1,pseudoword,0,REAL,FALSA
,,,,,,,,,6674af2317df8226293b0b08,001,2024-06-30_06h03.04.524,empathy_intonation_perc,2024.1.4,Win32,2.307869836,,,,,,,,,,,,,,82,brillo,,,,,,609.0094,610.3277,1,0,0.5569,,0,118,118,81,1,non_cognate,1,REAL,FALSA
,,,,,,,,,6674af2317df8226293b0b08,001,2024-06-30_06h03.04.524,empathy_intonation_perc,2024.1.4,Win32,2.307869836,,,,,,,,,,,,,,122,boñaz,,,,,,610.3282,611.8765,1,0,0.7634,,0,119,119,121,1,pseudoword,0,REAL,FALSA
,,,,,,,,,6674af2317df8226293b0b08,001,2024-06-30_06h03.04.524,empathy_intonation_perc,2024.1.4,Win32,2.307869836,,,,,,,,,,,,,,51,listo,,,,,,611.8771,613.2735,1,0,0.5997,,0,120,120,50,1,non_cognate,1,REAL,FALSA
,,,,,,,,,6674af2317df8226293b0b08,001,2024-06-30_06h03.04.524,empathy_intonation_perc,2024.1.4,Win32,2.307869836,,,,,,,,,,,,,,17,clan,,,,,,613.2741,614.5842,0,1,0.5542,,0,121,121,16,1,three_way_cognate,1,REAL,FALSA
,,,,,,,,,6674af2317df8226293b0b08,001,2024-06-30_06h03.04.524,empathy_intonation_perc,2024.1.4,Win32,2.307869836,,,,,,,,,,,,,,168,cobén,,,,,,614.5852,615.9154,1,0,0.5558,,0,122,122,167,1,pseudoword,0,REAL,FALSA
,,,,,,,,,6674af2317df8226293b0b08,001,2024-06-30_06h03.04.524,empathy_intonation_perc,2024.1.4,Win32,2.307869836,,,,,,,,,,,,,,133,conso,,,,,,615.9161,617.2367,1,0,0.5741,,0,123,123,132,1,pseudoword,0,REAL,FALSA
,,,,,,,,,6674af2317df8226293b0b08,001,2024-06-30_06h03.04.524,empathy_intonation_perc,2024.1.4,Win32,2.307869836,,,,,,,,,,,,,,42,rumor,,,,,,617.2372,618.9214,0,1,0.8444,0.0005,0,124,124,41,1,two_way_cognate,1,REAL,FALSA
,,,,,,,,,6674af2317df8226293b0b08,001,2024-06-30_06h03.04.524,empathy_intonation_perc,2024.1.4,Win32,2.307869836,,,,,,,,,,,,,,84,aviso,,,,,,618.922,619.953,1,0,0.0126,,0,125,125,83,1,non_cognate,1,REAL,FALSA
,,,,,,,,,6674af2317df8226293b0b08,001,2024-06-30_06h03.04.524,empathy_intonation_perc,2024.1.4,Win32,2.307869836,,,,,,,,,,,,,,180,pupica,,,,,,619.9535,621.2915,0,1,0.5683,0.0003,0,126,126,179,1,pseudoword,0,REAL,FALSA
,,,,,,,,,6674af2317df8226293b0b08,001,2024-06-30_06h03.04.524,empathy_intonation_perc,2024.1.4,Win32,2.307869836,,,,,,,,,,,,,,46,mortal,,,,,,621.2924,622.3441,0,1,0.291,,0,127,127,45,1,two_way_cognate,1,REAL,FALSA
,,,,,,,,,6674af2317df8226293b0b08,001,2024-06-30_06h03.04.524,empathy_intonation_perc,2024.1.4,Win32,2.307869836,,,,,,,,,,,,,,171,gotro,,,,,,622.3448,623.15,0,1,0.0133,,0,128,128,170,1,pseudoword,0,REAL,FALSA
,,,,,,,,,6674af2317df8226293b0b08,001,2024-06-30_06h03.04.524,empathy_intonation_perc,2024.1.4,Win32,2.307869836,,,,,,,,,,,,,,104,estulo,,,,,,623.1506,624.4255,1,0,0.2668,,0,129,129,103,1,pseudoword,0,REAL,FALSA
,,,,,,,,,6674af2317df8226293b0b08,001,2024-06-30_06h03.04.524,empathy_intonation_perc,2024.1.4,Win32,2.307869836,,,,,,,,,,,,,,8,kilo,,,,,,624.4263,625.2069,1,0,0.0127,,0,130,130,7,1,three_way_cognate,1,REAL,FALSA
,,,,,,,,,6674af2317df8226293b0b08,001,2024-06-30_06h03.04.524,empathy_intonation_perc,2024.1.4,Win32,2.307869836,,,,,,,,,,,,,,50,sierra,,,,,,625.2075,626.2635,1,0,0.2934,,0,131,131,49,1,non_cognate,1,REAL,FALSA
,,,,,,,,,6674af2317df8226293b0b08,001,2024-06-30_06h03.04.524,empathy_intonation_perc,2024.1.4,Win32,2.307869836,,,,,,,,,,,,,,6,horror,,,,,,626.264,627.8097,1,0,0.536,0.0003,0,132,132,5,1,three_way_cognate,1,REAL,FALSA
,,,,,,,,,6674af2317df8226293b0b08,001,2024-06-30_06h03.04.524,empathy_intonation_perc,2024.1.4,Win32,2.307869836,,,,,,,,,,,,,,146,gió,,,,,,627.8104,628.8402,1,0,0.0128,,0,133,133,145,1,pseudoword,0,REAL,FALSA
,,,,,,,,,6674af2317df8226293b0b08,001,2024-06-30_06h03.04.524,empathy_intonation_perc,2024.1.4,Win32,2.307869836,,,,,,,,,,,,,,83,hálito,,,,,,628.8411,630.1298,1,0,0.5421,,0,134,134,82,1,non_cognate,1,REAL,FALSA
,,,,,,,,,6674af2317df8226293b0b08,001,2024-06-30_06h03.04.524,empathy_intonation_perc,2024.1.4,Win32,2.307869836,,,,,,,,,,,,,,135,panté,,,,,,630.1305,631.4278,1,0,0.5372,,0,135,135,134,1,pseudoword,0,REAL,FALSA
,,,,,,,,,6674af2317df8226293b0b08,001,2024-06-30_06h03.04.524,empathy_intonation_perc,2024.1.4,Win32,2.307869836,,,,,,,,,,,,,,10,drama,,,,,,631.4282,632.7316,1,0,0.5361,0.0004,0,136,136,9,1,three_way_cognate,1,REAL,FALSA
,,,,,,,,,6674af2317df8226293b0b08,001,2024-06-30_06h03.04.524,empathy_intonation_perc,2024.1.4,Win32,2.307869836,,,,,,,,,,,,,,98,martir,,,,,,632.7324,634.5285,1,0,0.7967,,0,137,137,97,1,pseudoword,0,REAL,FALSA
,,,,,,,,,6674af2317df8226293b0b08,001,2024-06-30_06h03.04.524,empathy_intonation_perc,2024.1.4,Win32,2.307869836,,,,,,,,,,,,,,81,sacar,,,,,,634.5291,635.5455,1,0,0.0116,,0,138,138,80,1,non_cognate,1,REAL,FALSA
,,,,,,,,,6674af2317df8226293b0b08,001,2024-06-30_06h03.04.524,empathy_intonation_perc,2024.1.4,Win32,2.307869836,,,,,,,,,,,,,,25,vigor,,,,,,635.5462,636.8573,1,0,0.5237,0.0004,0,139,139,24,1,two_way_cognate,1,REAL,FALSA
,,,,,,,,,6674af2317df8226293b0b08,001,2024-06-30_06h03.04.524,empathy_intonation_perc,2024.1.4,Win32,2.307869836,,,,,,,,,,,,,,75,patada,,,,,,636.858,637.6413,1,0,0.0132,,0,140,140,74,1,non_cognate,1,REAL,FALSA
,,,,,,,,,6674af2317df8226293b0b08,001,2024-06-30_06h03.04.524,empathy_intonation_perc,2024.1.4,Win32,2.307869836,,,,,,,,,,,,,,22,mango,,,,,,637.6419,639.7226,1,0,1.2972,,0,141,141,21,1,three_way_cognate,1,REAL,FALSA
,,,,,,,,,6674af2317df8226293b0b08,001,2024-06-30_06h03.04.524,empathy_intonation_perc,2024.1.4,Win32,2.307869836,,,,,,,,,,,,,,152,prave,,,,,,639.7233,641.0931,1,0,0.564,,0,142,142,151,1,pseudoword,0,REAL,FALSA
,,,,,,,,,6674af2317df8226293b0b08,001,2024-06-30_06h03.04.524,empathy_intonation_perc,2024.1.4,Win32,2.307869836,,,,,,,,,,,,,,164,tecia,,,,,,641.0937,642.114,1,0,0.012,,0,143,143,163,1,pseudoword,0,REAL,FALSA
,,,,,,,,,6674af2317df8226293b0b08,001,2024-06-30_06h03.04.524,empathy_intonation_perc,2024.1.4,Win32,2.307869836,,,,,,,,,,,,,,68,puñal,,,,,,642.1148,644.4624,1,0,1.3147,,0,144,144,67,1,non_cognate,1,REAL,FALSA
,,,,,,,,,6674af2317df8226293b0b08,001,2024-06-30_06h03.04.524,empathy_intonation_perc,2024.1.4,Win32,2.307869836,,,,,,,,,,,,,,118,bará,,,,,,644.463,646.3386,1,0,1.0673,,0,145,145,117,1,pseudoword,0,REAL,FALSA
,,,,,,,,,6674af2317df8226293b0b08,001,2024-06-30_06h03.04.524,empathy_intonation_perc,2024.1.4,Win32,2.307869836,,,,,,,,,,,,,,105,leniz,,,,,,646.3392,647.5863,1,0,0.2621,,0,146,146,104,1,pseudoword,0,REAL,FALSA
,,,,,,,,,6674af2317df8226293b0b08,001,2024-06-30_06h03.04.524,empathy_intonation_perc,2024.1.4,Win32,2.307869836,,,,,,,,,,,,,,130,dubo,,,,,,647.587,649.895,1,0,1.3338,,0,147,147,129,1,pseudoword,0,REAL,FALSA
,,,,,,,,,6674af2317df8226293b0b08,001,2024-06-30_06h03.04.524,empathy_intonation_perc,2024.1.4,Win32,2.307869836,,,,,,,,,,,,,,192,próces,,,,,,649.8958,654.5416,1,0,3.6706,0.0002,0,148,148,191,1,pseudoword,0,REAL,FALSA
,,,,,,,,,6674af2317df8226293b0b08,001,2024-06-30_06h03.04.524,empathy_intonation_perc,2024.1.4,Win32,2.307869836,,,,,,,,,,,,,,56,pico,,,,,,654.5625,657.9167,1,0,2.3654,0.0006,0,149,149,55,1,non_cognate,1,REAL,FALSA
,,,,,,,,,6674af2317df8226293b0b08,001,2024-06-30_06h03.04.524,empathy_intonation_perc,2024.1.4,Win32,2.307869836,,,,,,,,,,,,,,147,alla,,,,,,657.9346,659.2149,1,0,0.5358,,0,150,150,146,1,pseudoword,0,REAL,FALSA
,,,,,,,,,6674af2317df8226293b0b08,001,2024-06-30_06h03.04.524,empathy_intonation_perc,2024.1.4,Win32,2.307869836,,,,,,,,,,,,,,140,chorde,,,,,,659.2158,660.5083,1,0,0.2824,,0,151,151,139,1,pseudoword,0,REAL,FALSA
,,,,,,,,,6674af2317df8226293b0b08,001,2024-06-30_06h03.04.524,empathy_intonation_perc,2024.1.4,Win32,2.307869836,,,,,,,,,,,,,,28,ardor,,,,,,660.5089,661.4934,1,0,0.0122,,0,152,152,27,1,two_way_cognate,1,REAL,FALSA
,,,,,,,,,6674af2317df8226293b0b08,001,2024-06-30_06h03.04.524,empathy_intonation_perc,2024.1.4,Win32,2.307869836,,,,,,,,,,,,,,155,kugis,,,,,,661.4941,662.7732,1,0,0.5349,,0,153,153,154,1,pseudoword,0,REAL,FALSA
,,,,,,,,,6674af2317df8226293b0b08,001,2024-06-30_06h03.04.524,empathy_intonation_perc,2024.1.4,Win32,2.307869836,,,,,,,,,,,,,,121,barbs,,,,,,662.7737,663.7772,1,0,0.2628,,0,154,154,120,1,pseudoword,0,REAL,FALSA
,,,,,,,,,6674af2317df8226293b0b08,001,2024-06-30_06h03.04.524,empathy_intonation_perc,2024.1.4,Win32,2.307869836,,,,,,,,,,,,,,9,portal,,,,,,663.7778,665.1224,1,0,0.3341,0.0004,0,155,155,8,1,three_way_cognate,1,REAL,FALSA
,,,,,,,,,6674af2317df8226293b0b08,001,2024-06-30_06h03.04.524,empathy_intonation_perc,2024.1.4,Win32,2.307869836,,,,,,,,,,,,,,72,rostro,,,,,,665.1233,666.2411,1,0,0.2993,,0,156,156,71,1,non_cognate,1,REAL,FALSA
,,,,,,,,,6674af2317df8226293b0b08,001,2024-06-30_06h03.04.524,empathy_intonation_perc,2024.1.4,Win32,2.307869836,,,,,,,,,,,,,,123,arane,,,,,,666.2418,667.3951,0,1,0.2909,,0,157,157,122,1,pseudoword,0,REAL,FALSA
,,,,,,,,,6674af2317df8226293b0b08,001,2024-06-30_06h03.04.524,empathy_intonation_perc,2024.1.4,Win32,2.307869836,,,,,,,,,,,,,,11,golf,,,,,,667.3957,668.4029,1,0,0.0129,,0,158,158,10,1,three_way_cognate,1,REAL,FALSA
,,,,,,,,,6674af2317df8226293b0b08,001,2024-06-30_06h03.04.524,empathy_intonation_perc,2024.1.4,Win32,2.307869836,,,,,,,,,,,,,,95,listo,,,,,,668.4034,670.4867,0,1,1.0702,,0,159,159,94,1,non_cognate,1,REAL,FALSA
,,,,,,,,,6674af2317df8226293b0b08,001,2024-06-30_06h03.04.524,empathy_intonation_perc,2024.1.4,Win32,2.307869836,,,,,,,,,,,,,,127,vien,,,,,,670.4875,671.2571,1,0,0.0141,,0,160,160,126,1,pseudoword,0,REAL,FALSA
,,,,,,,,,6674af2317df8226293b0b08,001,2024-06-30_06h03.04.524,empathy_intonation_perc,2024.1.4,Win32,2.307869836,,,,,,,,,,,,,,20,trauma,,,,,,671.2583,672.3176,0,1,0.2691,,0,161,161,19,1,three_way_cognate,1,REAL,FALSA
,,,,,,,,,6674af2317df8226293b0b08,001,2024-06-30_06h03.04.524,empathy_intonation_perc,2024.1.4,Win32,2.307869836,,,,,,,,,,,,,,107,plago,,,,,,672.3184,674.1342,1,0,1.0376,,0,162,162,106,1,pseudoword,0,REAL,FALSA
,,,,,,,,,6674af2317df8226293b0b08,001,2024-06-30_06h03.04.524,empathy_intonation_perc,2024.1.4,Win32,2.307869836,,,,,,,,,,,,,,177,entodo,,,,,,674.1348,676.2411,1,0,1.0747,,0,163,163,176,1,pseudoword,0,REAL,FALSA
,,,,,,,,,6674af2317df8226293b0b08,001,2024-06-30_06h03.04.524,empathy_intonation_perc,2024.1.4,Win32,2.307869836,,,,,,,,,,,,,,18,altar,,,,,,676.2418,677.768,0,1,0.5353,,0,164,164,17,1,three_way_cognate,1,REAL,FALSA
,,,,,,,,,6674af2317df8226293b0b08,001,2024-06-30_06h03.04.524,empathy_intonation_perc,2024.1.4,Win32,2.307869836,,,,,,,,,,,,,,169,pitis,,,,,,677.7687,678.7882,0,1,0.2785,,0,165,165,168,1,pseudoword,0,REAL,FALSA
,,,,,,,,,6674af2317df8226293b0b08,001,2024-06-30_06h03.04.524,empathy_intonation_perc,2024.1.4,Win32,2.307869836,,,,,,,,,,,,,,148,gino,,,,,,678.7888,679.5822,1,0,0.012,,0,166,166,147,1,pseudoword,0,REAL,FALSA
,,,,,,,,,6674af2317df8226293b0b08,001,2024-06-30_06h03.04.524,empathy_intonation_perc,2024.1.4,Win32,2.307869836,,,,,,,,,,,,,,66,aleta,,,,,,679.5829,680.8469,1,0,0.266,,0,167,167,65,1,non_cognate,1,REAL,FALSA
,,,,,,,,,6674af2317df8226293b0b08,001,2024-06-30_06h03.04.524,empathy_intonation_perc,2024.1.4,Win32,2.307869836,,,,,,,,,,,,,,136,hueas,,,,,,680.8474,681.8494,1,0,0.011,,0,168,168,135,1,pseudoword,0,REAL,FALSA
,,,,,,,,,6674af2317df8226293b0b08,001,2024-06-30_06h03.04.524,empathy_intonation_perc,2024.1.4,Win32,2.307869836,,,,,,,,,,,,,,27,piano,,,,,,681.85,683.1102,1,0,0.2913,0.0002,0,169,169,26,1,two_way_cognate,1,REAL,FALSA
,,,,,,,,,6674af2317df8226293b0b08,001,2024-06-30_06h03.04.524,empathy_intonation_perc,2024.1.4,Win32,2.307869836,,,,,,,,,,,,,,144,diroco,,,,,,683.1109,683.8788,1,0,0.0129,0.0004,0,170,170,143,1,pseudoword,0,REAL,FALSA
,,,,,,,,,6674af2317df8226293b0b08,001,2024-06-30_06h03.04.524,empathy_intonation_perc,2024.1.4,Win32,2.307869836,,,,,,,,,,,,,,79,suelo,,,,,,683.88,685.1474,1,0,0.2642,,0,171,171,78,1,non_cognate,1,REAL,FALSA
,,,,,,,,,6674af2317df8226293b0b08,001,2024-06-30_06h03.04.524,empathy_intonation_perc,2024.1.4,Win32,2.307869836,,,,,,,,,,,,,,14,aura,,,,,,685.1479,685.9239,1,0,0.0114,,0,172,172,13,1,three_way_cognate,1,REAL,FALSA
,,,,,,,,,6674af2317df8226293b0b08,001,2024-06-30_06h03.04.524,empathy_intonation_perc,2024.1.4,Win32,2.307869836,,,,,,,,,,,,,,86,cuenco,,,,,,685.9244,686.6849,1,0,0.0115,,0,173,173,85,1,non_cognate,1,REAL,FALSA
,,,,,,,,,6674af2317df8226293b0b08,001,2024-06-30_06h03.04.524,empathy_intonation_perc,2024.1.4,Win32,2.307869836,,,,,,,,,,,,,,165,chote,,,,,,686.6853,688.2062,1,0,0.5184,,0,174,174,164,1,pseudoword,0,REAL,FALSA
,,,,,,,,,6674af2317df8226293b0b08,001,2024-06-30_06h03.04.524,empathy_intonation_perc,2024.1.4,Win32,2.307869836,,,,,,,,,,,,,,145,rúo,,,,,,688.2067,689.2062,1,0,0.0113,,0,175,175,144,1,pseudoword,0,REAL,FALSA
,,,,,,,,,6674af2317df8226293b0b08,001,2024-06-30_06h03.04.524,empathy_intonation_perc,2024.1.4,Win32,2.307869836,,,,,,,,,,,,,,191,frasis,,,,,,689.2068,690.2366,1,0,0.2691,,0,176,176,190,1,pseudoword,0,REAL,FALSA
,,,,,,,,,6674af2317df8226293b0b08,001,2024-06-30_06h03.04.524,empathy_intonation_perc,2024.1.4,Win32,2.307869836,,,,,,,,,,,,,,45,total,,,,,,690.2371,691.2108,1,0,0.0112,,0,177,177,44,1,two_way_cognate,1,REAL,FALSA
,,,,,,,,,6674af2317df8226293b0b08,001,2024-06-30_06h03.04.524,empathy_intonation_perc,2024.1.4,Win32,2.307869836,,,,,,,,,,,,,,15,test,,,,,,691.2113,692.2218,1,0,0.0108,,0,178,178,14,1,three_way_cognate,1,REAL,FALSA
,,,,,,,,,6674af2317df8226293b0b08,001,2024-06-30_06h03.04.524,empathy_intonation_perc,2024.1.4,Win32,2.307869836,,,,,,,,,,,,,,138,tator,,,,,,692.2223,693.2049,1,0,0.0111,,0,179,179,137,1,pseudoword,0,REAL,FALSA
,,,,,,,,,6674af2317df8226293b0b08,001,2024-06-30_06h03.04.524,empathy_intonation_perc,2024.1.4,Win32,2.307869836,,,,,,,,,,,,,,92,flecha,,,,,,693.2053,694.73,1,0,0.5346,,0,180,180,91,1,non_cognate,1,REAL,FALSA
,,,,,,,,,6674af2317df8226293b0b08,001,2024-06-30_06h03.04.524,empathy_intonation_perc,2024.1.4,Win32,2.307869836,,,,,,,,,,,,,,73,llevar,,,,,,694.7306,695.7379,1,0,0.0123,,0,181,181,72,1,non_cognate,1,REAL,FALSA
,,,,,,,,,6674af2317df8226293b0b08,001,2024-06-30_06h03.04.524,empathy_intonation_perc,2024.1.4,Win32,2.307869836,,,,,,,,,,,,,,110,densó,,,,,,695.7383,696.7704,0,1,0.2621,,0,182,182,109,1,pseudoword,0,REAL,FALSA
,,,,,,,,,6674af2317df8226293b0b08,001,2024-06-30_06h03.04.524,empathy_intonation_perc,2024.1.4,Win32,2.307869836,,,,,,,,,,,,,,94,forro,,,,,,696.7708,698.556,0,1,0.809,0.0006,0,183,183,93,1,non_cognate,1,REAL,FALSA
,,,,,,,,,6674af2317df8226293b0b08,001,2024-06-30_06h03.04.524,empathy_intonation_perc,2024.1.4,Win32,2.307869836,,,,,,,,,,,,,,54,tapón,,,,,,698.5567,699.5629,1,0,0.0115,,0,184,184,53,1,non_cognate,1,REAL,FALSA
,,,,,,,,,6674af2317df8226293b0b08,001,2024-06-30_06h03.04.524,empathy_intonation_perc,2024.1.4,Win32,2.307869836,,,,,,,,,,,,,,143,hurcos,,,,,,699.5636,700.5608,0,1,0.0108,,0,185,185,142,1,pseudoword,0,REAL,FALSA
,,,,,,,,,6674af2317df8226293b0b08,001,2024-06-30_06h03.04.524,empathy_intonation_perc,2024.1.4,Win32,2.307869836,,,,,,,,,,,,,,16,chat,,,,,,700.5615,701.5781,1,0,0.0107,,0,186,186,15,1,three_way_cognate,1,REAL,FALSA
,,,,,,,,,6674af2317df8226293b0b08,001,2024-06-30_06h03.04.524,empathy_intonation_perc,2024.1.4,Win32,2.307869836,,,,,,,,,,,,,,30,fiscal,,,,,,701.5787,703.6186,1,0,1.0549,,0,187,187,29,1,two_way_cognate,1,REAL,FALSA
,,,,,,,,,6674af2317df8226293b0b08,001,2024-06-30_06h03.04.524,empathy_intonation_perc,2024.1.4,Win32,2.307869836,,,,,,,,,,,,,,117,morrá,,,,,,703.6192,704.638,0,1,0.266,,0,188,188,116,1,pseudoword,0,REAL,FALSA
,,,,,,,,,6674af2317df8226293b0b08,001,2024-06-30_06h03.04.524,empathy_intonation_perc,2024.1.4,Win32,2.307869836,,,,,,,,,,,,,,126,tobre,,,,,,704.6388,706.2116,0,1,0.5556,,0,189,189,125,1,pseudoword,0,REAL,FALSA
,,,,,,,,,6674af2317df8226293b0b08,001,2024-06-30_06h03.04.524,empathy_intonation_perc,2024.1.4,Win32,2.307869836,,,,,,,,,,,,,,108,jauda,,,,,,706.2124,708.0306,1,0,0.8012,0.0005,0,190,190,107,1,pseudoword,0,REAL,FALSA
,,,,,,,,,6674af2317df8226293b0b08,001,2024-06-30_06h03.04.524,empathy_intonation_perc,2024.1.4,Win32,2.307869836,,,,,,,,,,,,,,173,mibro,,,,,,708.0312,709.325,1,0,0.5371,,0,191,191,172,1,pseudoword,0,REAL,FALSA
