lextale_instructions.started,lextale_instructions.stopped,lextale_instructions_loop.thisRepN,lextale_instructions_loop.thisTrialN,lextale_instructions_loop.thisN,lextale_instructions_loop.thisIndex,lextale_instructions_loop.ran,instructions_text,continue_text,participant,session,date,expName,psychopyVersion,OS,frameRate,lextale_practice.started,lextale_practice.stopped,key_resp_lextale_practice.keys,key_resp_lextale_practice.corr,key_resp_lextale_practice.rt,key_resp_lextale_practice.duration,lextale_practice_feedback.started,lextale_practice_feedback.stopped,lextale_practice_trials.thisRepN,lextale_practice_trials.thisTrialN,lextale_practice_trials.thisN,lextale_practice_trials.thisIndex,lextale_practice_trials.ran,stim,word,correct_response,prac_button_real,prac_button_false,lextale_check.started,lextale_check.stopped,lextale_trial.started,lextale_trial.stopped,key_resp_lextale_trial.keys,key_resp_lextale_trial.corr,key_resp_lextale_trial.rt,key_resp_lextale_trial.duration,lextail_trials.thisRepN,lextail_trials.thisTrialN,lextail_trials.thisN,lextail_trials.thisIndex,lextail_trials.ran,type,correct_reponse,button_real,button_false
0.0027,4.9202,0,0,0,0,1,"Este es un test de vocabulario en español. 
  
  A continuación vas a ver 90 secuencias de letras que parecen 'españolas'.
  
  Solo algunas de ellas son palabras de verdad.",(presiona la barra espaciadora para continuar),667d9f96ba63190f173dfb0c,001,2024-06-30_05h06.37.774,empathy_intonation_perc,2024.1.4,MacIntel,61.34969325,,,,,,,,,,,,,,,,,,,,,,,,,,,,,,,,,,,
4.9211,10.3855,0,1,1,1,1,"Por favor, señala las palabras que tú conoces (aquellas que estás convencido que son palabras españolas, incluso aunque no seas capaz de dar el significado preciso).",(presiona la barra espaciadora para continuar),667d9f96ba63190f173dfb0c,001,2024-06-30_05h06.37.774,empathy_intonation_perc,2024.1.4,MacIntel,61.34969325,,,,,,,,,,,,,,,,,,,,,,,,,,,,,,,,,,,
10.386,24.4845,0,2,2,2,1,Pero cuidado: los errores se penalizan. Por eso no tiene sentido tratar de incrementar tu puntuación marcando como reales palabras que nunca has visto.,(presiona la barra espaciadora para continuar),667d9f96ba63190f173dfb0c,001,2024-06-30_05h06.37.774,empathy_intonation_perc,2024.1.4,MacIntel,61.34969325,,,,,,,,,,,,,,,,,,,,,,,,,,,,,,,,,,,
24.4851,29.7855,0,3,3,3,1,"Presiona la tecla 1 si piensas que es una palabra real y la tecla 
  0 si piensas que es una palabra falsa. 
  
  Vamos a practicar un poco...",(presiona la barra espaciadora para continuar),667d9f96ba63190f173dfb0c,001,2024-06-30_05h06.37.774,empathy_intonation_perc,2024.1.4,MacIntel,61.34969325,,,,,,,,,,,,,,,,,,,,,,,,,,,,,,,,,,,
,,,,,,,,,667d9f96ba63190f173dfb0c,001,2024-06-30_05h06.37.774,empathy_intonation_perc,2024.1.4,MacIntel,61.34969325,29.7888,35.1359,1,0,4.8139,,35.1362,36.1353,0,0,0,0,1,0,depiste,0,REAL,FALSA,,,,,,,,,,,,,,,,,
,,,,,,,,,667d9f96ba63190f173dfb0c,001,2024-06-30_05h06.37.774,empathy_intonation_perc,2024.1.4,MacIntel,61.34969325,36.1364,37.851,1,1,1.1811,,37.8511,38.8517,0,1,1,1,1,0,sí,1,REAL,FALSA,,,,,,,,,,,,,,,,,
,,,,,,,,,667d9f96ba63190f173dfb0c,001,2024-06-30_05h06.37.774,empathy_intonation_perc,2024.1.4,MacIntel,61.34969325,38.8524,41.3517,1,0,1.9699,,41.3519,42.3516,0,2,2,2,1,0,coné,0,REAL,FALSA,,,,,,,,,,,,,,,,,
,,,,,,,,,667d9f96ba63190f173dfb0c,001,2024-06-30_05h06.37.774,empathy_intonation_perc,2024.1.4,MacIntel,61.34969325,42.3523,44.9183,1,0,2.0324,,44.9184,45.9182,0,3,3,3,1,0,calpar,0,REAL,FALSA,,,,,,,,,,,,,,,,,
,,,,,,,,,667d9f96ba63190f173dfb0c,001,2024-06-30_05h06.37.774,empathy_intonation_perc,2024.1.4,MacIntel,61.34969325,45.9188,48.4517,0,1,2.0046,,48.4518,49.4513,0,4,4,4,1,0,joten,0,REAL,FALSA,,,,,,,,,,,,,,,,,
,,,,,,,,,667d9f96ba63190f173dfb0c,001,2024-06-30_05h06.37.774,empathy_intonation_perc,2024.1.4,MacIntel,61.34969325,49.4516,52.8681,1,1,2.8795,,52.8682,53.8675,0,5,5,5,1,0,sacapuntas,1,REAL,FALSA,,,,,,,,,,,,,,,,,
,,,,,,,,,667d9f96ba63190f173dfb0c,001,2024-06-30_05h06.37.774,empathy_intonation_perc,2024.1.4,MacIntel,61.34969325,53.8783,57.7183,0,1,3.3161,,57.7184,58.7182,0,6,6,6,1,0,priba,0,REAL,FALSA,,,,,,,,,,,,,,,,,
,,,,,,,,,667d9f96ba63190f173dfb0c,001,2024-06-30_05h06.37.774,empathy_intonation_perc,2024.1.4,MacIntel,61.34969325,58.7286,61.3348,0,1,2.0848,,61.3349,62.3339,0,7,7,7,1,0,pelasula,0,REAL,FALSA,,,,,,,,,,,,,,,,,
,,,,,,,,,667d9f96ba63190f173dfb0c,001,2024-06-30_05h06.37.774,empathy_intonation_perc,2024.1.4,MacIntel,61.34969325,62.3438,64.318,1,1,1.4481,,64.3181,65.318,0,8,8,8,1,0,bien,1,REAL,FALSA,,,,,,,,,,,,,,,,,
,,,,,,,,,667d9f96ba63190f173dfb0c,001,2024-06-30_05h06.37.774,empathy_intonation_perc,2024.1.4,MacIntel,61.34969325,65.3303,67.1346,1,1,1.2827,,67.1347,68.134,0,9,9,9,1,0,casa,1,REAL,FALSA,,,,,,,,,,,,,,,,,
,,,,,,,,,667d9f96ba63190f173dfb0c,001,2024-06-30_05h06.37.774,empathy_intonation_perc,2024.1.4,MacIntel,61.34969325,68.1346,75.8011,1,0,7.131,,75.8012,76.8011,0,10,10,10,1,0,lejo,0,REAL,FALSA,,,,,,,,,,,,,,,,,
,,,,,,,,,667d9f96ba63190f173dfb0c,001,2024-06-30_05h06.37.774,empathy_intonation_perc,2024.1.4,MacIntel,61.34969325,76.8115,80.3668,0,1,3.03,,80.3669,81.3677,0,11,11,11,1,0,pretantas,0,REAL,FALSA,,,,,,,,,,,,,,,,,
,,,,,,,,,667d9f96ba63190f173dfb0c,001,2024-06-30_05h06.37.774,empathy_intonation_perc,2024.1.4,MacIntel,61.34969325,,,,,,,,,,,,,,,,,,,81.3688,86.867,,,,,,,,,,,,,,,
,,,,,,,,,667d9f96ba63190f173dfb0c,001,2024-06-30_05h06.37.774,empathy_intonation_perc,2024.1.4,MacIntel,61.34969325,,,,,,,,,,,,,,158,babrá,,,,,,86.8866,94.4348,0,1,7.0132,,0,0,0,157,1,pseudoword,0,REAL,FALSA
,,,,,,,,,667d9f96ba63190f173dfb0c,001,2024-06-30_05h06.37.774,empathy_intonation_perc,2024.1.4,MacIntel,61.34969325,,,,,,,,,,,,,,120,mauja,,,,,,94.4448,99.184,0,1,4.2223,,0,1,1,119,1,pseudoword,0,REAL,FALSA
,,,,,,,,,667d9f96ba63190f173dfb0c,001,2024-06-30_05h06.37.774,empathy_intonation_perc,2024.1.4,MacIntel,61.34969325,,,,,,,,,,,,,,52,blando,,,,,,99.1933,104.8174,1,0,5.0981,,0,2,2,51,1,non_cognate,1,REAL,FALSA
,,,,,,,,,667d9f96ba63190f173dfb0c,001,2024-06-30_05h06.37.774,empathy_intonation_perc,2024.1.4,MacIntel,61.34969325,,,,,,,,,,,,,,176,gripar,,,,,,104.8272,106.3841,1,0,1.0308,,0,3,3,175,1,pseudoword,0,REAL,FALSA
,,,,,,,,,667d9f96ba63190f173dfb0c,001,2024-06-30_05h06.37.774,empathy_intonation_perc,2024.1.4,MacIntel,61.34969325,,,,,,,,,,,,,,72,rostro,,,,,,106.3846,108.2163,0,1,1.3,,0,4,4,71,1,non_cognate,1,REAL,FALSA
,,,,,,,,,667d9f96ba63190f173dfb0c,001,2024-06-30_05h06.37.774,empathy_intonation_perc,2024.1.4,MacIntel,61.34969325,,,,,,,,,,,,,,88,percha,,,,,,108.2168,110.1175,0,1,1.3655,,0,5,5,87,1,non_cognate,1,REAL,FALSA
,,,,,,,,,667d9f96ba63190f173dfb0c,001,2024-06-30_05h06.37.774,empathy_intonation_perc,2024.1.4,MacIntel,61.34969325,,,,,,,,,,,,,,152,prave,,,,,,110.118,112.9333,0,1,2.2821,,0,6,6,151,1,pseudoword,0,REAL,FALSA
,,,,,,,,,667d9f96ba63190f173dfb0c,001,2024-06-30_05h06.37.774,empathy_intonation_perc,2024.1.4,MacIntel,61.34969325,,,,,,,,,,,,,,103,vueras,,,,,,112.9338,115.7331,1,0,2.2817,,0,7,7,102,1,pseudoword,0,REAL,FALSA
,,,,,,,,,667d9f96ba63190f173dfb0c,001,2024-06-30_05h06.37.774,empathy_intonation_perc,2024.1.4,MacIntel,61.34969325,,,,,,,,,,,,,,58,colcha,,,,,,115.7431,117.9171,0,1,1.6475,,0,8,8,57,1,non_cognate,1,REAL,FALSA
,,,,,,,,,667d9f96ba63190f173dfb0c,001,2024-06-30_05h06.37.774,empathy_intonation_perc,2024.1.4,MacIntel,61.34969325,,,,,,,,,,,,,,127,vien,,,,,,117.9175,121.7005,0,1,3.2498,,0,9,9,126,1,pseudoword,0,REAL,FALSA
,,,,,,,,,667d9f96ba63190f173dfb0c,001,2024-06-30_05h06.37.774,empathy_intonation_perc,2024.1.4,MacIntel,61.34969325,,,,,,,,,,,,,,9,portal,,,,,,121.7107,124.2995,1,0,2.0653,,0,10,10,8,1,three_way_cognate,1,REAL,FALSA
,,,,,,,,,667d9f96ba63190f173dfb0c,001,2024-06-30_05h06.37.774,empathy_intonation_perc,2024.1.4,MacIntel,61.34969325,,,,,,,,,,,,,,49,teñir,,,,,,124.3001,126.3165,1,0,1.4977,,0,11,11,48,1,non_cognate,1,REAL,FALSA
,,,,,,,,,667d9f96ba63190f173dfb0c,001,2024-06-30_05h06.37.774,empathy_intonation_perc,2024.1.4,MacIntel,61.34969325,,,,,,,,,,,,,,18,altar,,,,,,126.3171,129.4503,1,0,2.5986,,0,12,12,17,1,three_way_cognate,1,REAL,FALSA
,,,,,,,,,667d9f96ba63190f173dfb0c,001,2024-06-30_05h06.37.774,empathy_intonation_perc,2024.1.4,MacIntel,61.34969325,,,,,,,,,,,,,,184,huenos,,,,,,129.4604,131.1002,1,0,1.1213,,0,13,13,183,1,pseudoword,0,REAL,FALSA
,,,,,,,,,667d9f96ba63190f173dfb0c,001,2024-06-30_05h06.37.774,empathy_intonation_perc,2024.1.4,MacIntel,61.34969325,,,,,,,,,,,,,,191,frasis,,,,,,131.1005,132.9336,0,1,1.2963,,0,14,14,190,1,pseudoword,0,REAL,FALSA
,,,,,,,,,667d9f96ba63190f173dfb0c,001,2024-06-30_05h06.37.774,empathy_intonation_perc,2024.1.4,MacIntel,61.34969325,,,,,,,,,,,,,,148,gino,,,,,,132.934,135.4835,0,1,2.021,,0,15,15,147,1,pseudoword,0,REAL,FALSA
,,,,,,,,,667d9f96ba63190f173dfb0c,001,2024-06-30_05h06.37.774,empathy_intonation_perc,2024.1.4,MacIntel,61.34969325,,,,,,,,,,,,,,180,pupica,,,,,,135.4928,137.9333,0,1,1.914,,0,16,16,179,1,pseudoword,0,REAL,FALSA
,,,,,,,,,667d9f96ba63190f173dfb0c,001,2024-06-30_05h06.37.774,empathy_intonation_perc,2024.1.4,MacIntel,61.34969325,,,,,,,,,,,,,,186,rizate,,,,,,137.9339,143.5836,0,1,5.1144,,0,17,17,185,1,pseudoword,0,REAL,FALSA
,,,,,,,,,667d9f96ba63190f173dfb0c,001,2024-06-30_05h06.37.774,empathy_intonation_perc,2024.1.4,MacIntel,61.34969325,,,,,,,,,,,,,,106,diebro,,,,,,143.5931,146.3001,0,1,2.1836,,0,18,18,105,1,pseudoword,0,REAL,FALSA
,,,,,,,,,667d9f96ba63190f173dfb0c,001,2024-06-30_05h06.37.774,empathy_intonation_perc,2024.1.4,MacIntel,61.34969325,,,,,,,,,,,,,,60,siglo,,,,,,146.3005,148.2168,1,0,1.3799,,0,19,19,59,1,non_cognate,1,REAL,FALSA
,,,,,,,,,667d9f96ba63190f173dfb0c,001,2024-06-30_05h06.37.774,empathy_intonation_perc,2024.1.4,MacIntel,61.34969325,,,,,,,,,,,,,,153,golla,,,,,,148.2173,149.8491,0,1,1.1003,,0,20,20,152,1,pseudoword,0,REAL,FALSA
,,,,,,,,,667d9f96ba63190f173dfb0c,001,2024-06-30_05h06.37.774,empathy_intonation_perc,2024.1.4,MacIntel,61.34969325,,,,,,,,,,,,,,68,puñal,,,,,,149.8496,152.2167,1,0,1.8487,,0,21,21,67,1,non_cognate,1,REAL,FALSA
,,,,,,,,,667d9f96ba63190f173dfb0c,001,2024-06-30_05h06.37.774,empathy_intonation_perc,2024.1.4,MacIntel,61.34969325,,,,,,,,,,,,,,190,asumie,,,,,,152.2175,155.2666,0,1,2.5138,,0,22,22,189,1,pseudoword,0,REAL,FALSA
,,,,,,,,,667d9f96ba63190f173dfb0c,001,2024-06-30_05h06.37.774,empathy_intonation_perc,2024.1.4,MacIntel,61.34969325,,,,,,,,,,,,,,50,sierra,,,,,,155.277,157.0666,1,0,1.2655,,0,23,23,49,1,non_cognate,1,REAL,FALSA
,,,,,,,,,667d9f96ba63190f173dfb0c,001,2024-06-30_05h06.37.774,empathy_intonation_perc,2024.1.4,MacIntel,61.34969325,,,,,,,,,,,,,,101,losco,,,,,,157.0671,186.6494,0,1,29.0496,,0,24,24,100,1,pseudoword,0,REAL,FALSA
,,,,,,,,,667d9f96ba63190f173dfb0c,001,2024-06-30_05h06.37.774,empathy_intonation_perc,2024.1.4,MacIntel,61.34969325,,,,,,,,,,,,,,44,editor,,,,,,186.6583,189.8985,1,0,2.7149,,0,25,25,43,1,two_way_cognate,1,REAL,FALSA
,,,,,,,,,667d9f96ba63190f173dfb0c,001,2024-06-30_05h06.37.774,empathy_intonation_perc,2024.1.4,MacIntel,61.34969325,,,,,,,,,,,,,,27,piano,,,,,,189.899,191.7494,1,0,1.3304,,0,26,26,26,1,two_way_cognate,1,REAL,FALSA
,,,,,,,,,667d9f96ba63190f173dfb0c,001,2024-06-30_05h06.37.774,empathy_intonation_perc,2024.1.4,MacIntel,61.34969325,,,,,,,,,,,,,,168,cobén,,,,,,191.7501,193.7659,1,0,1.4933,,0,27,27,167,1,pseudoword,0,REAL,FALSA
,,,,,,,,,667d9f96ba63190f173dfb0c,001,2024-06-30_05h06.37.774,empathy_intonation_perc,2024.1.4,MacIntel,61.34969325,,,,,,,,,,,,,,84,aviso,,,,,,193.766,195.9994,1,0,1.7006,,0,28,28,83,1,non_cognate,1,REAL,FALSA
,,,,,,,,,667d9f96ba63190f173dfb0c,001,2024-06-30_05h06.37.774,empathy_intonation_perc,2024.1.4,MacIntel,61.34969325,,,,,,,,,,,,,,189,medium,,,,,,196,198.0326,0,1,1.4954,,0,29,29,188,1,pseudoword,0,REAL,FALSA
,,,,,,,,,667d9f96ba63190f173dfb0c,001,2024-06-30_05h06.37.774,empathy_intonation_perc,2024.1.4,MacIntel,61.34969325,,,,,,,,,,,,,,31,civil,,,,,,198.0331,200.3162,0,1,1.7567,,0,30,30,30,1,two_way_cognate,1,REAL,FALSA
,,,,,,,,,667d9f96ba63190f173dfb0c,001,2024-06-30_05h06.37.774,empathy_intonation_perc,2024.1.4,MacIntel,61.34969325,,,,,,,,,,,,,,117,morrá,,,,,,200.3167,202.3827,1,0,1.5296,,0,31,31,116,1,pseudoword,0,REAL,FALSA
,,,,,,,,,667d9f96ba63190f173dfb0c,001,2024-06-30_05h06.37.774,empathy_intonation_perc,2024.1.4,MacIntel,61.34969325,,,,,,,,,,,,,,133,conso,,,,,,202.3836,205.616,0,1,2.7019,,0,32,32,132,1,pseudoword,0,REAL,FALSA
,,,,,,,,,667d9f96ba63190f173dfb0c,001,2024-06-30_05h06.37.774,empathy_intonation_perc,2024.1.4,MacIntel,61.34969325,,,,,,,,,,,,,,163,olzan,,,,,,205.6253,207.3161,1,0,1.1646,,0,33,33,162,1,pseudoword,0,REAL,FALSA
,,,,,,,,,667d9f96ba63190f173dfb0c,001,2024-06-30_05h06.37.774,empathy_intonation_perc,2024.1.4,MacIntel,61.34969325,,,,,,,,,,,,,,112,samón,,,,,,207.3166,209.8158,1,0,1.9658,,0,34,34,111,1,pseudoword,0,REAL,FALSA
,,,,,,,,,667d9f96ba63190f173dfb0c,001,2024-06-30_05h06.37.774,empathy_intonation_perc,2024.1.4,MacIntel,61.34969325,,,,,,,,,,,,,,77,suave,,,,,,209.8162,211.4148,1,0,1.0665,,0,35,35,76,1,non_cognate,1,REAL,FALSA
,,,,,,,,,667d9f96ba63190f173dfb0c,001,2024-06-30_05h06.37.774,empathy_intonation_perc,2024.1.4,MacIntel,61.34969325,,,,,,,,,,,,,,36,viable,,,,,,211.4152,213.5315,0,1,1.5881,,0,36,36,35,1,two_way_cognate,1,REAL,FALSA
,,,,,,,,,667d9f96ba63190f173dfb0c,001,2024-06-30_05h06.37.774,empathy_intonation_perc,2024.1.4,MacIntel,61.34969325,,,,,,,,,,,,,,71,torta,,,,,,213.532,215.1991,1,0,1.1484,,0,37,37,70,1,non_cognate,1,REAL,FALSA
,,,,,,,,,667d9f96ba63190f173dfb0c,001,2024-06-30_05h06.37.774,empathy_intonation_perc,2024.1.4,MacIntel,61.34969325,,,,,,,,,,,,,,160,fomeó,,,,,,215.1997,219.3826,1,0,3.647,,0,38,38,159,1,pseudoword,0,REAL,FALSA
,,,,,,,,,667d9f96ba63190f173dfb0c,001,2024-06-30_05h06.37.774,empathy_intonation_perc,2024.1.4,MacIntel,61.34969325,,,,,,,,,,,,,,145,rúo,,,,,,219.3922,221.5657,1,0,1.6499,,0,39,39,144,1,pseudoword,0,REAL,FALSA
,,,,,,,,,667d9f96ba63190f173dfb0c,001,2024-06-30_05h06.37.774,empathy_intonation_perc,2024.1.4,MacIntel,61.34969325,,,,,,,,,,,,,,45,total,,,,,,221.5664,223.399,1,0,1.2998,,0,40,40,44,1,two_way_cognate,1,REAL,FALSA
,,,,,,,,,667d9f96ba63190f173dfb0c,001,2024-06-30_05h06.37.774,empathy_intonation_perc,2024.1.4,MacIntel,61.34969325,,,,,,,,,,,,,,99,bugor,,,,,,223.3995,226.1823,0,1,2.2533,,0,41,41,98,1,pseudoword,0,REAL,FALSA
,,,,,,,,,667d9f96ba63190f173dfb0c,001,2024-06-30_05h06.37.774,empathy_intonation_perc,2024.1.4,MacIntel,61.34969325,,,,,,,,,,,,,,126,tobre,,,,,,226.183,228.6655,1,0,1.9477,,0,42,42,125,1,pseudoword,0,REAL,FALSA
,,,,,,,,,667d9f96ba63190f173dfb0c,001,2024-06-30_05h06.37.774,empathy_intonation_perc,2024.1.4,MacIntel,61.34969325,,,,,,,,,,,,,,95,listo,,,,,,228.666,230.2989,1,0,1.1031,,0,43,43,94,1,non_cognate,1,REAL,FALSA
,,,,,,,,,667d9f96ba63190f173dfb0c,001,2024-06-30_05h06.37.774,empathy_intonation_perc,2024.1.4,MacIntel,61.34969325,,,,,,,,,,,,,,79,suelo,,,,,,230.2995,232.0155,1,0,1.1815,,0,44,44,78,1,non_cognate,1,REAL,FALSA
,,,,,,,,,667d9f96ba63190f173dfb0c,001,2024-06-30_05h06.37.774,empathy_intonation_perc,2024.1.4,MacIntel,61.34969325,,,,,,,,,,,,,,32,animal,,,,,,232.016,237.1811,1,0,4.6308,,0,45,45,31,1,two_way_cognate,1,REAL,FALSA
,,,,,,,,,667d9f96ba63190f173dfb0c,001,2024-06-30_05h06.37.774,empathy_intonation_perc,2024.1.4,MacIntel,61.34969325,,,,,,,,,,,,,,108,jauda,,,,,,237.1919,239.1984,0,1,1.482,,0,46,46,107,1,pseudoword,0,REAL,FALSA
,,,,,,,,,667d9f96ba63190f173dfb0c,001,2024-06-30_05h06.37.774,empathy_intonation_perc,2024.1.4,MacIntel,61.34969325,,,,,,,,,,,,,,90,venado,,,,,,239.1989,274.4982,0,1,34.7653,,0,47,47,89,1,non_cognate,1,REAL,FALSA
,,,,,,,,,667d9f96ba63190f173dfb0c,001,2024-06-30_05h06.37.774,empathy_intonation_perc,2024.1.4,MacIntel,61.34969325,,,,,,,,,,,,,,115,lidena,,,,,,274.5071,276.5816,1,0,1.5484,,0,48,48,114,1,pseudoword,0,REAL,FALSA
,,,,,,,,,667d9f96ba63190f173dfb0c,001,2024-06-30_05h06.37.774,empathy_intonation_perc,2024.1.4,MacIntel,61.34969325,,,,,,,,,,,,,,80,cuenco,,,,,,276.5822,277.6638,1,0,0.5486,,0,49,49,79,1,non_cognate,1,REAL,FALSA
,,,,,,,,,667d9f96ba63190f173dfb0c,001,2024-06-30_05h06.37.774,empathy_intonation_perc,2024.1.4,MacIntel,61.34969325,,,,,,,,,,,,,,94,forro,,,,,,277.6642,278.7982,0,1,0.6165,,0,50,50,93,1,non_cognate,1,REAL,FALSA
,,,,,,,,,667d9f96ba63190f173dfb0c,001,2024-06-30_05h06.37.774,empathy_intonation_perc,2024.1.4,MacIntel,61.34969325,,,,,,,,,,,,,,54,tapón,,,,,,278.7986,280.0814,1,0,0.7508,,0,51,51,53,1,non_cognate,1,REAL,FALSA
,,,,,,,,,667d9f96ba63190f173dfb0c,001,2024-06-30_05h06.37.774,empathy_intonation_perc,2024.1.4,MacIntel,61.34969325,,,,,,,,,,,,,,111,monue,,,,,,280.0822,281.1981,0,1,0.5808,,0,52,52,110,1,pseudoword,0,REAL,FALSA
,,,,,,,,,667d9f96ba63190f173dfb0c,001,2024-06-30_05h06.37.774,empathy_intonation_perc,2024.1.4,MacIntel,61.34969325,,,,,,,,,,,,,,85,enorme,,,,,,281.1989,282.1814,0,1,0.4482,,0,53,53,84,1,non_cognate,1,REAL,FALSA
,,,,,,,,,667d9f96ba63190f173dfb0c,001,2024-06-30_05h06.37.774,empathy_intonation_perc,2024.1.4,MacIntel,61.34969325,,,,,,,,,,,,,,162,cengo,,,,,,282.182,283.4137,0,1,0.706,,0,54,54,161,1,pseudoword,0,REAL,FALSA
,,,,,,,,,667d9f96ba63190f173dfb0c,001,2024-06-30_05h06.37.774,empathy_intonation_perc,2024.1.4,MacIntel,61.34969325,,,,,,,,,,,,,,56,pico,,,,,,283.4143,284.248,1,0,0.3146,,0,55,55,55,1,non_cognate,1,REAL,FALSA
,,,,,,,,,667d9f96ba63190f173dfb0c,001,2024-06-30_05h06.37.774,empathy_intonation_perc,2024.1.4,MacIntel,61.34969325,,,,,,,,,,,,,,87,muleta,,,,,,284.2487,285.5647,0,1,0.7892,,0,56,56,86,1,non_cognate,1,REAL,FALSA
,,,,,,,,,667d9f96ba63190f173dfb0c,001,2024-06-30_05h06.37.774,empathy_intonation_perc,2024.1.4,MacIntel,61.34969325,,,,,,,,,,,,,,134,molor,,,,,,285.565,287.2147,0,1,1.1142,,0,57,57,133,1,pseudoword,0,REAL,FALSA
,,,,,,,,,667d9f96ba63190f173dfb0c,001,2024-06-30_05h06.37.774,empathy_intonation_perc,2024.1.4,MacIntel,61.34969325,,,,,,,,,,,,,,28,ardor,,,,,,287.2155,288.498,1,0,0.748,,0,58,58,27,1,two_way_cognate,1,REAL,FALSA
,,,,,,,,,667d9f96ba63190f173dfb0c,001,2024-06-30_05h06.37.774,empathy_intonation_perc,2024.1.4,MacIntel,61.34969325,,,,,,,,,,,,,,188,amplir,,,,,,288.4986,289.7648,1,0,0.7323,,0,59,59,187,1,pseudoword,0,REAL,FALSA
,,,,,,,,,667d9f96ba63190f173dfb0c,001,2024-06-30_05h06.37.774,empathy_intonation_perc,2024.1.4,MacIntel,61.34969325,,,,,,,,,,,,,,24,retina,,,,,,289.7651,291.3806,0,1,1.0819,,0,60,60,23,1,three_way_cognate,1,REAL,FALSA
,,,,,,,,,667d9f96ba63190f173dfb0c,001,2024-06-30_05h06.37.774,empathy_intonation_perc,2024.1.4,MacIntel,61.34969325,,,,,,,,,,,,,,132,nocó,,,,,,291.3812,293.4147,1,0,1.5072,,0,61,61,131,1,pseudoword,0,REAL,FALSA
,,,,,,,,,667d9f96ba63190f173dfb0c,001,2024-06-30_05h06.37.774,empathy_intonation_perc,2024.1.4,MacIntel,61.34969325,,,,,,,,,,,,,,2,tumor,,,,,,293.4151,295.1136,0,1,1.1645,,0,62,62,1,1,three_way_cognate,1,REAL,FALSA
,,,,,,,,,667d9f96ba63190f173dfb0c,001,2024-06-30_05h06.37.774,empathy_intonation_perc,2024.1.4,MacIntel,61.34969325,,,,,,,,,,,,,,59,feo,,,,,,295.1141,296.5144,1,0,0.8882,,0,63,63,58,1,non_cognate,1,REAL,FALSA
,,,,,,,,,667d9f96ba63190f173dfb0c,001,2024-06-30_05h06.37.774,empathy_intonation_perc,2024.1.4,MacIntel,61.34969325,,,,,,,,,,,,,,38,halo,,,,,,296.515,299.1468,0,1,2.0984,,0,64,64,37,1,two_way_cognate,1,REAL,FALSA
,,,,,,,,,667d9f96ba63190f173dfb0c,001,2024-06-30_05h06.37.774,empathy_intonation_perc,2024.1.4,MacIntel,61.34969325,,,,,,,,,,,,,,34,actor,,,,,,299.1568,300.7977,1,0,1.1205,,0,65,65,33,1,two_way_cognate,1,REAL,FALSA
,,,,,,,,,667d9f96ba63190f173dfb0c,001,2024-06-30_05h06.37.774,empathy_intonation_perc,2024.1.4,MacIntel,61.34969325,,,,,,,,,,,,,,47,color,,,,,,300.7983,303.5478,1,0,2.2141,,0,66,66,46,1,two_way_cognate,1,REAL,FALSA
,,,,,,,,,667d9f96ba63190f173dfb0c,001,2024-06-30_05h06.37.774,empathy_intonation_perc,2024.1.4,MacIntel,61.34969325,,,,,,,,,,,,,,78,rendir,,,,,,303.5484,304.9312,1,0,0.8497,,0,67,67,77,1,non_cognate,1,REAL,FALSA
,,,,,,,,,667d9f96ba63190f173dfb0c,001,2024-06-30_05h06.37.774,empathy_intonation_perc,2024.1.4,MacIntel,61.34969325,,,,,,,,,,,,,,29,clamor,,,,,,304.9318,336.7473,1,0,31.2809,,0,68,68,28,1,two_way_cognate,1,REAL,FALSA
,,,,,,,,,667d9f96ba63190f173dfb0c,001,2024-06-30_05h06.37.774,empathy_intonation_perc,2024.1.4,MacIntel,61.34969325,,,,,,,,,,,,,,74,ala,,,,,,336.7578,337.8806,1,0,0.5978,,0,69,69,73,1,non_cognate,1,REAL,FALSA
,,,,,,,,,667d9f96ba63190f173dfb0c,001,2024-06-30_05h06.37.774,empathy_intonation_perc,2024.1.4,MacIntel,61.34969325,,,,,,,,,,,,,,43,honor,,,,,,337.8812,340.1471,0,1,1.7305,,0,70,70,42,1,two_way_cognate,1,REAL,FALSA
,,,,,,,,,667d9f96ba63190f173dfb0c,001,2024-06-30_05h06.37.774,empathy_intonation_perc,2024.1.4,MacIntel,61.34969325,,,,,,,,,,,,,,86,cuenco,,,,,,340.1476,362.1797,1,0,21.5017,,0,71,71,85,1,non_cognate,1,REAL,FALSA
,,,,,,,,,667d9f96ba63190f173dfb0c,001,2024-06-30_05h06.37.774,empathy_intonation_perc,2024.1.4,MacIntel,61.34969325,,,,,,,,,,,,,,138,tator,,,,,,362.1878,364.3635,0,1,1.6543,,0,72,72,137,1,pseudoword,0,REAL,FALSA
,,,,,,,,,667d9f96ba63190f173dfb0c,001,2024-06-30_05h06.37.774,empathy_intonation_perc,2024.1.4,MacIntel,61.34969325,,,,,,,,,,,,,,63,hilo,,,,,,364.3639,366.13,0,1,1.2322,,0,73,73,62,1,non_cognate,1,REAL,FALSA
,,,,,,,,,667d9f96ba63190f173dfb0c,001,2024-06-30_05h06.37.774,empathy_intonation_perc,2024.1.4,MacIntel,61.34969325,,,,,,,,,,,,,,187,nomata,,,,,,366.1306,367.8968,1,0,1.2388,,0,74,74,186,1,pseudoword,0,REAL,FALSA
,,,,,,,,,667d9f96ba63190f173dfb0c,001,2024-06-30_05h06.37.774,empathy_intonation_perc,2024.1.4,MacIntel,61.34969325,,,,,,,,,,,,,,89,muñeca,,,,,,367.8972,369.3633,1,0,0.9315,,0,75,75,88,1,non_cognate,1,REAL,FALSA
,,,,,,,,,667d9f96ba63190f173dfb0c,001,2024-06-30_05h06.37.774,empathy_intonation_perc,2024.1.4,MacIntel,61.34969325,,,,,,,,,,,,,,46,mortal,,,,,,369.364,371.0968,0,1,1.2002,,0,76,76,45,1,two_way_cognate,1,REAL,FALSA
,,,,,,,,,667d9f96ba63190f173dfb0c,001,2024-06-30_05h06.37.774,empathy_intonation_perc,2024.1.4,MacIntel,61.34969325,,,,,,,,,,,,,,174,pabea,,,,,,371.0971,372.2967,0,1,0.6637,,0,77,77,173,1,pseudoword,0,REAL,FALSA
,,,,,,,,,667d9f96ba63190f173dfb0c,001,2024-06-30_05h06.37.774,empathy_intonation_perc,2024.1.4,MacIntel,61.34969325,,,,,,,,,,,,,,19,mafia,,,,,,372.2972,373.9468,0,1,1.1188,,0,78,78,18,1,three_way_cognate,1,REAL,FALSA
,,,,,,,,,667d9f96ba63190f173dfb0c,001,2024-06-30_05h06.37.774,empathy_intonation_perc,2024.1.4,MacIntel,61.34969325,,,,,,,,,,,,,,144,diroco,,,,,,373.9473,375.4456,0,1,0.9662,,0,79,79,143,1,pseudoword,0,REAL,FALSA
,,,,,,,,,667d9f96ba63190f173dfb0c,001,2024-06-30_05h06.37.774,empathy_intonation_perc,2024.1.4,MacIntel,61.34969325,,,,,,,,,,,,,,165,chote,,,,,,375.446,377.1634,0,1,1.1991,,0,80,80,164,1,pseudoword,0,REAL,FALSA
,,,,,,,,,667d9f96ba63190f173dfb0c,001,2024-06-30_05h06.37.774,empathy_intonation_perc,2024.1.4,MacIntel,61.34969325,,,,,,,,,,,,,,192,próces,,,,,,377.1639,378.7456,1,0,1.0498,,0,81,81,191,1,pseudoword,0,REAL,FALSA
,,,,,,,,,667d9f96ba63190f173dfb0c,001,2024-06-30_05h06.37.774,empathy_intonation_perc,2024.1.4,MacIntel,61.34969325,,,,,,,,,,,,,,66,aleta,,,,,,378.7462,380.0134,1,0,0.7485,,0,82,82,65,1,non_cognate,1,REAL,FALSA
,,,,,,,,,667d9f96ba63190f173dfb0c,001,2024-06-30_05h06.37.774,empathy_intonation_perc,2024.1.4,MacIntel,61.34969325,,,,,,,,,,,,,,37,torso,,,,,,380.0139,383.2799,0,1,2.735,,0,83,83,36,1,two_way_cognate,1,REAL,FALSA
,,,,,,,,,667d9f96ba63190f173dfb0c,001,2024-06-30_05h06.37.774,empathy_intonation_perc,2024.1.4,MacIntel,61.34969325,,,,,,,,,,,,,,171,gotro,,,,,,383.2893,384.9798,1,0,1.1656,,0,84,84,170,1,pseudoword,0,REAL,FALSA
,,,,,,,,,667d9f96ba63190f173dfb0c,001,2024-06-30_05h06.37.774,empathy_intonation_perc,2024.1.4,MacIntel,61.34969325,,,,,,,,,,,,,,164,tecia,,,,,,384.9806,386.7465,0,1,1.2346,,0,85,85,163,1,pseudoword,0,REAL,FALSA
,,,,,,,,,667d9f96ba63190f173dfb0c,001,2024-06-30_05h06.37.774,empathy_intonation_perc,2024.1.4,MacIntel,61.34969325,,,,,,,,,,,,,,155,kugis,,,,,,386.7471,388.1132,0,1,0.835,,0,86,86,154,1,pseudoword,0,REAL,FALSA
,,,,,,,,,667d9f96ba63190f173dfb0c,001,2024-06-30_05h06.37.774,empathy_intonation_perc,2024.1.4,MacIntel,61.34969325,,,,,,,,,,,,,,131,fuar,,,,,,388.1137,389.4465,0,1,0.8039,,0,87,87,130,1,pseudoword,0,REAL,FALSA
,,,,,,,,,667d9f96ba63190f173dfb0c,001,2024-06-30_05h06.37.774,empathy_intonation_perc,2024.1.4,MacIntel,61.34969325,,,,,,,,,,,,,,137,trugo,,,,,,389.4471,391.0465,1,0,1.0665,,0,88,88,136,1,pseudoword,0,REAL,FALSA
,,,,,,,,,667d9f96ba63190f173dfb0c,001,2024-06-30_05h06.37.774,empathy_intonation_perc,2024.1.4,MacIntel,61.34969325,,,,,,,,,,,,,,13,plan,,,,,,391.047,393.2631,0,1,1.6884,,0,89,89,12,1,three_way_cognate,1,REAL,FALSA
,,,,,,,,,667d9f96ba63190f173dfb0c,001,2024-06-30_05h06.37.774,empathy_intonation_perc,2024.1.4,MacIntel,61.34969325,,,,,,,,,,,,,,39,casual,,,,,,393.2634,395.2298,0,1,1.4309,,0,90,90,38,1,two_way_cognate,1,REAL,FALSA
,,,,,,,,,667d9f96ba63190f173dfb0c,001,2024-06-30_05h06.37.774,empathy_intonation_perc,2024.1.4,MacIntel,61.34969325,,,,,,,,,,,,,,113,nasce,,,,,,395.2305,396.7798,0,1,1.0156,,0,91,91,112,1,pseudoword,0,REAL,FALSA
,,,,,,,,,667d9f96ba63190f173dfb0c,001,2024-06-30_05h06.37.774,empathy_intonation_perc,2024.1.4,MacIntel,61.34969325,,,,,,,,,,,,,,12,dogma,,,,,,396.7806,398.563,0,1,1.2532,,0,92,92,11,1,three_way_cognate,1,REAL,FALSA
,,,,,,,,,667d9f96ba63190f173dfb0c,001,2024-06-30_05h06.37.774,empathy_intonation_perc,2024.1.4,MacIntel,61.34969325,,,,,,,,,,,,,,51,listo,,,,,,398.5633,400.1954,1,0,1.0979,,0,93,93,50,1,non_cognate,1,REAL,FALSA
,,,,,,,,,667d9f96ba63190f173dfb0c,001,2024-06-30_05h06.37.774,empathy_intonation_perc,2024.1.4,MacIntel,61.34969325,,,,,,,,,,,,,,136,hueas,,,,,,400.1959,401.7796,1,0,1.0645,,0,94,94,135,1,pseudoword,0,REAL,FALSA
,,,,,,,,,667d9f96ba63190f173dfb0c,001,2024-06-30_05h06.37.774,empathy_intonation_perc,2024.1.4,MacIntel,61.34969325,,,,,,,,,,,,,,129,vinzó,,,,,,401.78,403.3461,0,1,1.0386,,0,95,95,128,1,pseudoword,0,REAL,FALSA
,,,,,,,,,667d9f96ba63190f173dfb0c,001,2024-06-30_05h06.37.774,empathy_intonation_perc,2024.1.4,MacIntel,61.34969325,,,,,,,,,,,,,,140,chorde,,,,,,403.3465,405.7286,0,1,1.8477,,0,96,96,139,1,pseudoword,0,REAL,FALSA
,,,,,,,,,667d9f96ba63190f173dfb0c,001,2024-06-30_05h06.37.774,empathy_intonation_perc,2024.1.4,MacIntel,61.34969325,,,,,,,,,,,,,,97,nocita,,,,,,405.7291,408.1794,1,0,1.9329,,0,97,97,96,1,pseudoword,0,REAL,FALSA
,,,,,,,,,667d9f96ba63190f173dfb0c,001,2024-06-30_05h06.37.774,empathy_intonation_perc,2024.1.4,MacIntel,61.34969325,,,,,,,,,,,,,,73,llevar,,,,,,408.18,409.7962,1,0,1.0812,,0,98,98,72,1,non_cognate,1,REAL,FALSA
,,,,,,,,,667d9f96ba63190f173dfb0c,001,2024-06-30_05h06.37.774,empathy_intonation_perc,2024.1.4,MacIntel,61.34969325,,,,,,,,,,,,,,130,dubo,,,,,,409.7968,411.5794,1,0,1.2478,,0,99,99,129,1,pseudoword,0,REAL,FALSA
,,,,,,,,,667d9f96ba63190f173dfb0c,001,2024-06-30_05h06.37.774,empathy_intonation_perc,2024.1.4,MacIntel,61.34969325,,,,,,,,,,,,,,118,bará,,,,,,411.5798,413.5461,1,0,1.4318,,0,100,100,117,1,pseudoword,0,REAL,FALSA
,,,,,,,,,667d9f96ba63190f173dfb0c,001,2024-06-30_05h06.37.774,empathy_intonation_perc,2024.1.4,MacIntel,61.34969325,,,,,,,,,,,,,,175,tradía,,,,,,413.5468,415.7462,1,0,1.666,,0,101,101,174,1,pseudoword,0,REAL,FALSA
,,,,,,,,,667d9f96ba63190f173dfb0c,001,2024-06-30_05h06.37.774,empathy_intonation_perc,2024.1.4,MacIntel,61.34969325,,,,,,,,,,,,,,76,chocar,,,,,,415.7468,417.4784,1,0,1.2038,,0,102,102,75,1,non_cognate,1,REAL,FALSA
,,,,,,,,,667d9f96ba63190f173dfb0c,001,2024-06-30_05h06.37.774,empathy_intonation_perc,2024.1.4,MacIntel,61.34969325,,,,,,,,,,,,,,81,sacar,,,,,,417.479,419.1125,1,0,1.0978,,0,103,103,80,1,non_cognate,1,REAL,FALSA
,,,,,,,,,667d9f96ba63190f173dfb0c,001,2024-06-30_05h06.37.774,empathy_intonation_perc,2024.1.4,MacIntel,61.34969325,,,,,,,,,,,,,,139,sasos,,,,,,419.1127,420.9117,0,1,1.2672,,0,104,104,138,1,pseudoword,0,REAL,FALSA
,,,,,,,,,667d9f96ba63190f173dfb0c,001,2024-06-30_05h06.37.774,empathy_intonation_perc,2024.1.4,MacIntel,61.34969325,,,,,,,,,,,,,,65,guerra,,,,,,420.9121,422.7284,1,0,1.3016,,0,105,105,64,1,non_cognate,1,REAL,FALSA
,,,,,,,,,667d9f96ba63190f173dfb0c,001,2024-06-30_05h06.37.774,empathy_intonation_perc,2024.1.4,MacIntel,61.34969325,,,,,,,,,,,,,,33,collar,,,,,,422.7292,425.2126,0,1,1.9473,,0,106,106,32,1,two_way_cognate,1,REAL,FALSA
,,,,,,,,,667d9f96ba63190f173dfb0c,001,2024-06-30_05h06.37.774,empathy_intonation_perc,2024.1.4,MacIntel,61.34969325,,,,,,,,,,,,,,170,diabo,,,,,,425.2132,428.996,1,0,3.2543,,0,107,107,169,1,pseudoword,0,REAL,FALSA
,,,,,,,,,667d9f96ba63190f173dfb0c,001,2024-06-30_05h06.37.774,empathy_intonation_perc,2024.1.4,MacIntel,61.34969325,,,,,,,,,,,,,,178,inichó,,,,,,429.0057,431.3793,0,1,1.848,,0,108,108,177,1,pseudoword,0,REAL,FALSA
,,,,,,,,,667d9f96ba63190f173dfb0c,001,2024-06-30_05h06.37.774,empathy_intonation_perc,2024.1.4,MacIntel,61.34969325,,,,,,,,,,,,,,75,patada,,,,,,431.3802,448.9613,1,0,17.0476,,0,109,109,74,1,non_cognate,1,REAL,FALSA
,,,,,,,,,667d9f96ba63190f173dfb0c,001,2024-06-30_05h06.37.774,empathy_intonation_perc,2024.1.4,MacIntel,61.34969325,,,,,,,,,,,,,,166,anfia,,,,,,448.9717,450.8789,0,1,1.3823,,0,110,110,165,1,pseudoword,0,REAL,FALSA
,,,,,,,,,667d9f96ba63190f173dfb0c,001,2024-06-30_05h06.37.774,empathy_intonation_perc,2024.1.4,MacIntel,61.34969325,,,,,,,,,,,,,,10,drama,,,,,,450.8794,452.712,0,1,1.3005,,0,111,111,9,1,three_way_cognate,1,REAL,FALSA
,,,,,,,,,667d9f96ba63190f173dfb0c,001,2024-06-30_05h06.37.774,empathy_intonation_perc,2024.1.4,MacIntel,61.34969325,,,,,,,,,,,,,,167,dobbo,,,,,,452.7124,454.1948,0,1,0.9529,,0,112,112,166,1,pseudoword,0,REAL,FALSA
,,,,,,,,,667d9f96ba63190f173dfb0c,001,2024-06-30_05h06.37.774,empathy_intonation_perc,2024.1.4,MacIntel,61.34969325,,,,,,,,,,,,,,104,estulo,,,,,,454.1952,456.1621,1,0,1.4486,,0,113,113,103,1,pseudoword,0,REAL,FALSA
,,,,,,,,,667d9f96ba63190f173dfb0c,001,2024-06-30_05h06.37.774,empathy_intonation_perc,2024.1.4,MacIntel,61.34969325,,,,,,,,,,,,,,42,rumor,,,,,,456.1629,458.6454,0,1,1.9483,,0,114,114,41,1,two_way_cognate,1,REAL,FALSA
,,,,,,,,,667d9f96ba63190f173dfb0c,001,2024-06-30_05h06.37.774,empathy_intonation_perc,2024.1.4,MacIntel,61.34969325,,,,,,,,,,,,,,141,virios,,,,,,458.6461,460.1946,0,1,1.0222,,0,115,115,140,1,pseudoword,0,REAL,FALSA
,,,,,,,,,667d9f96ba63190f173dfb0c,001,2024-06-30_05h06.37.774,empathy_intonation_perc,2024.1.4,MacIntel,61.34969325,,,,,,,,,,,,,,8,kilo,,,,,,460.195,463.2121,1,0,2.4813,,0,116,116,7,1,three_way_cognate,1,REAL,FALSA
,,,,,,,,,667d9f96ba63190f173dfb0c,001,2024-06-30_05h06.37.774,empathy_intonation_perc,2024.1.4,MacIntel,61.34969325,,,,,,,,,,,,,,100,épinas,,,,,,463.2233,465.9786,0,1,2.2315,,0,117,117,99,1,pseudoword,0,REAL,FALSA
,,,,,,,,,667d9f96ba63190f173dfb0c,001,2024-06-30_05h06.37.774,empathy_intonation_perc,2024.1.4,MacIntel,61.34969325,,,,,,,,,,,,,,151,prías,,,,,,465.9792,467.8119,1,0,1.3052,,0,118,118,150,1,pseudoword,0,REAL,FALSA
,,,,,,,,,667d9f96ba63190f173dfb0c,001,2024-06-30_05h06.37.774,empathy_intonation_perc,2024.1.4,MacIntel,61.34969325,,,,,,,,,,,,,,41,pasta,,,,,,467.8124,470.012,0,1,1.6645,,0,119,119,40,1,two_way_cognate,1,REAL,FALSA
,,,,,,,,,667d9f96ba63190f173dfb0c,001,2024-06-30_05h06.37.774,empathy_intonation_perc,2024.1.4,MacIntel,61.34969325,,,,,,,,,,,,,,142,parre,,,,,,470.0127,471.6606,0,1,1.1227,,0,120,120,141,1,pseudoword,0,REAL,FALSA
,,,,,,,,,667d9f96ba63190f173dfb0c,001,2024-06-30_05h06.37.774,empathy_intonation_perc,2024.1.4,MacIntel,61.34969325,,,,,,,,,,,,,,61,aduana,,,,,,471.661,473.2774,0,1,1.0847,,0,121,121,60,1,non_cognate,1,REAL,FALSA
,,,,,,,,,667d9f96ba63190f173dfb0c,001,2024-06-30_05h06.37.774,empathy_intonation_perc,2024.1.4,MacIntel,61.34969325,,,,,,,,,,,,,,105,leniz,,,,,,473.2777,474.7952,0,1,0.9979,,0,122,122,104,1,pseudoword,0,REAL,FALSA
,,,,,,,,,667d9f96ba63190f173dfb0c,001,2024-06-30_05h06.37.774,empathy_intonation_perc,2024.1.4,MacIntel,61.34969325,,,,,,,,,,,,,,21,hotel,,,,,,474.7957,476.5118,0,1,1.1829,,0,123,123,20,1,three_way_cognate,1,REAL,FALSA
,,,,,,,,,667d9f96ba63190f173dfb0c,001,2024-06-30_05h06.37.774,empathy_intonation_perc,2024.1.4,MacIntel,61.34969325,,,,,,,,,,,,,,23,plural,,,,,,476.5122,478.2617,0,1,1.2234,,0,124,124,22,1,three_way_cognate,1,REAL,FALSA
,,,,,,,,,667d9f96ba63190f173dfb0c,001,2024-06-30_05h06.37.774,empathy_intonation_perc,2024.1.4,MacIntel,61.34969325,,,,,,,,,,,,,,157,seled,,,,,,478.2624,481.3617,0,1,2.565,,0,125,125,156,1,pseudoword,0,REAL,FALSA
,,,,,,,,,667d9f96ba63190f173dfb0c,001,2024-06-30_05h06.37.774,empathy_intonation_perc,2024.1.4,MacIntel,61.34969325,,,,,,,,,,,,,,48,pelvis,,,,,,481.371,483.095,0,1,1.1991,,0,126,126,47,1,two_way_cognate,1,REAL,FALSA
,,,,,,,,,667d9f96ba63190f173dfb0c,001,2024-06-30_05h06.37.774,empathy_intonation_perc,2024.1.4,MacIntel,61.34969325,,,,,,,,,,,,,,169,pitis,,,,,,483.0956,485.0783,0,1,1.4498,,0,127,127,168,1,pseudoword,0,REAL,FALSA
,,,,,,,,,667d9f96ba63190f173dfb0c,001,2024-06-30_05h06.37.774,empathy_intonation_perc,2024.1.4,MacIntel,61.34969325,,,,,,,,,,,,,,149,emén,,,,,,485.0787,487.3951,1,0,1.7815,,0,128,128,148,1,pseudoword,0,REAL,FALSA
,,,,,,,,,667d9f96ba63190f173dfb0c,001,2024-06-30_05h06.37.774,empathy_intonation_perc,2024.1.4,MacIntel,61.34969325,,,,,,,,,,,,,,83,hálito,,,,,,487.3959,489.3115,1,0,1.3858,,0,129,129,82,1,non_cognate,1,REAL,FALSA
,,,,,,,,,667d9f96ba63190f173dfb0c,001,2024-06-30_05h06.37.774,empathy_intonation_perc,2024.1.4,MacIntel,61.34969325,,,,,,,,,,,,,,15,test,,,,,,489.3122,490.9273,0,1,1.0821,,0,130,130,14,1,three_way_cognate,1,REAL,FALSA
,,,,,,,,,667d9f96ba63190f173dfb0c,001,2024-06-30_05h06.37.774,empathy_intonation_perc,2024.1.4,MacIntel,61.34969325,,,,,,,,,,,,,,1,moral,,,,,,490.9278,496.7945,1,0,5.3468,,0,131,131,0,1,three_way_cognate,1,REAL,FALSA
,,,,,,,,,667d9f96ba63190f173dfb0c,001,2024-06-30_05h06.37.774,empathy_intonation_perc,2024.1.4,MacIntel,61.34969325,,,,,,,,,,,,,,128,pelí,,,,,,496.8011,499.4281,1,0,2.1011,,0,132,132,127,1,pseudoword,0,REAL,FALSA
,,,,,,,,,667d9f96ba63190f173dfb0c,001,2024-06-30_05h06.37.774,empathy_intonation_perc,2024.1.4,MacIntel,61.34969325,,,,,,,,,,,,,,122,boñaz,,,,,,499.4379,501.6948,0,1,1.7282,,0,133,133,121,1,pseudoword,0,REAL,FALSA
,,,,,,,,,667d9f96ba63190f173dfb0c,001,2024-06-30_05h06.37.774,empathy_intonation_perc,2024.1.4,MacIntel,61.34969325,,,,,,,,,,,,,,185,aljizo,,,,,,501.695,503.3113,0,1,1.0819,,0,134,134,184,1,pseudoword,0,REAL,FALSA
,,,,,,,,,667d9f96ba63190f173dfb0c,001,2024-06-30_05h06.37.774,empathy_intonation_perc,2024.1.4,MacIntel,61.34969325,,,,,,,,,,,,,,109,laras,,,,,,503.312,504.9105,0,1,1.0648,,0,135,135,108,1,pseudoword,0,REAL,FALSA
,,,,,,,,,667d9f96ba63190f173dfb0c,001,2024-06-30_05h06.37.774,empathy_intonation_perc,2024.1.4,MacIntel,61.34969325,,,,,,,,,,,,,,17,clan,,,,,,504.911,505.678,1,0,0.2477,,0,136,136,16,1,three_way_cognate,1,REAL,FALSA
,,,,,,,,,667d9f96ba63190f173dfb0c,001,2024-06-30_05h06.37.774,empathy_intonation_perc,2024.1.4,MacIntel,61.34969325,,,,,,,,,,,,,,156,ozoso,,,,,,505.6783,506.4613,0,1,0.2482,,0,137,137,155,1,pseudoword,0,REAL,FALSA
,,,,,,,,,667d9f96ba63190f173dfb0c,001,2024-06-30_05h06.37.774,empathy_intonation_perc,2024.1.4,MacIntel,61.34969325,,,,,,,,,,,,,,70,ánimo,,,,,,506.4619,507.0614,0,1,0.0653,,0,138,138,69,1,non_cognate,1,REAL,FALSA
,,,,,,,,,667d9f96ba63190f173dfb0c,001,2024-06-30_05h06.37.774,empathy_intonation_perc,2024.1.4,MacIntel,61.34969325,,,,,,,,,,,,,,98,martir,,,,,,507.062,508.7281,1,0,1.1317,,0,139,139,97,1,pseudoword,0,REAL,FALSA
,,,,,,,,,667d9f96ba63190f173dfb0c,001,2024-06-30_05h06.37.774,empathy_intonation_perc,2024.1.4,MacIntel,61.34969325,,,,,,,,,,,,,,20,trauma,,,,,,508.7286,510.5449,0,1,1.2805,,0,140,140,19,1,three_way_cognate,1,REAL,FALSA
,,,,,,,,,667d9f96ba63190f173dfb0c,001,2024-06-30_05h06.37.774,empathy_intonation_perc,2024.1.4,MacIntel,61.34969325,,,,,,,,,,,,,,82,brillo,,,,,,510.5455,512.5947,0,1,1.515,,0,141,141,81,1,non_cognate,1,REAL,FALSA
,,,,,,,,,667d9f96ba63190f173dfb0c,001,2024-06-30_05h06.37.774,empathy_intonation_perc,2024.1.4,MacIntel,61.34969325,,,,,,,,,,,,,,53,punta,,,,,,512.5953,514.4102,1,0,1.289,,0,142,142,52,1,non_cognate,1,REAL,FALSA
,,,,,,,,,667d9f96ba63190f173dfb0c,001,2024-06-30_05h06.37.774,empathy_intonation_perc,2024.1.4,MacIntel,61.34969325,,,,,,,,,,,,,,161,civas,,,,,,514.4107,515.9611,0,1,1.0386,,0,143,143,160,1,pseudoword,0,REAL,FALSA
,,,,,,,,,667d9f96ba63190f173dfb0c,001,2024-06-30_05h06.37.774,empathy_intonation_perc,2024.1.4,MacIntel,61.34969325,,,,,,,,,,,,,,3,disco,,,,,,515.9618,517.6107,0,1,1.1173,,0,144,144,2,1,three_way_cognate,1,REAL,FALSA
,,,,,,,,,667d9f96ba63190f173dfb0c,001,2024-06-30_05h06.37.774,empathy_intonation_perc,2024.1.4,MacIntel,61.34969325,,,,,,,,,,,,,,102,coyo,,,,,,517.6111,519.5111,1,0,1.3806,,0,145,145,101,1,pseudoword,0,REAL,FALSA
,,,,,,,,,667d9f96ba63190f173dfb0c,001,2024-06-30_05h06.37.774,empathy_intonation_perc,2024.1.4,MacIntel,61.34969325,,,,,,,,,,,,,,62,pegar,,,,,,519.5114,521.2436,1,0,1.1985,,0,146,146,61,1,non_cognate,1,REAL,FALSA
,,,,,,,,,667d9f96ba63190f173dfb0c,001,2024-06-30_05h06.37.774,empathy_intonation_perc,2024.1.4,MacIntel,61.34969325,,,,,,,,,,,,,,154,harvé,,,,,,521.2442,523.3612,1,0,1.5989,,0,147,147,153,1,pseudoword,0,REAL,FALSA
,,,,,,,,,667d9f96ba63190f173dfb0c,001,2024-06-30_05h06.37.774,empathy_intonation_perc,2024.1.4,MacIntel,61.34969325,,,,,,,,,,,,,,107,plago,,,,,,523.3618,525.1102,0,1,1.2149,,0,148,148,106,1,pseudoword,0,REAL,FALSA
,,,,,,,,,667d9f96ba63190f173dfb0c,001,2024-06-30_05h06.37.774,empathy_intonation_perc,2024.1.4,MacIntel,61.34969325,,,,,,,,,,,,,,35,aurora,,,,,,525.1107,526.8101,0,1,1.1789,,0,149,149,34,1,two_way_cognate,1,REAL,FALSA
,,,,,,,,,667d9f96ba63190f173dfb0c,001,2024-06-30_05h06.37.774,empathy_intonation_perc,2024.1.4,MacIntel,61.34969325,,,,,,,,,,,,,,96,caro,,,,,,526.8106,529.4933,0,1,2.1694,,0,150,150,95,1,non_cognate,1,REAL,FALSA
,,,,,,,,,667d9f96ba63190f173dfb0c,001,2024-06-30_05h06.37.774,empathy_intonation_perc,2024.1.4,MacIntel,61.34969325,,,,,,,,,,,,,,124,lobe,,,,,,529.5036,531.5775,0,1,1.5483,,0,151,151,123,1,pseudoword,0,REAL,FALSA
,,,,,,,,,667d9f96ba63190f173dfb0c,001,2024-06-30_05h06.37.774,empathy_intonation_perc,2024.1.4,MacIntel,61.34969325,,,,,,,,,,,,,,5,extra,,,,,,531.5781,533.2942,0,1,1.1896,,0,152,152,4,1,three_way_cognate,1,REAL,FALSA
,,,,,,,,,667d9f96ba63190f173dfb0c,001,2024-06-30_05h06.37.774,empathy_intonation_perc,2024.1.4,MacIntel,61.34969325,,,,,,,,,,,,,,6,horror,,,,,,533.2948,535.2611,0,1,1.4334,,0,153,153,5,1,three_way_cognate,1,REAL,FALSA
,,,,,,,,,667d9f96ba63190f173dfb0c,001,2024-06-30_05h06.37.774,empathy_intonation_perc,2024.1.4,MacIntel,61.34969325,,,,,,,,,,,,,,67,llamar,,,,,,535.262,536.8443,1,0,1.0513,,0,154,154,66,1,non_cognate,1,REAL,FALSA
,,,,,,,,,667d9f96ba63190f173dfb0c,001,2024-06-30_05h06.37.774,empathy_intonation_perc,2024.1.4,MacIntel,61.34969325,,,,,,,,,,,,,,110,densó,,,,,,536.8447,538.661,1,0,1.2809,,0,155,155,109,1,pseudoword,0,REAL,FALSA
,,,,,,,,,667d9f96ba63190f173dfb0c,001,2024-06-30_05h06.37.774,empathy_intonation_perc,2024.1.4,MacIntel,61.34969325,,,,,,,,,,,,,,92,flecha,,,,,,538.6615,540.1111,1,0,0.9142,,0,156,156,91,1,non_cognate,1,REAL,FALSA
,,,,,,,,,667d9f96ba63190f173dfb0c,001,2024-06-30_05h06.37.774,empathy_intonation_perc,2024.1.4,MacIntel,61.34969325,,,,,,,,,,,,,,57,regalo,,,,,,540.1116,542.4275,1,0,1.7813,,0,157,157,56,1,non_cognate,1,REAL,FALSA
,,,,,,,,,667d9f96ba63190f173dfb0c,001,2024-06-30_05h06.37.774,empathy_intonation_perc,2024.1.4,MacIntel,61.34969325,,,,,,,,,,,,,,40,pelvis,,,,,,542.4283,544.0765,0,1,1.1131,,0,158,158,39,1,two_way_cognate,1,REAL,FALSA
,,,,,,,,,667d9f96ba63190f173dfb0c,001,2024-06-30_05h06.37.774,empathy_intonation_perc,2024.1.4,MacIntel,61.34969325,,,,,,,,,,,,,,93,tapa,,,,,,544.077,545.8441,1,0,1.2318,,0,159,159,92,1,non_cognate,1,REAL,FALSA
,,,,,,,,,667d9f96ba63190f173dfb0c,001,2024-06-30_05h06.37.774,empathy_intonation_perc,2024.1.4,MacIntel,61.34969325,,,,,,,,,,,,,,147,alla,,,,,,545.8446,547.6605,0,1,1.2804,,0,160,160,146,1,pseudoword,0,REAL,FALSA
,,,,,,,,,667d9f96ba63190f173dfb0c,001,2024-06-30_05h06.37.774,empathy_intonation_perc,2024.1.4,MacIntel,61.34969325,,,,,,,,,,,,,,26,enigma,,,,,,547.6609,550.1269,0,1,1.9327,,0,161,161,25,1,two_way_cognate,1,REAL,FALSA
,,,,,,,,,667d9f96ba63190f173dfb0c,001,2024-06-30_05h06.37.774,empathy_intonation_perc,2024.1.4,MacIntel,61.34969325,,,,,,,,,,,,,,55,maldad,,,,,,550.1273,551.977,1,0,1.3158,,0,162,162,54,1,non_cognate,1,REAL,FALSA
,,,,,,,,,667d9f96ba63190f173dfb0c,001,2024-06-30_05h06.37.774,empathy_intonation_perc,2024.1.4,MacIntel,61.34969325,,,,,,,,,,,,,,22,mango,,,,,,551.9773,553.6273,1,0,1.1311,,0,163,163,21,1,three_way_cognate,1,REAL,FALSA
,,,,,,,,,667d9f96ba63190f173dfb0c,001,2024-06-30_05h06.37.774,empathy_intonation_perc,2024.1.4,MacIntel,61.34969325,,,,,,,,,,,,,,119,esís,,,,,,553.6278,555.7271,1,0,1.567,,0,164,164,118,1,pseudoword,0,REAL,FALSA
,,,,,,,,,667d9f96ba63190f173dfb0c,001,2024-06-30_05h06.37.774,empathy_intonation_perc,2024.1.4,MacIntel,61.34969325,,,,,,,,,,,,,,91,equipo,,,,,,555.7275,557.4263,1,0,1.1632,,0,165,165,90,1,non_cognate,1,REAL,FALSA
,,,,,,,,,667d9f96ba63190f173dfb0c,001,2024-06-30_05h06.37.774,empathy_intonation_perc,2024.1.4,MacIntel,61.34969325,,,,,,,,,,,,,,181,gravés,,,,,,557.4268,559.2272,1,0,1.2824,,0,166,166,180,1,pseudoword,0,REAL,FALSA
,,,,,,,,,667d9f96ba63190f173dfb0c,001,2024-06-30_05h06.37.774,empathy_intonation_perc,2024.1.4,MacIntel,61.34969325,,,,,,,,,,,,,,182,desaro,,,,,,559.2278,561.3273,0,1,1.5669,,0,167,167,181,1,pseudoword,0,REAL,FALSA
,,,,,,,,,667d9f96ba63190f173dfb0c,001,2024-06-30_05h06.37.774,empathy_intonation_perc,2024.1.4,MacIntel,61.34969325,,,,,,,,,,,,,,159,trcia,,,,,,561.3278,563.3104,0,1,1.4468,,0,168,168,158,1,pseudoword,0,REAL,FALSA
,,,,,,,,,667d9f96ba63190f173dfb0c,001,2024-06-30_05h06.37.774,empathy_intonation_perc,2024.1.4,MacIntel,61.34969325,,,,,,,,,,,,,,69,tiza,,,,,,563.311,565.0105,1,0,1.1663,,0,169,169,68,1,non_cognate,1,REAL,FALSA
,,,,,,,,,667d9f96ba63190f173dfb0c,001,2024-06-30_05h06.37.774,empathy_intonation_perc,2024.1.4,MacIntel,61.34969325,,,,,,,,,,,,,,25,vigor,,,,,,565.0109,567.4105,0,1,1.8681,,0,170,170,24,1,two_way_cognate,1,REAL,FALSA
,,,,,,,,,667d9f96ba63190f173dfb0c,001,2024-06-30_05h06.37.774,empathy_intonation_perc,2024.1.4,MacIntel,61.34969325,,,,,,,,,,,,,,30,fiscal,,,,,,567.4203,572.2094,0,1,4.2666,,0,171,171,29,1,two_way_cognate,1,REAL,FALSA
,,,,,,,,,667d9f96ba63190f173dfb0c,001,2024-06-30_05h06.37.774,empathy_intonation_perc,2024.1.4,MacIntel,61.34969325,,,,,,,,,,,,,,116,grigir,,,,,,572.2197,576.1936,1,0,3.4484,,0,172,172,115,1,pseudoword,0,REAL,FALSA
,,,,,,,,,667d9f96ba63190f173dfb0c,001,2024-06-30_05h06.37.774,empathy_intonation_perc,2024.1.4,MacIntel,61.34969325,,,,,,,,,,,,,,16,chat,,,,,,576.2039,577.9604,0,1,1.2335,,0,173,173,15,1,three_way_cognate,1,REAL,FALSA
,,,,,,,,,667d9f96ba63190f173dfb0c,001,2024-06-30_05h06.37.774,empathy_intonation_perc,2024.1.4,MacIntel,61.34969325,,,,,,,,,,,,,,125,ceme,,,,,,577.9612,579.526,1,0,1.0322,,0,174,174,124,1,pseudoword,0,REAL,FALSA
,,,,,,,,,667d9f96ba63190f173dfb0c,001,2024-06-30_05h06.37.774,empathy_intonation_perc,2024.1.4,MacIntel,61.34969325,,,,,,,,,,,,,,172,dogue,,,,,,579.5267,580.7936,0,1,0.7479,,0,175,175,171,1,pseudoword,0,REAL,FALSA
,,,,,,,,,667d9f96ba63190f173dfb0c,001,2024-06-30_05h06.37.774,empathy_intonation_perc,2024.1.4,MacIntel,61.34969325,,,,,,,,,,,,,,121,barbs,,,,,,580.7945,582.1101,0,1,0.786,,0,176,176,120,1,pseudoword,0,REAL,FALSA
,,,,,,,,,667d9f96ba63190f173dfb0c,001,2024-06-30_05h06.37.774,empathy_intonation_perc,2024.1.4,MacIntel,61.34969325,,,,,,,,,,,,,,183,edioso,,,,,,582.1108,583.6758,1,0,1.0335,,0,177,177,182,1,pseudoword,0,REAL,FALSA
,,,,,,,,,667d9f96ba63190f173dfb0c,001,2024-06-30_05h06.37.774,empathy_intonation_perc,2024.1.4,MacIntel,61.34969325,,,,,,,,,,,,,,123,arane,,,,,,583.6764,584.9102,0,1,0.7144,,0,178,178,122,1,pseudoword,0,REAL,FALSA
,,,,,,,,,667d9f96ba63190f173dfb0c,001,2024-06-30_05h06.37.774,empathy_intonation_perc,2024.1.4,MacIntel,61.34969325,,,,,,,,,,,,,,179,suelet,,,,,,584.911,586.7935,0,1,1.3497,,0,179,179,178,1,pseudoword,0,REAL,FALSA
,,,,,,,,,667d9f96ba63190f173dfb0c,001,2024-06-30_05h06.37.774,empathy_intonation_perc,2024.1.4,MacIntel,61.34969325,,,,,,,,,,,,,,114,dibrea,,,,,,586.7941,589.0424,1,0,1.7157,,0,180,180,113,1,pseudoword,0,REAL,FALSA
,,,,,,,,,667d9f96ba63190f173dfb0c,001,2024-06-30_05h06.37.774,empathy_intonation_perc,2024.1.4,MacIntel,61.34969325,,,,,,,,,,,,,,177,entodo,,,,,,589.0428,590.8925,1,0,1.34,,0,181,181,176,1,pseudoword,0,REAL,FALSA
,,,,,,,,,667d9f96ba63190f173dfb0c,001,2024-06-30_05h06.37.774,empathy_intonation_perc,2024.1.4,MacIntel,61.34969325,,,,,,,,,,,,,,11,golf,,,,,,590.8929,592.0425,0,1,0.6296,,0,182,182,10,1,three_way_cognate,1,REAL,FALSA
,,,,,,,,,667d9f96ba63190f173dfb0c,001,2024-06-30_05h06.37.774,empathy_intonation_perc,2024.1.4,MacIntel,61.34969325,,,,,,,,,,,,,,7,albino,,,,,,592.043,593.3936,0,1,0.8321,,0,183,183,6,1,three_way_cognate,1,REAL,FALSA
,,,,,,,,,667d9f96ba63190f173dfb0c,001,2024-06-30_05h06.37.774,empathy_intonation_perc,2024.1.4,MacIntel,61.34969325,,,,,,,,,,,,,,135,panté,,,,,,593.3941,594.7933,0,1,0.8639,,0,184,184,134,1,pseudoword,0,REAL,FALSA
,,,,,,,,,667d9f96ba63190f173dfb0c,001,2024-06-30_05h06.37.774,empathy_intonation_perc,2024.1.4,MacIntel,61.34969325,,,,,,,,,,,,,,143,hurcos,,,,,,594.7936,595.959,0,1,0.6366,,0,185,185,142,1,pseudoword,0,REAL,FALSA
,,,,,,,,,667d9f96ba63190f173dfb0c,001,2024-06-30_05h06.37.774,empathy_intonation_perc,2024.1.4,MacIntel,61.34969325,,,,,,,,,,,,,,4,flora,,,,,,595.9596,597.5433,0,1,1.0493,,0,186,186,3,1,three_way_cognate,1,REAL,FALSA
,,,,,,,,,667d9f96ba63190f173dfb0c,001,2024-06-30_05h06.37.774,empathy_intonation_perc,2024.1.4,MacIntel,61.34969325,,,,,,,,,,,,,,173,mibro,,,,,,597.544,598.7267,0,1,0.6465,,0,187,187,172,1,pseudoword,0,REAL,FALSA
,,,,,,,,,667d9f96ba63190f173dfb0c,001,2024-06-30_05h06.37.774,empathy_intonation_perc,2024.1.4,MacIntel,61.34969325,,,,,,,,,,,,,,64,rizado,,,,,,598.727,599.7423,0,1,0.4821,,0,188,188,63,1,non_cognate,1,REAL,FALSA
,,,,,,,,,667d9f96ba63190f173dfb0c,001,2024-06-30_05h06.37.774,empathy_intonation_perc,2024.1.4,MacIntel,61.34969325,,,,,,,,,,,,,,150,cricó,,,,,,599.7428,601.11,1,0,0.8472,,0,189,189,149,1,pseudoword,0,REAL,FALSA
,,,,,,,,,667d9f96ba63190f173dfb0c,001,2024-06-30_05h06.37.774,empathy_intonation_perc,2024.1.4,MacIntel,61.34969325,,,,,,,,,,,,,,146,gió,,,,,,601.1106,603.11,1,0,1.4697,,0,190,190,145,1,pseudoword,0,REAL,FALSA
,,,,,,,,,667d9f96ba63190f173dfb0c,001,2024-06-30_05h06.37.774,empathy_intonation_perc,2024.1.4,MacIntel,61.34969325,,,,,,,,,,,,,,14,aura,,,,,,603.1105,604.4265,0,1,0.7802,,0,191,191,13,1,three_way_cognate,1,REAL,FALSA
