key_resp_lextale_trial.keys,key_resp_lextale_trial.corr,key_resp_lextale_trial.rt,trials.thisRepN,trials.thisTrialN,trials.thisN,trials.thisIndex,trials.ran,stim,word,correct_response,button_real,button_false,id,Variety of Spanish that is most familiar to you?,date,expName,psychopyVersion,OS,frameRate,key_resp.keys,key_resp.rt
1,1,1.7712,0,0,0,40,1,41,rebuscar,1,REAL,FAKE,WS.14,,2025-01-22_13h06.43.469,lextale_sp,2021.2.3,Win32,62.5,,
0,1,2.2742,0,1,1,62,1,63,esposante,0,REAL,FAKE,WS.14,,2025-01-22_13h06.43.469,lextale_sp,2021.2.3,Win32,62.5,,
1,0,4.6684,0,2,2,71,1,72,pemición,0,REAL,FAKE,WS.14,,2025-01-22_13h06.43.469,lextale_sp,2021.2.3,Win32,62.5,,
1,1,1.7012,0,3,3,14,1,15,regar,1,REAL,FAKE,WS.14,,2025-01-22_13h06.43.469,lextale_sp,2021.2.3,Win32,62.5,,
0,0,1.8017,0,4,4,11,1,12,asesinato,1,REAL,FAKE,WS.14,,2025-01-22_13h06.43.469,lextale_sp,2021.2.3,Win32,62.5,,
0,0,5.8238,0,5,5,23,1,24,látigo,1,REAL,FAKE,WS.14,,2025-01-22_13h06.43.469,lextale_sp,2021.2.3,Win32,62.5,,
1,0,0.8883,0,6,6,9,1,10,antar,0,REAL,FAKE,WS.14,,2025-01-22_13h06.43.469,lextale_sp,2021.2.3,Win32,62.5,,
1,1,5.5934,0,7,7,25,1,26,secuestro,1,REAL,FAKE,WS.14,,2025-01-22_13h06.43.469,lextale_sp,2021.2.3,Win32,62.5,,
0,0,1.0682,0,8,8,8,1,9,hacha,1,REAL,FAKE,WS.14,,2025-01-22_13h06.43.469,lextale_sp,2021.2.3,Win32,62.5,,
1,0,1.1129,0,9,9,20,1,21,capillo,0,REAL,FAKE,WS.14,,2025-01-22_13h06.43.469,lextale_sp,2021.2.3,Win32,62.5,,
0,1,2.3837,0,10,10,26,1,27,acutación,0,REAL,FAKE,WS.14,,2025-01-22_13h06.43.469,lextale_sp,2021.2.3,Win32,62.5,,
1,1,0.8379,0,11,11,1,1,2,pellizcar,1,REAL,FAKE,WS.14,,2025-01-22_13h06.43.469,lextale_sp,2021.2.3,Win32,62.5,,
1,0,0.9593,0,12,12,57,1,58,plaudir,0,REAL,FAKE,WS.14,,2025-01-22_13h06.43.469,lextale_sp,2021.2.3,Win32,62.5,,
0,1,1.4024,0,13,13,17,1,18,arsa,0,REAL,FAKE,WS.14,,2025-01-22_13h06.43.469,lextale_sp,2021.2.3,Win32,62.5,,
1,0,1.0226,0,14,14,34,1,35,rompido,0,REAL,FAKE,WS.14,,2025-01-22_13h06.43.469,lextale_sp,2021.2.3,Win32,62.5,,
1,1,1.5961,0,15,15,6,1,7,pésimo,1,REAL,FAKE,WS.14,,2025-01-22_13h06.43.469,lextale_sp,2021.2.3,Win32,62.5,,
0,0,1.0921,0,16,16,55,1,56,musgo,1,REAL,FAKE,WS.14,,2025-01-22_13h06.43.469,lextale_sp,2021.2.3,Win32,62.5,,
1,1,0.8423,0,17,17,47,1,48,ladrón,1,REAL,FAKE,WS.14,,2025-01-22_13h06.43.469,lextale_sp,2021.2.3,Win32,62.5,,
0,0,3.0488,0,18,18,68,1,69,engatusar,1,REAL,FAKE,WS.14,,2025-01-22_13h06.43.469,lextale_sp,2021.2.3,Win32,62.5,,
1,1,1.6698,0,19,19,2,1,3,pulmones,1,REAL,FAKE,WS.14,,2025-01-22_13h06.43.469,lextale_sp,2021.2.3,Win32,62.5,,
1,1,1.9359,0,20,20,82,1,83,guante,1,REAL,FAKE,WS.14,,2025-01-22_13h06.43.469,lextale_sp,2021.2.3,Win32,62.5,,
0,0,1.0068,0,21,21,38,1,39,torpe,1,REAL,FAKE,WS.14,,2025-01-22_13h06.43.469,lextale_sp,2021.2.3,Win32,62.5,,
1,1,3.2637,0,22,22,87,1,88,acantilado,1,REAL,FAKE,WS.14,,2025-01-22_13h06.43.469,lextale_sp,2021.2.3,Win32,62.5,,
1,1,0.7918,0,23,23,60,1,61,seda,1,REAL,FAKE,WS.14,,2025-01-22_13h06.43.469,lextale_sp,2021.2.3,Win32,62.5,,
0,1,1.1675,0,24,24,83,1,84,escuto,0,REAL,FAKE,WS.14,,2025-01-22_13h06.43.469,lextale_sp,2021.2.3,Win32,62.5,,
1,1,1.135,0,25,25,67,1,68,alegre,1,REAL,FAKE,WS.14,,2025-01-22_13h06.43.469,lextale_sp,2021.2.3,Win32,62.5,,
1,1,0.6687,0,26,26,59,1,60,matar,1,REAL,FAKE,WS.14,,2025-01-22_13h06.43.469,lextale_sp,2021.2.3,Win32,62.5,,
1,0,0.6915,0,27,27,73,1,74,cintro,0,REAL,FAKE,WS.14,,2025-01-22_13h06.43.469,lextale_sp,2021.2.3,Win32,62.5,,
0,0,2.5228,0,28,28,5,1,6,tergiversar,1,REAL,FAKE,WS.14,,2025-01-22_13h06.43.469,lextale_sp,2021.2.3,Win32,62.5,,
1,1,1.5403,0,29,29,39,1,40,alfombra,1,REAL,FAKE,WS.14,,2025-01-22_13h06.43.469,lextale_sp,2021.2.3,Win32,62.5,,
0,0,0.8514,0,30,30,42,1,43,canela,1,REAL,FAKE,WS.14,,2025-01-22_13h06.43.469,lextale_sp,2021.2.3,Win32,62.5,,
1,1,0.5939,0,31,31,48,1,49,ganar,1,REAL,FAKE,WS.14,,2025-01-22_13h06.43.469,lextale_sp,2021.2.3,Win32,62.5,,
1,0,1.1695,0,32,32,3,1,4,batillón,0,REAL,FAKE,WS.14,,2025-01-22_13h06.43.469,lextale_sp,2021.2.3,Win32,62.5,,
1,1,0.8642,0,33,33,12,1,13,helar,1,REAL,FAKE,WS.14,,2025-01-22_13h06.43.469,lextale_sp,2021.2.3,Win32,62.5,,
0,0,1.2503,0,34,34,27,1,28,merodear,1,REAL,FAKE,WS.14,,2025-01-22_13h06.43.469,lextale_sp,2021.2.3,Win32,62.5,,
1,1,1.687,0,35,35,37,1,38,estornudar,1,REAL,FAKE,WS.14,,2025-01-22_13h06.43.469,lextale_sp,2021.2.3,Win32,62.5,,
0,0,2.4044,0,36,36,66,1,67,cabello,1,REAL,FAKE,WS.14,,2025-01-22_13h06.43.469,lextale_sp,2021.2.3,Win32,62.5,,
1,1,0.7849,0,37,37,85,1,86,barato,1,REAL,FAKE,WS.14,,2025-01-22_13h06.43.469,lextale_sp,2021.2.3,Win32,62.5,,
1,0,1.2175,0,38,38,0,1,1,terzo,0,REAL,FAKE,WS.14,,2025-01-22_13h06.43.469,lextale_sp,2021.2.3,Win32,62.5,,
0,1,1.4927,0,39,39,69,1,70,temblo,0,REAL,FAKE,WS.14,,2025-01-22_13h06.43.469,lextale_sp,2021.2.3,Win32,62.5,,
1,1,0.6595,0,40,40,4,1,5,zapato,1,REAL,FAKE,WS.14,,2025-01-22_13h06.43.469,lextale_sp,2021.2.3,Win32,62.5,,
1,1,0.7342,0,41,41,45,1,46,martillo,1,REAL,FAKE,WS.14,,2025-01-22_13h06.43.469,lextale_sp,2021.2.3,Win32,62.5,,
0,0,0.7774,0,42,42,89,1,90,clavel,1,REAL,FAKE,WS.14,,2025-01-22_13h06.43.469,lextale_sp,2021.2.3,Win32,62.5,,
1,1,2.3325,0,43,43,24,1,25,bisagra,1,REAL,FAKE,WS.14,,2025-01-22_13h06.43.469,lextale_sp,2021.2.3,Win32,62.5,,
0,0,0.8009,0,44,44,74,1,75,yacer,1,REAL,FAKE,WS.14,,2025-01-22_13h06.43.469,lextale_sp,2021.2.3,Win32,62.5,,
1,0,0.7495,0,45,45,15,1,16,abracer,0,REAL,FAKE,WS.14,,2025-01-22_13h06.43.469,lextale_sp,2021.2.3,Win32,62.5,,
1,1,0.7799,0,46,46,53,1,54,fomentar,1,REAL,FAKE,WS.14,,2025-01-22_13h06.43.469,lextale_sp,2021.2.3,Win32,62.5,,
1,1,1.1166,0,47,47,61,1,62,flaco,1,REAL,FAKE,WS.14,,2025-01-22_13h06.43.469,lextale_sp,2021.2.3,Win32,62.5,,
1,1,0.7838,0,48,48,51,1,52,camisa,1,REAL,FAKE,WS.14,,2025-01-22_13h06.43.469,lextale_sp,2021.2.3,Win32,62.5,,
0,0,0.8368,0,49,49,21,1,22,lacayo,1,REAL,FAKE,WS.14,,2025-01-22_13h06.43.469,lextale_sp,2021.2.3,Win32,62.5,,
1,1,1.0857,0,50,50,10,1,11,cenefa,1,REAL,FAKE,WS.14,,2025-01-22_13h06.43.469,lextale_sp,2021.2.3,Win32,62.5,,
1,0,1.2029,0,51,51,52,1,53,vegada,0,REAL,FAKE,WS.14,,2025-01-22_13h06.43.469,lextale_sp,2021.2.3,Win32,62.5,,
1,1,0.868,0,52,52,79,1,80,hormiga,1,REAL,FAKE,WS.14,,2025-01-22_13h06.43.469,lextale_sp,2021.2.3,Win32,62.5,,
1,1,0.8254,0,53,53,88,1,89,prisa,1,REAL,FAKE,WS.14,,2025-01-22_13h06.43.469,lextale_sp,2021.2.3,Win32,62.5,,
1,0,1.4625,0,54,54,7,1,8,cadeña,0,REAL,FAKE,WS.14,,2025-01-22_13h06.43.469,lextale_sp,2021.2.3,Win32,62.5,,
1,1,0.8006,0,55,55,54,1,55,nevar,1,REAL,FAKE,WS.14,,2025-01-22_13h06.43.469,lextale_sp,2021.2.3,Win32,62.5,,
0,1,0.8188,0,56,56,49,1,50,flamida,0,REAL,FAKE,WS.14,,2025-01-22_13h06.43.469,lextale_sp,2021.2.3,Win32,62.5,,
1,0,2.7747,0,57,57,18,1,19,brecedad,0,REAL,FAKE,WS.14,,2025-01-22_13h06.43.469,lextale_sp,2021.2.3,Win32,62.5,,
1,0,1.2502,0,58,58,65,1,66,hacido,0,REAL,FAKE,WS.14,,2025-01-22_13h06.43.469,lextale_sp,2021.2.3,Win32,62.5,,
0,0,0.872,0,59,59,30,1,31,pandilla,1,REAL,FAKE,WS.14,,2025-01-22_13h06.43.469,lextale_sp,2021.2.3,Win32,62.5,,
1,1,2.0693,0,60,60,76,1,77,tiburón,1,REAL,FAKE,WS.14,,2025-01-22_13h06.43.469,lextale_sp,2021.2.3,Win32,62.5,,
0,0,1.1952,0,61,61,44,1,45,jilguero,1,REAL,FAKE,WS.14,,2025-01-22_13h06.43.469,lextale_sp,2021.2.3,Win32,62.5,,
0,1,0.9263,0,62,62,78,1,79,tropaje,0,REAL,FAKE,WS.14,,2025-01-22_13h06.43.469,lextale_sp,2021.2.3,Win32,62.5,,
0,0,0.8344,0,63,63,80,1,81,pozo,1,REAL,FAKE,WS.14,,2025-01-22_13h06.43.469,lextale_sp,2021.2.3,Win32,62.5,,
1,1,0.7439,0,64,64,43,1,44,cuchara,1,REAL,FAKE,WS.14,,2025-01-22_13h06.43.469,lextale_sp,2021.2.3,Win32,62.5,,
1,0,2.0516,0,65,65,81,1,82,empirador,0,REAL,FAKE,WS.14,,2025-01-22_13h06.43.469,lextale_sp,2021.2.3,Win32,62.5,,
0,0,1.0348,0,66,66,36,1,37,granuja,1,REAL,FAKE,WS.14,,2025-01-22_13h06.43.469,lextale_sp,2021.2.3,Win32,62.5,,
1,1,0.8017,0,67,67,75,1,76,atar,1,REAL,FAKE,WS.14,,2025-01-22_13h06.43.469,lextale_sp,2021.2.3,Win32,62.5,,
0,0,1.1051,0,68,68,13,1,14,yunque,1,REAL,FAKE,WS.14,,2025-01-22_13h06.43.469,lextale_sp,2021.2.3,Win32,62.5,,
1,1,0.7677,0,69,69,72,1,73,hervidor,1,REAL,FAKE,WS.14,,2025-01-22_13h06.43.469,lextale_sp,2021.2.3,Win32,62.5,,
1,1,0.9594,0,70,70,33,1,34,aviso,1,REAL,FAKE,WS.14,,2025-01-22_13h06.43.469,lextale_sp,2021.2.3,Win32,62.5,,
0,0,0.8195,0,71,71,77,1,78,frondoso,1,REAL,FAKE,WS.14,,2025-01-22_13h06.43.469,lextale_sp,2021.2.3,Win32,62.5,,
0,0,0.8841,0,72,72,58,1,59,besar,1,REAL,FAKE,WS.14,,2025-01-22_13h06.43.469,lextale_sp,2021.2.3,Win32,62.5,,
0,0,1.7314,0,73,73,56,1,57,tacaño,1,REAL,FAKE,WS.14,,2025-01-22_13h06.43.469,lextale_sp,2021.2.3,Win32,62.5,,
0,0,0.8479,0,74,74,84,1,85,laúd,1,REAL,FAKE,WS.14,,2025-01-22_13h06.43.469,lextale_sp,2021.2.3,Win32,62.5,,
1,1,0.9464,0,75,75,19,1,20,ávido,1,REAL,FAKE,WS.14,,2025-01-22_13h06.43.469,lextale_sp,2021.2.3,Win32,62.5,,
0,0,1.1042,0,76,76,35,1,36,loro,1,REAL,FAKE,WS.14,,2025-01-22_13h06.43.469,lextale_sp,2021.2.3,Win32,62.5,,
0,1,3.802,0,77,77,31,1,32,fatacidad,0,REAL,FAKE,WS.14,,2025-01-22_13h06.43.469,lextale_sp,2021.2.3,Win32,62.5,,
1,0,2.2172,0,78,78,46,1,47,cartinar,0,REAL,FAKE,WS.14,,2025-01-22_13h06.43.469,lextale_sp,2021.2.3,Win32,62.5,,
0,1,2.9454,0,79,79,29,1,30,alardio,0,REAL,FAKE,WS.14,,2025-01-22_13h06.43.469,lextale_sp,2021.2.3,Win32,62.5,,
1,0,1.3853,0,80,80,22,1,23,lampera,0,REAL,FAKE,WS.14,,2025-01-22_13h06.43.469,lextale_sp,2021.2.3,Win32,62.5,,
0,1,1.979,0,81,81,32,1,33,pauca,0,REAL,FAKE,WS.14,,2025-01-22_13h06.43.469,lextale_sp,2021.2.3,Win32,62.5,,
0,1,1.0003,0,82,82,86,1,87,grodo,0,REAL,FAKE,WS.14,,2025-01-22_13h06.43.469,lextale_sp,2021.2.3,Win32,62.5,,
0,1,0.7768,0,83,83,16,1,17,floroso,0,REAL,FAKE,WS.14,,2025-01-22_13h06.43.469,lextale_sp,2021.2.3,Win32,62.5,,
0,0,1.5284,0,84,84,70,1,71,polvoriento,1,REAL,FAKE,WS.14,,2025-01-22_13h06.43.469,lextale_sp,2021.2.3,Win32,62.5,,
1,0,1.3846,0,85,85,41,1,42,cadallo,0,REAL,FAKE,WS.14,,2025-01-22_13h06.43.469,lextale_sp,2021.2.3,Win32,62.5,,
0,0,0.7045,0,86,86,63,1,64,orgulloso,1,REAL,FAKE,WS.14,,2025-01-22_13h06.43.469,lextale_sp,2021.2.3,Win32,62.5,,
0,0,2.2185,0,87,87,64,1,65,bizcocho,1,REAL,FAKE,WS.14,,2025-01-22_13h06.43.469,lextale_sp,2021.2.3,Win32,62.5,,
1,0,1.2646,0,88,88,28,1,29,decar,0,REAL,FAKE,WS.14,,2025-01-22_13h06.43.469,lextale_sp,2021.2.3,Win32,62.5,,
1,1,0.6837,0,89,89,50,1,51,candado,1,REAL,FAKE,WS.14,,2025-01-22_13h06.43.469,lextale_sp,2021.2.3,Win32,62.5,,
,,,,,,,,,,,,,WS.14,,2025-01-22_13h06.43.469,lextale_sp,2021.2.3,Win32,62.5,space,23.146
