key_resp_lextale_trial.keys,key_resp_lextale_trial.corr,key_resp_lextale_trial.rt,trials.thisRepN,trials.thisTrialN,trials.thisN,trials.thisIndex,trials.ran,stim,word,correct_response,button_real,button_false,id,Variety of Spanish that is most familiar to you?,date,expName,psychopyVersion,OS,frameRate,key_resp.keys,key_resp.rt
1,1,1.5763,0,0,0,11,1,12,asesinato,1,REAL,FAKE,6100949844ff99c54b0e755e,latinoamerican,2022-03-17_20h30.33.515,lextale_sp,2021.2.3,Win32,144.571346,,
1,1,1.2014,0,1,1,56,1,57,tacaño,1,REAL,FAKE,6100949844ff99c54b0e755e,latinoamerican,2022-03-17_20h30.33.515,lextale_sp,2021.2.3,Win32,144.571346,,
1,1,0.7556,0,2,2,33,1,34,aviso,1,REAL,FAKE,6100949844ff99c54b0e755e,latinoamerican,2022-03-17_20h30.33.515,lextale_sp,2021.2.3,Win32,144.571346,,
0,1,1.1461,0,3,3,73,1,74,cintro,0,REAL,FAKE,6100949844ff99c54b0e755e,latinoamerican,2022-03-17_20h30.33.515,lextale_sp,2021.2.3,Win32,144.571346,,
1,0,0.9724,0,4,4,65,1,66,hacido,0,REAL,FAKE,6100949844ff99c54b0e755e,latinoamerican,2022-03-17_20h30.33.515,lextale_sp,2021.2.3,Win32,144.571346,,
1,1,0.8888,0,5,5,43,1,44,cuchara,1,REAL,FAKE,6100949844ff99c54b0e755e,latinoamerican,2022-03-17_20h30.33.515,lextale_sp,2021.2.3,Win32,144.571346,,
1,1,0.8404,0,6,6,6,1,7,pésimo,1,REAL,FAKE,6100949844ff99c54b0e755e,latinoamerican,2022-03-17_20h30.33.515,lextale_sp,2021.2.3,Win32,144.571346,,
0,1,1.0124,0,7,7,69,1,70,temblo,0,REAL,FAKE,6100949844ff99c54b0e755e,latinoamerican,2022-03-17_20h30.33.515,lextale_sp,2021.2.3,Win32,144.571346,,
1,1,1.3472,0,8,8,40,1,41,rebuscar,1,REAL,FAKE,6100949844ff99c54b0e755e,latinoamerican,2022-03-17_20h30.33.515,lextale_sp,2021.2.3,Win32,144.571346,,
1,1,1.5068,0,9,9,75,1,76,atar,1,REAL,FAKE,6100949844ff99c54b0e755e,latinoamerican,2022-03-17_20h30.33.515,lextale_sp,2021.2.3,Win32,144.571346,,
1,1,0.7708,0,10,10,67,1,68,alegre,1,REAL,FAKE,6100949844ff99c54b0e755e,latinoamerican,2022-03-17_20h30.33.515,lextale_sp,2021.2.3,Win32,144.571346,,
1,1,0.778,0,11,11,38,1,39,torpe,1,REAL,FAKE,6100949844ff99c54b0e755e,latinoamerican,2022-03-17_20h30.33.515,lextale_sp,2021.2.3,Win32,144.571346,,
1,1,0.8612,0,12,12,25,1,26,secuestro,1,REAL,FAKE,6100949844ff99c54b0e755e,latinoamerican,2022-03-17_20h30.33.515,lextale_sp,2021.2.3,Win32,144.571346,,
1,1,1.5423,0,13,13,35,1,36,loro,1,REAL,FAKE,6100949844ff99c54b0e755e,latinoamerican,2022-03-17_20h30.33.515,lextale_sp,2021.2.3,Win32,144.571346,,
1,0,1.3474,0,14,14,22,1,23,lampera,0,REAL,FAKE,6100949844ff99c54b0e755e,latinoamerican,2022-03-17_20h30.33.515,lextale_sp,2021.2.3,Win32,144.571346,,
1,1,1.696,0,15,15,14,1,15,regar,1,REAL,FAKE,6100949844ff99c54b0e755e,latinoamerican,2022-03-17_20h30.33.515,lextale_sp,2021.2.3,Win32,144.571346,,
1,1,0.6532,0,16,16,66,1,67,cabello,1,REAL,FAKE,6100949844ff99c54b0e755e,latinoamerican,2022-03-17_20h30.33.515,lextale_sp,2021.2.3,Win32,144.571346,,
0,0,1.0576,0,17,17,53,1,54,fomentar,1,REAL,FAKE,6100949844ff99c54b0e755e,latinoamerican,2022-03-17_20h30.33.515,lextale_sp,2021.2.3,Win32,144.571346,,
1,1,0.9589,0,18,18,61,1,62,flaco,1,REAL,FAKE,6100949844ff99c54b0e755e,latinoamerican,2022-03-17_20h30.33.515,lextale_sp,2021.2.3,Win32,144.571346,,
1,1,0.7366,0,19,19,58,1,59,besar,1,REAL,FAKE,6100949844ff99c54b0e755e,latinoamerican,2022-03-17_20h30.33.515,lextale_sp,2021.2.3,Win32,144.571346,,
0,0,2.5125,0,20,20,72,1,73,hervidor,1,REAL,FAKE,6100949844ff99c54b0e755e,latinoamerican,2022-03-17_20h30.33.515,lextale_sp,2021.2.3,Win32,144.571346,,
0,0,1.2372,0,21,21,77,1,78,frondoso,1,REAL,FAKE,6100949844ff99c54b0e755e,latinoamerican,2022-03-17_20h30.33.515,lextale_sp,2021.2.3,Win32,144.571346,,
1,0,1.4029,0,22,22,0,1,1,terzo,0,REAL,FAKE,6100949844ff99c54b0e755e,latinoamerican,2022-03-17_20h30.33.515,lextale_sp,2021.2.3,Win32,144.571346,,
0,1,1.0002,0,23,23,71,1,72,pemición,0,REAL,FAKE,6100949844ff99c54b0e755e,latinoamerican,2022-03-17_20h30.33.515,lextale_sp,2021.2.3,Win32,144.571346,,
1,1,1.7036,0,24,24,13,1,14,yunque,1,REAL,FAKE,6100949844ff99c54b0e755e,latinoamerican,2022-03-17_20h30.33.515,lextale_sp,2021.2.3,Win32,144.571346,,
0,0,1.2431,0,25,25,68,1,69,engatusar,1,REAL,FAKE,6100949844ff99c54b0e755e,latinoamerican,2022-03-17_20h30.33.515,lextale_sp,2021.2.3,Win32,144.571346,,
0,0,1.1875,0,26,26,1,1,2,pellizcar,1,REAL,FAKE,6100949844ff99c54b0e755e,latinoamerican,2022-03-17_20h30.33.515,lextale_sp,2021.2.3,Win32,144.571346,,
1,1,0.6873,0,27,27,47,1,48,ladrón,1,REAL,FAKE,6100949844ff99c54b0e755e,latinoamerican,2022-03-17_20h30.33.515,lextale_sp,2021.2.3,Win32,144.571346,,
1,1,1.146,0,28,28,80,1,81,pozo,1,REAL,FAKE,6100949844ff99c54b0e755e,latinoamerican,2022-03-17_20h30.33.515,lextale_sp,2021.2.3,Win32,144.571346,,
1,1,0.5848,0,29,29,63,1,64,orgulloso,1,REAL,FAKE,6100949844ff99c54b0e755e,latinoamerican,2022-03-17_20h30.33.515,lextale_sp,2021.2.3,Win32,144.571346,,
1,0,1.104,0,30,30,26,1,27,acutación,0,REAL,FAKE,6100949844ff99c54b0e755e,latinoamerican,2022-03-17_20h30.33.515,lextale_sp,2021.2.3,Win32,144.571346,,
1,1,0.8201,0,31,31,79,1,80,hormiga,1,REAL,FAKE,6100949844ff99c54b0e755e,latinoamerican,2022-03-17_20h30.33.515,lextale_sp,2021.2.3,Win32,144.571346,,
0,1,1.0972,0,32,32,78,1,79,tropaje,0,REAL,FAKE,6100949844ff99c54b0e755e,latinoamerican,2022-03-17_20h30.33.515,lextale_sp,2021.2.3,Win32,144.571346,,
0,0,1.1665,0,33,33,70,1,71,polvoriento,1,REAL,FAKE,6100949844ff99c54b0e755e,latinoamerican,2022-03-17_20h30.33.515,lextale_sp,2021.2.3,Win32,144.571346,,
1,1,0.8765,0,34,34,8,1,9,hacha,1,REAL,FAKE,6100949844ff99c54b0e755e,latinoamerican,2022-03-17_20h30.33.515,lextale_sp,2021.2.3,Win32,144.571346,,
0,0,0.8126,0,35,35,10,1,11,cenefa,1,REAL,FAKE,6100949844ff99c54b0e755e,latinoamerican,2022-03-17_20h30.33.515,lextale_sp,2021.2.3,Win32,144.571346,,
1,1,0.7436,0,36,36,85,1,86,barato,1,REAL,FAKE,6100949844ff99c54b0e755e,latinoamerican,2022-03-17_20h30.33.515,lextale_sp,2021.2.3,Win32,144.571346,,
1,1,2.2013,0,37,37,87,1,88,acantilado,1,REAL,FAKE,6100949844ff99c54b0e755e,latinoamerican,2022-03-17_20h30.33.515,lextale_sp,2021.2.3,Win32,144.571346,,
1,1,1.0974,0,38,38,89,1,90,clavel,1,REAL,FAKE,6100949844ff99c54b0e755e,latinoamerican,2022-03-17_20h30.33.515,lextale_sp,2021.2.3,Win32,144.571346,,
1,1,1.2653,0,39,39,37,1,38,estornudar,1,REAL,FAKE,6100949844ff99c54b0e755e,latinoamerican,2022-03-17_20h30.33.515,lextale_sp,2021.2.3,Win32,144.571346,,
1,1,0.5556,0,40,40,51,1,52,camisa,1,REAL,FAKE,6100949844ff99c54b0e755e,latinoamerican,2022-03-17_20h30.33.515,lextale_sp,2021.2.3,Win32,144.571346,,
0,1,2.1249,0,41,41,34,1,35,rompido,0,REAL,FAKE,6100949844ff99c54b0e755e,latinoamerican,2022-03-17_20h30.33.515,lextale_sp,2021.2.3,Win32,144.571346,,
1,1,0.6113,0,42,42,48,1,49,ganar,1,REAL,FAKE,6100949844ff99c54b0e755e,latinoamerican,2022-03-17_20h30.33.515,lextale_sp,2021.2.3,Win32,144.571346,,
0,1,1.5138,0,43,43,31,1,32,fatacidad,0,REAL,FAKE,6100949844ff99c54b0e755e,latinoamerican,2022-03-17_20h30.33.515,lextale_sp,2021.2.3,Win32,144.571346,,
1,1,1.4375,0,44,44,21,1,22,lacayo,1,REAL,FAKE,6100949844ff99c54b0e755e,latinoamerican,2022-03-17_20h30.33.515,lextale_sp,2021.2.3,Win32,144.571346,,
1,1,1.0336,0,45,45,74,1,75,yacer,1,REAL,FAKE,6100949844ff99c54b0e755e,latinoamerican,2022-03-17_20h30.33.515,lextale_sp,2021.2.3,Win32,144.571346,,
1,0,1.0348,0,46,46,81,1,82,empirador,0,REAL,FAKE,6100949844ff99c54b0e755e,latinoamerican,2022-03-17_20h30.33.515,lextale_sp,2021.2.3,Win32,144.571346,,
1,1,0.6349,0,47,47,82,1,83,guante,1,REAL,FAKE,6100949844ff99c54b0e755e,latinoamerican,2022-03-17_20h30.33.515,lextale_sp,2021.2.3,Win32,144.571346,,
0,0,1.5208,0,48,48,27,1,28,merodear,1,REAL,FAKE,6100949844ff99c54b0e755e,latinoamerican,2022-03-17_20h30.33.515,lextale_sp,2021.2.3,Win32,144.571346,,
0,1,1.0331,0,49,49,49,1,50,flamida,0,REAL,FAKE,6100949844ff99c54b0e755e,latinoamerican,2022-03-17_20h30.33.515,lextale_sp,2021.2.3,Win32,144.571346,,
1,0,1.2094,0,50,50,86,1,87,grodo,0,REAL,FAKE,6100949844ff99c54b0e755e,latinoamerican,2022-03-17_20h30.33.515,lextale_sp,2021.2.3,Win32,144.571346,,
1,0,1.535,0,51,51,32,1,33,pauca,0,REAL,FAKE,6100949844ff99c54b0e755e,latinoamerican,2022-03-17_20h30.33.515,lextale_sp,2021.2.3,Win32,144.571346,,
0,0,0.8688,0,52,52,24,1,25,bisagra,1,REAL,FAKE,6100949844ff99c54b0e755e,latinoamerican,2022-03-17_20h30.33.515,lextale_sp,2021.2.3,Win32,144.571346,,
1,1,0.5769,0,53,53,59,1,60,matar,1,REAL,FAKE,6100949844ff99c54b0e755e,latinoamerican,2022-03-17_20h30.33.515,lextale_sp,2021.2.3,Win32,144.571346,,
0,0,0.8126,0,54,54,12,1,13,helar,1,REAL,FAKE,6100949844ff99c54b0e755e,latinoamerican,2022-03-17_20h30.33.515,lextale_sp,2021.2.3,Win32,144.571346,,
0,0,0.8196,0,55,55,55,1,56,musgo,1,REAL,FAKE,6100949844ff99c54b0e755e,latinoamerican,2022-03-17_20h30.33.515,lextale_sp,2021.2.3,Win32,144.571346,,
1,0,0.9445,0,56,56,16,1,17,floroso,0,REAL,FAKE,6100949844ff99c54b0e755e,latinoamerican,2022-03-17_20h30.33.515,lextale_sp,2021.2.3,Win32,144.571346,,
1,1,0.7016,0,57,57,50,1,51,candado,1,REAL,FAKE,6100949844ff99c54b0e755e,latinoamerican,2022-03-17_20h30.33.515,lextale_sp,2021.2.3,Win32,144.571346,,
0,1,1.1252,0,58,58,41,1,42,cadallo,0,REAL,FAKE,6100949844ff99c54b0e755e,latinoamerican,2022-03-17_20h30.33.515,lextale_sp,2021.2.3,Win32,144.571346,,
1,0,0.5695,0,59,59,20,1,21,capillo,0,REAL,FAKE,6100949844ff99c54b0e755e,latinoamerican,2022-03-17_20h30.33.515,lextale_sp,2021.2.3,Win32,144.571346,,
0,0,1.4306,0,60,60,44,1,45,jilguero,1,REAL,FAKE,6100949844ff99c54b0e755e,latinoamerican,2022-03-17_20h30.33.515,lextale_sp,2021.2.3,Win32,144.571346,,
0,1,1.0267,0,61,61,18,1,19,brecedad,0,REAL,FAKE,6100949844ff99c54b0e755e,latinoamerican,2022-03-17_20h30.33.515,lextale_sp,2021.2.3,Win32,144.571346,,
1,1,1.2014,0,62,62,45,1,46,martillo,1,REAL,FAKE,6100949844ff99c54b0e755e,latinoamerican,2022-03-17_20h30.33.515,lextale_sp,2021.2.3,Win32,144.571346,,
0,1,1.2777,0,63,63,29,1,30,alardio,0,REAL,FAKE,6100949844ff99c54b0e755e,latinoamerican,2022-03-17_20h30.33.515,lextale_sp,2021.2.3,Win32,144.571346,,
1,0,0.6806,0,64,64,57,1,58,plaudir,0,REAL,FAKE,6100949844ff99c54b0e755e,latinoamerican,2022-03-17_20h30.33.515,lextale_sp,2021.2.3,Win32,144.571346,,
0,0,1.1947,0,65,65,84,1,85,laúd,1,REAL,FAKE,6100949844ff99c54b0e755e,latinoamerican,2022-03-17_20h30.33.515,lextale_sp,2021.2.3,Win32,144.571346,,
1,1,1.2847,0,66,66,88,1,89,prisa,1,REAL,FAKE,6100949844ff99c54b0e755e,latinoamerican,2022-03-17_20h30.33.515,lextale_sp,2021.2.3,Win32,144.571346,,
1,1,0.6952,0,67,67,36,1,37,granuja,1,REAL,FAKE,6100949844ff99c54b0e755e,latinoamerican,2022-03-17_20h30.33.515,lextale_sp,2021.2.3,Win32,144.571346,,
1,0,0.8069,0,68,68,15,1,16,abracer,0,REAL,FAKE,6100949844ff99c54b0e755e,latinoamerican,2022-03-17_20h30.33.515,lextale_sp,2021.2.3,Win32,144.571346,,
1,1,0.7153,0,69,69,60,1,61,seda,1,REAL,FAKE,6100949844ff99c54b0e755e,latinoamerican,2022-03-17_20h30.33.515,lextale_sp,2021.2.3,Win32,144.571346,,
1,0,0.5558,0,70,70,17,1,18,arsa,0,REAL,FAKE,6100949844ff99c54b0e755e,latinoamerican,2022-03-17_20h30.33.515,lextale_sp,2021.2.3,Win32,144.571346,,
1,0,0.7569,0,71,71,3,1,4,batillón,0,REAL,FAKE,6100949844ff99c54b0e755e,latinoamerican,2022-03-17_20h30.33.515,lextale_sp,2021.2.3,Win32,144.571346,,
1,0,1.3891,0,72,72,28,1,29,decar,0,REAL,FAKE,6100949844ff99c54b0e755e,latinoamerican,2022-03-17_20h30.33.515,lextale_sp,2021.2.3,Win32,144.571346,,
1,1,0.9515,0,73,73,54,1,55,nevar,1,REAL,FAKE,6100949844ff99c54b0e755e,latinoamerican,2022-03-17_20h30.33.515,lextale_sp,2021.2.3,Win32,144.571346,,
0,1,1.0278,0,74,74,62,1,63,esposante,0,REAL,FAKE,6100949844ff99c54b0e755e,latinoamerican,2022-03-17_20h30.33.515,lextale_sp,2021.2.3,Win32,144.571346,,
1,1,0.8195,0,75,75,42,1,43,canela,1,REAL,FAKE,6100949844ff99c54b0e755e,latinoamerican,2022-03-17_20h30.33.515,lextale_sp,2021.2.3,Win32,144.571346,,
1,1,1.3546,0,76,76,19,1,20,ávido,1,REAL,FAKE,6100949844ff99c54b0e755e,latinoamerican,2022-03-17_20h30.33.515,lextale_sp,2021.2.3,Win32,144.571346,,
0,0,0.9927,0,77,77,5,1,6,tergiversar,1,REAL,FAKE,6100949844ff99c54b0e755e,latinoamerican,2022-03-17_20h30.33.515,lextale_sp,2021.2.3,Win32,144.571346,,
1,1,0.9794,0,78,78,23,1,24,látigo,1,REAL,FAKE,6100949844ff99c54b0e755e,latinoamerican,2022-03-17_20h30.33.515,lextale_sp,2021.2.3,Win32,144.571346,,
1,0,0.7802,0,79,79,9,1,10,antar,0,REAL,FAKE,6100949844ff99c54b0e755e,latinoamerican,2022-03-17_20h30.33.515,lextale_sp,2021.2.3,Win32,144.571346,,
1,0,0.8839,0,80,80,83,1,84,escuto,0,REAL,FAKE,6100949844ff99c54b0e755e,latinoamerican,2022-03-17_20h30.33.515,lextale_sp,2021.2.3,Win32,144.571346,,
0,1,1.139,0,81,81,52,1,53,vegada,0,REAL,FAKE,6100949844ff99c54b0e755e,latinoamerican,2022-03-17_20h30.33.515,lextale_sp,2021.2.3,Win32,144.571346,,
1,1,1.0278,0,82,82,2,1,3,pulmones,1,REAL,FAKE,6100949844ff99c54b0e755e,latinoamerican,2022-03-17_20h30.33.515,lextale_sp,2021.2.3,Win32,144.571346,,
1,1,0.7108,0,83,83,76,1,77,tiburón,1,REAL,FAKE,6100949844ff99c54b0e755e,latinoamerican,2022-03-17_20h30.33.515,lextale_sp,2021.2.3,Win32,144.571346,,
1,1,0.6304,0,84,84,30,1,31,pandilla,1,REAL,FAKE,6100949844ff99c54b0e755e,latinoamerican,2022-03-17_20h30.33.515,lextale_sp,2021.2.3,Win32,144.571346,,
1,1,0.7083,0,85,85,64,1,65,bizcocho,1,REAL,FAKE,6100949844ff99c54b0e755e,latinoamerican,2022-03-17_20h30.33.515,lextale_sp,2021.2.3,Win32,144.571346,,
1,1,0.5625,0,86,86,4,1,5,zapato,1,REAL,FAKE,6100949844ff99c54b0e755e,latinoamerican,2022-03-17_20h30.33.515,lextale_sp,2021.2.3,Win32,144.571346,,
1,1,0.6044,0,87,87,39,1,40,alfombra,1,REAL,FAKE,6100949844ff99c54b0e755e,latinoamerican,2022-03-17_20h30.33.515,lextale_sp,2021.2.3,Win32,144.571346,,
0,1,1.4585,0,88,88,46,1,47,cartinar,0,REAL,FAKE,6100949844ff99c54b0e755e,latinoamerican,2022-03-17_20h30.33.515,lextale_sp,2021.2.3,Win32,144.571346,,
1,0,0.7295,0,89,89,7,1,8,cadeña,0,REAL,FAKE,6100949844ff99c54b0e755e,latinoamerican,2022-03-17_20h30.33.515,lextale_sp,2021.2.3,Win32,144.571346,,
,,,,,,,,,,,,,6100949844ff99c54b0e755e,latinoamerican,2022-03-17_20h30.33.515,lextale_sp,2021.2.3,Win32,144.571346,space,2.5627
