key_resp_lextale_trial.keys,key_resp_lextale_trial.corr,key_resp_lextale_trial.rt,trials.thisRepN,trials.thisTrialN,trials.thisN,trials.thisIndex,trials.ran,stim,word,correct_response,button_real,button_false,id,Variety of Spanish that is most familiar to you?,date,expName,psychopyVersion,OS,frameRate,key_resp.keys,key_resp.rt
1,1,4.316,0,0,0,64,1,65,bizcocho,1,REAL,FAKE,60c24c8ec01a8596ba5c8b85,some,2022-03-11_11h33.53.145,lextale_sp,2021.2.3,MacIntel,66.66666667,,
1,1,1.889,0,1,1,19,1,20,ávido,1,REAL,FAKE,60c24c8ec01a8596ba5c8b85,some,2022-03-11_11h33.53.145,lextale_sp,2021.2.3,MacIntel,66.66666667,,
1,1,1.382,0,2,2,23,1,24,látigo,1,REAL,FAKE,60c24c8ec01a8596ba5c8b85,some,2022-03-11_11h33.53.145,lextale_sp,2021.2.3,MacIntel,66.66666667,,
1,1,1.234,0,3,3,14,1,15,regar,1,REAL,FAKE,60c24c8ec01a8596ba5c8b85,some,2022-03-11_11h33.53.145,lextale_sp,2021.2.3,MacIntel,66.66666667,,
0,0,2.17,0,4,4,35,1,36,loro,1,REAL,FAKE,60c24c8ec01a8596ba5c8b85,some,2022-03-11_11h33.53.145,lextale_sp,2021.2.3,MacIntel,66.66666667,,
1,1,2.396,0,5,5,21,1,22,lacayo,1,REAL,FAKE,60c24c8ec01a8596ba5c8b85,some,2022-03-11_11h33.53.145,lextale_sp,2021.2.3,MacIntel,66.66666667,,
1,1,1.296,0,6,6,79,1,80,hormiga,1,REAL,FAKE,60c24c8ec01a8596ba5c8b85,some,2022-03-11_11h33.53.145,lextale_sp,2021.2.3,MacIntel,66.66666667,,
1,0,2.416,0,7,7,62,1,63,esposante,0,REAL,FAKE,60c24c8ec01a8596ba5c8b85,some,2022-03-11_11h33.53.145,lextale_sp,2021.2.3,MacIntel,66.66666667,,
0,1,1.501,0,8,8,28,1,29,decar,0,REAL,FAKE,60c24c8ec01a8596ba5c8b85,some,2022-03-11_11h33.53.145,lextale_sp,2021.2.3,MacIntel,66.66666667,,
1,1,1.331,0,9,9,43,1,44,cuchara,1,REAL,FAKE,60c24c8ec01a8596ba5c8b85,some,2022-03-11_11h33.53.145,lextale_sp,2021.2.3,MacIntel,66.66666667,,
1,1,1.504,0,10,10,13,1,14,yunque,1,REAL,FAKE,60c24c8ec01a8596ba5c8b85,some,2022-03-11_11h33.53.145,lextale_sp,2021.2.3,MacIntel,66.66666667,,
1,1,2.313,0,11,11,72,1,73,hervidor,1,REAL,FAKE,60c24c8ec01a8596ba5c8b85,some,2022-03-11_11h33.53.145,lextale_sp,2021.2.3,MacIntel,66.66666667,,
1,1,2.063,0,12,12,84,1,85,laúd,1,REAL,FAKE,60c24c8ec01a8596ba5c8b85,some,2022-03-11_11h33.53.145,lextale_sp,2021.2.3,MacIntel,66.66666667,,
1,1,1.127,0,13,13,1,1,2,pellizcar,1,REAL,FAKE,60c24c8ec01a8596ba5c8b85,some,2022-03-11_11h33.53.145,lextale_sp,2021.2.3,MacIntel,66.66666667,,
1,1,1.544,0,14,14,24,1,25,bisagra,1,REAL,FAKE,60c24c8ec01a8596ba5c8b85,some,2022-03-11_11h33.53.145,lextale_sp,2021.2.3,MacIntel,66.66666667,,
0,1,1.594,0,15,15,46,1,47,cartinar,0,REAL,FAKE,60c24c8ec01a8596ba5c8b85,some,2022-03-11_11h33.53.145,lextale_sp,2021.2.3,MacIntel,66.66666667,,
0,1,1.728,0,16,16,78,1,79,tropaje,0,REAL,FAKE,60c24c8ec01a8596ba5c8b85,some,2022-03-11_11h33.53.145,lextale_sp,2021.2.3,MacIntel,66.66666667,,
0,1,1.68,0,17,17,9,1,10,antar,0,REAL,FAKE,60c24c8ec01a8596ba5c8b85,some,2022-03-11_11h33.53.145,lextale_sp,2021.2.3,MacIntel,66.66666667,,
1,1,1.779,0,18,18,11,1,12,asesinato,1,REAL,FAKE,60c24c8ec01a8596ba5c8b85,some,2022-03-11_11h33.53.145,lextale_sp,2021.2.3,MacIntel,66.66666667,,
1,1,0.811,0,19,19,39,1,40,alfombra,1,REAL,FAKE,60c24c8ec01a8596ba5c8b85,some,2022-03-11_11h33.53.145,lextale_sp,2021.2.3,MacIntel,66.66666667,,
1,1,0.85,0,20,20,12,1,13,helar,1,REAL,FAKE,60c24c8ec01a8596ba5c8b85,some,2022-03-11_11h33.53.145,lextale_sp,2021.2.3,MacIntel,66.66666667,,
1,1,1.101,0,21,21,85,1,86,barato,1,REAL,FAKE,60c24c8ec01a8596ba5c8b85,some,2022-03-11_11h33.53.145,lextale_sp,2021.2.3,MacIntel,66.66666667,,
0,0,5.863,0,22,22,5,1,6,tergiversar,1,REAL,FAKE,60c24c8ec01a8596ba5c8b85,some,2022-03-11_11h33.53.145,lextale_sp,2021.2.3,MacIntel,66.66666667,,
0,1,1.629,0,23,23,49,1,50,flamida,0,REAL,FAKE,60c24c8ec01a8596ba5c8b85,some,2022-03-11_11h33.53.145,lextale_sp,2021.2.3,MacIntel,66.66666667,,
1,1,0.815,0,24,24,88,1,89,prisa,1,REAL,FAKE,60c24c8ec01a8596ba5c8b85,some,2022-03-11_11h33.53.145,lextale_sp,2021.2.3,MacIntel,66.66666667,,
1,1,1.113,0,25,25,54,1,55,nevar,1,REAL,FAKE,60c24c8ec01a8596ba5c8b85,some,2022-03-11_11h33.53.145,lextale_sp,2021.2.3,MacIntel,66.66666667,,
1,0,0.616,0,26,26,69,1,70,temblo,0,REAL,FAKE,60c24c8ec01a8596ba5c8b85,some,2022-03-11_11h33.53.145,lextale_sp,2021.2.3,MacIntel,66.66666667,,
0,1,2.064,0,27,27,73,1,74,cintro,0,REAL,FAKE,60c24c8ec01a8596ba5c8b85,some,2022-03-11_11h33.53.145,lextale_sp,2021.2.3,MacIntel,66.66666667,,
1,1,1.711,0,28,28,67,1,68,alegre,1,REAL,FAKE,60c24c8ec01a8596ba5c8b85,some,2022-03-11_11h33.53.145,lextale_sp,2021.2.3,MacIntel,66.66666667,,
1,0,4.234,0,29,29,22,1,23,lampera,0,REAL,FAKE,60c24c8ec01a8596ba5c8b85,some,2022-03-11_11h33.53.145,lextale_sp,2021.2.3,MacIntel,66.66666667,,
0,0,1.629,0,30,30,75,1,76,atar,1,REAL,FAKE,60c24c8ec01a8596ba5c8b85,some,2022-03-11_11h33.53.145,lextale_sp,2021.2.3,MacIntel,66.66666667,,
0,0,1.213,0,31,31,10,1,11,cenefa,1,REAL,FAKE,60c24c8ec01a8596ba5c8b85,some,2022-03-11_11h33.53.145,lextale_sp,2021.2.3,MacIntel,66.66666667,,
1,1,0.762,0,32,32,76,1,77,tiburón,1,REAL,FAKE,60c24c8ec01a8596ba5c8b85,some,2022-03-11_11h33.53.145,lextale_sp,2021.2.3,MacIntel,66.66666667,,
1,1,0.995,0,33,33,53,1,54,fomentar,1,REAL,FAKE,60c24c8ec01a8596ba5c8b85,some,2022-03-11_11h33.53.145,lextale_sp,2021.2.3,MacIntel,66.66666667,,
0,1,0.898,0,34,34,17,1,18,arsa,0,REAL,FAKE,60c24c8ec01a8596ba5c8b85,some,2022-03-11_11h33.53.145,lextale_sp,2021.2.3,MacIntel,66.66666667,,
0,1,2.063,0,35,35,52,1,53,vegada,0,REAL,FAKE,60c24c8ec01a8596ba5c8b85,some,2022-03-11_11h33.53.145,lextale_sp,2021.2.3,MacIntel,66.66666667,,
1,1,0.902,0,36,36,30,1,31,pandilla,1,REAL,FAKE,60c24c8ec01a8596ba5c8b85,some,2022-03-11_11h33.53.145,lextale_sp,2021.2.3,MacIntel,66.66666667,,
1,1,0.772,0,37,37,33,1,34,aviso,1,REAL,FAKE,60c24c8ec01a8596ba5c8b85,some,2022-03-11_11h33.53.145,lextale_sp,2021.2.3,MacIntel,66.66666667,,
1,1,1.102,0,38,38,2,1,3,pulmones,1,REAL,FAKE,60c24c8ec01a8596ba5c8b85,some,2022-03-11_11h33.53.145,lextale_sp,2021.2.3,MacIntel,66.66666667,,
0,0,1.598,0,39,39,74,1,75,yacer,1,REAL,FAKE,60c24c8ec01a8596ba5c8b85,some,2022-03-11_11h33.53.145,lextale_sp,2021.2.3,MacIntel,66.66666667,,
1,1,2.595,0,40,40,50,1,51,candado,1,REAL,FAKE,60c24c8ec01a8596ba5c8b85,some,2022-03-11_11h33.53.145,lextale_sp,2021.2.3,MacIntel,66.66666667,,
1,1,1.238,0,41,41,40,1,41,rebuscar,1,REAL,FAKE,60c24c8ec01a8596ba5c8b85,some,2022-03-11_11h33.53.145,lextale_sp,2021.2.3,MacIntel,66.66666667,,
1,0,1.73,0,42,42,3,1,4,batillón,0,REAL,FAKE,60c24c8ec01a8596ba5c8b85,some,2022-03-11_11h33.53.145,lextale_sp,2021.2.3,MacIntel,66.66666667,,
1,0,0.712,0,43,43,34,1,35,rompido,0,REAL,FAKE,60c24c8ec01a8596ba5c8b85,some,2022-03-11_11h33.53.145,lextale_sp,2021.2.3,MacIntel,66.66666667,,
1,1,0.697,0,44,44,42,1,43,canela,1,REAL,FAKE,60c24c8ec01a8596ba5c8b85,some,2022-03-11_11h33.53.145,lextale_sp,2021.2.3,MacIntel,66.66666667,,
0,0,1.338,0,45,45,36,1,37,granuja,1,REAL,FAKE,60c24c8ec01a8596ba5c8b85,some,2022-03-11_11h33.53.145,lextale_sp,2021.2.3,MacIntel,66.66666667,,
1,1,0.996,0,46,46,37,1,38,estornudar,1,REAL,FAKE,60c24c8ec01a8596ba5c8b85,some,2022-03-11_11h33.53.145,lextale_sp,2021.2.3,MacIntel,66.66666667,,
0,1,1.138,0,47,47,32,1,33,pauca,0,REAL,FAKE,60c24c8ec01a8596ba5c8b85,some,2022-03-11_11h33.53.145,lextale_sp,2021.2.3,MacIntel,66.66666667,,
1,1,0.647,0,48,48,61,1,62,flaco,1,REAL,FAKE,60c24c8ec01a8596ba5c8b85,some,2022-03-11_11h33.53.145,lextale_sp,2021.2.3,MacIntel,66.66666667,,
1,1,1.014,0,49,49,77,1,78,frondoso,1,REAL,FAKE,60c24c8ec01a8596ba5c8b85,some,2022-03-11_11h33.53.145,lextale_sp,2021.2.3,MacIntel,66.66666667,,
1,1,0.671,0,50,50,47,1,48,ladrón,1,REAL,FAKE,60c24c8ec01a8596ba5c8b85,some,2022-03-11_11h33.53.145,lextale_sp,2021.2.3,MacIntel,66.66666667,,
0,0,1.131,0,51,51,89,1,90,clavel,1,REAL,FAKE,60c24c8ec01a8596ba5c8b85,some,2022-03-11_11h33.53.145,lextale_sp,2021.2.3,MacIntel,66.66666667,,
1,1,0.702,0,52,52,51,1,52,camisa,1,REAL,FAKE,60c24c8ec01a8596ba5c8b85,some,2022-03-11_11h33.53.145,lextale_sp,2021.2.3,MacIntel,66.66666667,,
0,1,0.879,0,53,53,0,1,1,terzo,0,REAL,FAKE,60c24c8ec01a8596ba5c8b85,some,2022-03-11_11h33.53.145,lextale_sp,2021.2.3,MacIntel,66.66666667,,
0,0,2.998,0,54,54,44,1,45,jilguero,1,REAL,FAKE,60c24c8ec01a8596ba5c8b85,some,2022-03-11_11h33.53.145,lextale_sp,2021.2.3,MacIntel,66.66666667,,
1,1,0.836,0,55,55,63,1,64,orgulloso,1,REAL,FAKE,60c24c8ec01a8596ba5c8b85,some,2022-03-11_11h33.53.145,lextale_sp,2021.2.3,MacIntel,66.66666667,,
1,1,0.665,0,56,56,59,1,60,matar,1,REAL,FAKE,60c24c8ec01a8596ba5c8b85,some,2022-03-11_11h33.53.145,lextale_sp,2021.2.3,MacIntel,66.66666667,,
0,1,2.432,0,57,57,71,1,72,pemición,0,REAL,FAKE,60c24c8ec01a8596ba5c8b85,some,2022-03-11_11h33.53.145,lextale_sp,2021.2.3,MacIntel,66.66666667,,
0,1,2.512,0,58,58,29,1,30,alardio,0,REAL,FAKE,60c24c8ec01a8596ba5c8b85,some,2022-03-11_11h33.53.145,lextale_sp,2021.2.3,MacIntel,66.66666667,,
0,1,1.695,0,59,59,18,1,19,brecedad,0,REAL,FAKE,60c24c8ec01a8596ba5c8b85,some,2022-03-11_11h33.53.145,lextale_sp,2021.2.3,MacIntel,66.66666667,,
0,1,0.887,0,60,60,41,1,42,cadallo,0,REAL,FAKE,60c24c8ec01a8596ba5c8b85,some,2022-03-11_11h33.53.145,lextale_sp,2021.2.3,MacIntel,66.66666667,,
0,0,1.396,0,61,61,68,1,69,engatusar,1,REAL,FAKE,60c24c8ec01a8596ba5c8b85,some,2022-03-11_11h33.53.145,lextale_sp,2021.2.3,MacIntel,66.66666667,,
1,1,1.464,0,62,62,80,1,81,pozo,1,REAL,FAKE,60c24c8ec01a8596ba5c8b85,some,2022-03-11_11h33.53.145,lextale_sp,2021.2.3,MacIntel,66.66666667,,
1,1,0.68,0,63,63,45,1,46,martillo,1,REAL,FAKE,60c24c8ec01a8596ba5c8b85,some,2022-03-11_11h33.53.145,lextale_sp,2021.2.3,MacIntel,66.66666667,,
0,1,2.343,0,64,64,81,1,82,empirador,0,REAL,FAKE,60c24c8ec01a8596ba5c8b85,some,2022-03-11_11h33.53.145,lextale_sp,2021.2.3,MacIntel,66.66666667,,
0,1,3.479,0,65,65,20,1,21,capillo,0,REAL,FAKE,60c24c8ec01a8596ba5c8b85,some,2022-03-11_11h33.53.145,lextale_sp,2021.2.3,MacIntel,66.66666667,,
0,1,1.197,0,66,66,86,1,87,grodo,0,REAL,FAKE,60c24c8ec01a8596ba5c8b85,some,2022-03-11_11h33.53.145,lextale_sp,2021.2.3,MacIntel,66.66666667,,
0,0,2.18,0,67,67,38,1,39,torpe,1,REAL,FAKE,60c24c8ec01a8596ba5c8b85,some,2022-03-11_11h33.53.145,lextale_sp,2021.2.3,MacIntel,66.66666667,,
0,0,2.212,0,68,68,27,1,28,merodear,1,REAL,FAKE,60c24c8ec01a8596ba5c8b85,some,2022-03-11_11h33.53.145,lextale_sp,2021.2.3,MacIntel,66.66666667,,
1,1,0.748,0,69,69,82,1,83,guante,1,REAL,FAKE,60c24c8ec01a8596ba5c8b85,some,2022-03-11_11h33.53.145,lextale_sp,2021.2.3,MacIntel,66.66666667,,
0,0,1.147,0,70,70,55,1,56,musgo,1,REAL,FAKE,60c24c8ec01a8596ba5c8b85,some,2022-03-11_11h33.53.145,lextale_sp,2021.2.3,MacIntel,66.66666667,,
0,1,5.62,0,71,71,26,1,27,acutación,0,REAL,FAKE,60c24c8ec01a8596ba5c8b85,some,2022-03-11_11h33.53.145,lextale_sp,2021.2.3,MacIntel,66.66666667,,
1,1,0.796,0,72,72,25,1,26,secuestro,1,REAL,FAKE,60c24c8ec01a8596ba5c8b85,some,2022-03-11_11h33.53.145,lextale_sp,2021.2.3,MacIntel,66.66666667,,
1,1,0.845,0,73,73,56,1,57,tacaño,1,REAL,FAKE,60c24c8ec01a8596ba5c8b85,some,2022-03-11_11h33.53.145,lextale_sp,2021.2.3,MacIntel,66.66666667,,
1,0,2.727,0,74,74,31,1,32,fatacidad,0,REAL,FAKE,60c24c8ec01a8596ba5c8b85,some,2022-03-11_11h33.53.145,lextale_sp,2021.2.3,MacIntel,66.66666667,,
1,1,0.616,0,75,75,58,1,59,besar,1,REAL,FAKE,60c24c8ec01a8596ba5c8b85,some,2022-03-11_11h33.53.145,lextale_sp,2021.2.3,MacIntel,66.66666667,,
1,0,1.689,0,76,76,57,1,58,plaudir,0,REAL,FAKE,60c24c8ec01a8596ba5c8b85,some,2022-03-11_11h33.53.145,lextale_sp,2021.2.3,MacIntel,66.66666667,,
1,0,3.668,0,77,77,83,1,84,escuto,0,REAL,FAKE,60c24c8ec01a8596ba5c8b85,some,2022-03-11_11h33.53.145,lextale_sp,2021.2.3,MacIntel,66.66666667,,
1,1,0.779,0,78,78,6,1,7,pésimo,1,REAL,FAKE,60c24c8ec01a8596ba5c8b85,some,2022-03-11_11h33.53.145,lextale_sp,2021.2.3,MacIntel,66.66666667,,
0,1,1.75,0,79,79,65,1,66,hacido,0,REAL,FAKE,60c24c8ec01a8596ba5c8b85,some,2022-03-11_11h33.53.145,lextale_sp,2021.2.3,MacIntel,66.66666667,,
1,1,1.062,0,80,80,8,1,9,hacha,1,REAL,FAKE,60c24c8ec01a8596ba5c8b85,some,2022-03-11_11h33.53.145,lextale_sp,2021.2.3,MacIntel,66.66666667,,
0,1,4.629,0,81,81,7,1,8,cadeña,0,REAL,FAKE,60c24c8ec01a8596ba5c8b85,some,2022-03-11_11h33.53.145,lextale_sp,2021.2.3,MacIntel,66.66666667,,
0,1,3.299,0,82,82,15,1,16,abracer,0,REAL,FAKE,60c24c8ec01a8596ba5c8b85,some,2022-03-11_11h33.53.145,lextale_sp,2021.2.3,MacIntel,66.66666667,,
1,1,0.711,0,83,83,4,1,5,zapato,1,REAL,FAKE,60c24c8ec01a8596ba5c8b85,some,2022-03-11_11h33.53.145,lextale_sp,2021.2.3,MacIntel,66.66666667,,
1,0,1.013,0,84,84,16,1,17,floroso,0,REAL,FAKE,60c24c8ec01a8596ba5c8b85,some,2022-03-11_11h33.53.145,lextale_sp,2021.2.3,MacIntel,66.66666667,,
1,1,3.196,0,85,85,70,1,71,polvoriento,1,REAL,FAKE,60c24c8ec01a8596ba5c8b85,some,2022-03-11_11h33.53.145,lextale_sp,2021.2.3,MacIntel,66.66666667,,
1,1,1.014,0,86,86,66,1,67,cabello,1,REAL,FAKE,60c24c8ec01a8596ba5c8b85,some,2022-03-11_11h33.53.145,lextale_sp,2021.2.3,MacIntel,66.66666667,,
1,1,0.734,0,87,87,48,1,49,ganar,1,REAL,FAKE,60c24c8ec01a8596ba5c8b85,some,2022-03-11_11h33.53.145,lextale_sp,2021.2.3,MacIntel,66.66666667,,
1,1,2.413,0,88,88,87,1,88,acantilado,1,REAL,FAKE,60c24c8ec01a8596ba5c8b85,some,2022-03-11_11h33.53.145,lextale_sp,2021.2.3,MacIntel,66.66666667,,
1,1,0.697,0,89,89,60,1,61,seda,1,REAL,FAKE,60c24c8ec01a8596ba5c8b85,some,2022-03-11_11h33.53.145,lextale_sp,2021.2.3,MacIntel,66.66666667,,
,,,,,,,,,,,,,60c24c8ec01a8596ba5c8b85,some,2022-03-11_11h33.53.145,lextale_sp,2021.2.3,MacIntel,66.66666667,space,10.306
