key_resp_lextale_trial.keys,key_resp_lextale_trial.corr,key_resp_lextale_trial.rt,trials.thisRepN,trials.thisTrialN,trials.thisN,trials.thisIndex,trials.ran,stim,word,correct_response,button_real,button_false,id,Variety of Spanish that is most familiar to you?,date,expName,psychopyVersion,OS,frameRate,key_resp.keys,key_resp.rt
1,1,1.3274,0,0,0,19,1,20,ávido,1,REAL,FAKE,5ffe6b8b773ec452c1d28adc,Colombian and Castilian,2022-03-11_22h01.55.284,lextale_sp,2021.2.3,Win32,60.06366749,,
1,1,0.9285,0,1,1,51,1,52,camisa,1,REAL,FAKE,5ffe6b8b773ec452c1d28adc,Colombian and Castilian,2022-03-11_22h01.55.284,lextale_sp,2021.2.3,Win32,60.06366749,,
0,0,3.1536,0,2,2,36,1,37,granuja,1,REAL,FAKE,5ffe6b8b773ec452c1d28adc,Colombian and Castilian,2022-03-11_22h01.55.284,lextale_sp,2021.2.3,Win32,60.06366749,,
1,1,1.1239,0,3,3,4,1,5,zapato,1,REAL,FAKE,5ffe6b8b773ec452c1d28adc,Colombian and Castilian,2022-03-11_22h01.55.284,lextale_sp,2021.2.3,Win32,60.06366749,,
0,0,1.1507,0,4,4,44,1,45,jilguero,1,REAL,FAKE,5ffe6b8b773ec452c1d28adc,Colombian and Castilian,2022-03-11_22h01.55.284,lextale_sp,2021.2.3,Win32,60.06366749,,
1,1,1.1832,0,5,5,40,1,41,rebuscar,1,REAL,FAKE,5ffe6b8b773ec452c1d28adc,Colombian and Castilian,2022-03-11_22h01.55.284,lextale_sp,2021.2.3,Win32,60.06366749,,
1,0,1.3373,0,6,6,62,1,63,esposante,0,REAL,FAKE,5ffe6b8b773ec452c1d28adc,Colombian and Castilian,2022-03-11_22h01.55.284,lextale_sp,2021.2.3,Win32,60.06366749,,
1,0,0.871,0,7,7,65,1,66,hacido,0,REAL,FAKE,5ffe6b8b773ec452c1d28adc,Colombian and Castilian,2022-03-11_22h01.55.284,lextale_sp,2021.2.3,Win32,60.06366749,,
1,1,0.7852,0,8,8,33,1,34,aviso,1,REAL,FAKE,5ffe6b8b773ec452c1d28adc,Colombian and Castilian,2022-03-11_22h01.55.284,lextale_sp,2021.2.3,Win32,60.06366749,,
0,0,1.0498,0,9,9,1,1,2,pellizcar,1,REAL,FAKE,5ffe6b8b773ec452c1d28adc,Colombian and Castilian,2022-03-11_22h01.55.284,lextale_sp,2021.2.3,Win32,60.06366749,,
1,1,0.863,0,10,10,76,1,77,tiburón,1,REAL,FAKE,5ffe6b8b773ec452c1d28adc,Colombian and Castilian,2022-03-11_22h01.55.284,lextale_sp,2021.2.3,Win32,60.06366749,,
1,1,0.6786,0,11,11,59,1,60,matar,1,REAL,FAKE,5ffe6b8b773ec452c1d28adc,Colombian and Castilian,2022-03-11_22h01.55.284,lextale_sp,2021.2.3,Win32,60.06366749,,
0,0,0.86,0,12,12,72,1,73,hervidor,1,REAL,FAKE,5ffe6b8b773ec452c1d28adc,Colombian and Castilian,2022-03-11_22h01.55.284,lextale_sp,2021.2.3,Win32,60.06366749,,
1,1,0.8265,0,13,13,79,1,80,hormiga,1,REAL,FAKE,5ffe6b8b773ec452c1d28adc,Colombian and Castilian,2022-03-11_22h01.55.284,lextale_sp,2021.2.3,Win32,60.06366749,,
0,0,0.9348,0,14,14,80,1,81,pozo,1,REAL,FAKE,5ffe6b8b773ec452c1d28adc,Colombian and Castilian,2022-03-11_22h01.55.284,lextale_sp,2021.2.3,Win32,60.06366749,,
0,0,1.1901,0,15,15,68,1,69,engatusar,1,REAL,FAKE,5ffe6b8b773ec452c1d28adc,Colombian and Castilian,2022-03-11_22h01.55.284,lextale_sp,2021.2.3,Win32,60.06366749,,
0,0,1.201,0,16,16,77,1,78,frondoso,1,REAL,FAKE,5ffe6b8b773ec452c1d28adc,Colombian and Castilian,2022-03-11_22h01.55.284,lextale_sp,2021.2.3,Win32,60.06366749,,
1,1,0.8842,0,17,17,60,1,61,seda,1,REAL,FAKE,5ffe6b8b773ec452c1d28adc,Colombian and Castilian,2022-03-11_22h01.55.284,lextale_sp,2021.2.3,Win32,60.06366749,,
0,1,1.1006,0,18,18,41,1,42,cadallo,0,REAL,FAKE,5ffe6b8b773ec452c1d28adc,Colombian and Castilian,2022-03-11_22h01.55.284,lextale_sp,2021.2.3,Win32,60.06366749,,
1,1,0.877,0,19,19,54,1,55,nevar,1,REAL,FAKE,5ffe6b8b773ec452c1d28adc,Colombian and Castilian,2022-03-11_22h01.55.284,lextale_sp,2021.2.3,Win32,60.06366749,,
1,0,0.8633,0,20,20,81,1,82,empirador,0,REAL,FAKE,5ffe6b8b773ec452c1d28adc,Colombian and Castilian,2022-03-11_22h01.55.284,lextale_sp,2021.2.3,Win32,60.06366749,,
0,1,1.1601,0,21,21,0,1,1,terzo,0,REAL,FAKE,5ffe6b8b773ec452c1d28adc,Colombian and Castilian,2022-03-11_22h01.55.284,lextale_sp,2021.2.3,Win32,60.06366749,,
1,0,1.3918,0,22,22,83,1,84,escuto,0,REAL,FAKE,5ffe6b8b773ec452c1d28adc,Colombian and Castilian,2022-03-11_22h01.55.284,lextale_sp,2021.2.3,Win32,60.06366749,,
1,1,1.0629,0,23,23,45,1,46,martillo,1,REAL,FAKE,5ffe6b8b773ec452c1d28adc,Colombian and Castilian,2022-03-11_22h01.55.284,lextale_sp,2021.2.3,Win32,60.06366749,,
0,1,0.8427,0,24,24,32,1,33,pauca,0,REAL,FAKE,5ffe6b8b773ec452c1d28adc,Colombian and Castilian,2022-03-11_22h01.55.284,lextale_sp,2021.2.3,Win32,60.06366749,,
0,1,0.829,0,25,25,86,1,87,grodo,0,REAL,FAKE,5ffe6b8b773ec452c1d28adc,Colombian and Castilian,2022-03-11_22h01.55.284,lextale_sp,2021.2.3,Win32,60.06366749,,
0,1,0.9119,0,26,26,29,1,30,alardio,0,REAL,FAKE,5ffe6b8b773ec452c1d28adc,Colombian and Castilian,2022-03-11_22h01.55.284,lextale_sp,2021.2.3,Win32,60.06366749,,
1,1,1.2752,0,27,27,11,1,12,asesinato,1,REAL,FAKE,5ffe6b8b773ec452c1d28adc,Colombian and Castilian,2022-03-11_22h01.55.284,lextale_sp,2021.2.3,Win32,60.06366749,,
1,1,0.7878,0,28,28,47,1,48,ladrón,1,REAL,FAKE,5ffe6b8b773ec452c1d28adc,Colombian and Castilian,2022-03-11_22h01.55.284,lextale_sp,2021.2.3,Win32,60.06366749,,
0,0,1.0121,0,29,29,5,1,6,tergiversar,1,REAL,FAKE,5ffe6b8b773ec452c1d28adc,Colombian and Castilian,2022-03-11_22h01.55.284,lextale_sp,2021.2.3,Win32,60.06366749,,
0,1,1.4042,0,30,30,71,1,72,pemición,0,REAL,FAKE,5ffe6b8b773ec452c1d28adc,Colombian and Castilian,2022-03-11_22h01.55.284,lextale_sp,2021.2.3,Win32,60.06366749,,
0,0,1.0276,0,31,31,84,1,85,laúd,1,REAL,FAKE,5ffe6b8b773ec452c1d28adc,Colombian and Castilian,2022-03-11_22h01.55.284,lextale_sp,2021.2.3,Win32,60.06366749,,
1,1,1.8436,0,32,32,70,1,71,polvoriento,1,REAL,FAKE,5ffe6b8b773ec452c1d28adc,Colombian and Castilian,2022-03-11_22h01.55.284,lextale_sp,2021.2.3,Win32,60.06366749,,
1,1,1.2736,0,33,33,37,1,38,estornudar,1,REAL,FAKE,5ffe6b8b773ec452c1d28adc,Colombian and Castilian,2022-03-11_22h01.55.284,lextale_sp,2021.2.3,Win32,60.06366749,,
1,0,1.6247,0,34,34,57,1,58,plaudir,0,REAL,FAKE,5ffe6b8b773ec452c1d28adc,Colombian and Castilian,2022-03-11_22h01.55.284,lextale_sp,2021.2.3,Win32,60.06366749,,
0,0,1.0532,0,35,35,50,1,51,candado,1,REAL,FAKE,5ffe6b8b773ec452c1d28adc,Colombian and Castilian,2022-03-11_22h01.55.284,lextale_sp,2021.2.3,Win32,60.06366749,,
1,1,0.9021,0,36,36,6,1,7,pésimo,1,REAL,FAKE,5ffe6b8b773ec452c1d28adc,Colombian and Castilian,2022-03-11_22h01.55.284,lextale_sp,2021.2.3,Win32,60.06366749,,
0,0,0.9002,0,37,37,55,1,56,musgo,1,REAL,FAKE,5ffe6b8b773ec452c1d28adc,Colombian and Castilian,2022-03-11_22h01.55.284,lextale_sp,2021.2.3,Win32,60.06366749,,
0,1,1.0227,0,38,38,18,1,19,brecedad,0,REAL,FAKE,5ffe6b8b773ec452c1d28adc,Colombian and Castilian,2022-03-11_22h01.55.284,lextale_sp,2021.2.3,Win32,60.06366749,,
1,0,1.0064,0,39,39,7,1,8,cadeña,0,REAL,FAKE,5ffe6b8b773ec452c1d28adc,Colombian and Castilian,2022-03-11_22h01.55.284,lextale_sp,2021.2.3,Win32,60.06366749,,
1,1,0.7067,0,40,40,48,1,49,ganar,1,REAL,FAKE,5ffe6b8b773ec452c1d28adc,Colombian and Castilian,2022-03-11_22h01.55.284,lextale_sp,2021.2.3,Win32,60.06366749,,
1,1,0.8735,0,41,41,67,1,68,alegre,1,REAL,FAKE,5ffe6b8b773ec452c1d28adc,Colombian and Castilian,2022-03-11_22h01.55.284,lextale_sp,2021.2.3,Win32,60.06366749,,
0,1,0.8043,0,42,42,17,1,18,arsa,0,REAL,FAKE,5ffe6b8b773ec452c1d28adc,Colombian and Castilian,2022-03-11_22h01.55.284,lextale_sp,2021.2.3,Win32,60.06366749,,
1,1,0.9044,0,43,43,58,1,59,besar,1,REAL,FAKE,5ffe6b8b773ec452c1d28adc,Colombian and Castilian,2022-03-11_22h01.55.284,lextale_sp,2021.2.3,Win32,60.06366749,,
0,1,0.9007,0,44,44,49,1,50,flamida,0,REAL,FAKE,5ffe6b8b773ec452c1d28adc,Colombian and Castilian,2022-03-11_22h01.55.284,lextale_sp,2021.2.3,Win32,60.06366749,,
0,1,1.3324,0,45,45,78,1,79,tropaje,0,REAL,FAKE,5ffe6b8b773ec452c1d28adc,Colombian and Castilian,2022-03-11_22h01.55.284,lextale_sp,2021.2.3,Win32,60.06366749,,
0,0,1.113,0,46,46,38,1,39,torpe,1,REAL,FAKE,5ffe6b8b773ec452c1d28adc,Colombian and Castilian,2022-03-11_22h01.55.284,lextale_sp,2021.2.3,Win32,60.06366749,,
1,1,1.3241,0,47,47,14,1,15,regar,1,REAL,FAKE,5ffe6b8b773ec452c1d28adc,Colombian and Castilian,2022-03-11_22h01.55.284,lextale_sp,2021.2.3,Win32,60.06366749,,
1,1,1.4668,0,48,48,25,1,26,secuestro,1,REAL,FAKE,5ffe6b8b773ec452c1d28adc,Colombian and Castilian,2022-03-11_22h01.55.284,lextale_sp,2021.2.3,Win32,60.06366749,,
1,0,0.9955,0,49,49,73,1,74,cintro,0,REAL,FAKE,5ffe6b8b773ec452c1d28adc,Colombian and Castilian,2022-03-11_22h01.55.284,lextale_sp,2021.2.3,Win32,60.06366749,,
0,0,1.039,0,50,50,21,1,22,lacayo,1,REAL,FAKE,5ffe6b8b773ec452c1d28adc,Colombian and Castilian,2022-03-11_22h01.55.284,lextale_sp,2021.2.3,Win32,60.06366749,,
1,1,0.9007,0,51,51,85,1,86,barato,1,REAL,FAKE,5ffe6b8b773ec452c1d28adc,Colombian and Castilian,2022-03-11_22h01.55.284,lextale_sp,2021.2.3,Win32,60.06366749,,
0,0,1.0004,0,52,52,10,1,11,cenefa,1,REAL,FAKE,5ffe6b8b773ec452c1d28adc,Colombian and Castilian,2022-03-11_22h01.55.284,lextale_sp,2021.2.3,Win32,60.06366749,,
1,1,0.8241,0,53,53,61,1,62,flaco,1,REAL,FAKE,5ffe6b8b773ec452c1d28adc,Colombian and Castilian,2022-03-11_22h01.55.284,lextale_sp,2021.2.3,Win32,60.06366749,,
0,1,0.8619,0,54,54,26,1,27,acutación,0,REAL,FAKE,5ffe6b8b773ec452c1d28adc,Colombian and Castilian,2022-03-11_22h01.55.284,lextale_sp,2021.2.3,Win32,60.06366749,,
1,0,0.8453,0,55,55,9,1,10,antar,0,REAL,FAKE,5ffe6b8b773ec452c1d28adc,Colombian and Castilian,2022-03-11_22h01.55.284,lextale_sp,2021.2.3,Win32,60.06366749,,
0,0,0.8842,0,56,56,89,1,90,clavel,1,REAL,FAKE,5ffe6b8b773ec452c1d28adc,Colombian and Castilian,2022-03-11_22h01.55.284,lextale_sp,2021.2.3,Win32,60.06366749,,
0,0,1.0337,0,57,57,23,1,24,látigo,1,REAL,FAKE,5ffe6b8b773ec452c1d28adc,Colombian and Castilian,2022-03-11_22h01.55.284,lextale_sp,2021.2.3,Win32,60.06366749,,
1,0,0.7175,0,58,58,34,1,35,rompido,0,REAL,FAKE,5ffe6b8b773ec452c1d28adc,Colombian and Castilian,2022-03-11_22h01.55.284,lextale_sp,2021.2.3,Win32,60.06366749,,
0,0,1.0723,0,59,59,12,1,13,helar,1,REAL,FAKE,5ffe6b8b773ec452c1d28adc,Colombian and Castilian,2022-03-11_22h01.55.284,lextale_sp,2021.2.3,Win32,60.06366749,,
0,1,0.9837,0,60,60,16,1,17,floroso,0,REAL,FAKE,5ffe6b8b773ec452c1d28adc,Colombian and Castilian,2022-03-11_22h01.55.284,lextale_sp,2021.2.3,Win32,60.06366749,,
1,1,0.8835,0,61,61,2,1,3,pulmones,1,REAL,FAKE,5ffe6b8b773ec452c1d28adc,Colombian and Castilian,2022-03-11_22h01.55.284,lextale_sp,2021.2.3,Win32,60.06366749,,
0,0,1.4855,0,62,62,24,1,25,bisagra,1,REAL,FAKE,5ffe6b8b773ec452c1d28adc,Colombian and Castilian,2022-03-11_22h01.55.284,lextale_sp,2021.2.3,Win32,60.06366749,,
1,1,1.424,0,63,63,64,1,65,bizcocho,1,REAL,FAKE,5ffe6b8b773ec452c1d28adc,Colombian and Castilian,2022-03-11_22h01.55.284,lextale_sp,2021.2.3,Win32,60.06366749,,
0,0,0.9337,0,64,64,53,1,54,fomentar,1,REAL,FAKE,5ffe6b8b773ec452c1d28adc,Colombian and Castilian,2022-03-11_22h01.55.284,lextale_sp,2021.2.3,Win32,60.06366749,,
0,0,1.4221,0,65,65,56,1,57,tacaño,1,REAL,FAKE,5ffe6b8b773ec452c1d28adc,Colombian and Castilian,2022-03-11_22h01.55.284,lextale_sp,2021.2.3,Win32,60.06366749,,
1,0,0.8928,0,66,66,28,1,29,decar,0,REAL,FAKE,5ffe6b8b773ec452c1d28adc,Colombian and Castilian,2022-03-11_22h01.55.284,lextale_sp,2021.2.3,Win32,60.06366749,,
1,1,0.9071,0,67,67,30,1,31,pandilla,1,REAL,FAKE,5ffe6b8b773ec452c1d28adc,Colombian and Castilian,2022-03-11_22h01.55.284,lextale_sp,2021.2.3,Win32,60.06366749,,
0,0,1.0169,0,68,68,27,1,28,merodear,1,REAL,FAKE,5ffe6b8b773ec452c1d28adc,Colombian and Castilian,2022-03-11_22h01.55.284,lextale_sp,2021.2.3,Win32,60.06366749,,
1,0,1.2293,0,69,69,46,1,47,cartinar,0,REAL,FAKE,5ffe6b8b773ec452c1d28adc,Colombian and Castilian,2022-03-11_22h01.55.284,lextale_sp,2021.2.3,Win32,60.06366749,,
0,0,0.9915,0,70,70,35,1,36,loro,1,REAL,FAKE,5ffe6b8b773ec452c1d28adc,Colombian and Castilian,2022-03-11_22h01.55.284,lextale_sp,2021.2.3,Win32,60.06366749,,
1,1,0.7193,0,71,71,82,1,83,guante,1,REAL,FAKE,5ffe6b8b773ec452c1d28adc,Colombian and Castilian,2022-03-11_22h01.55.284,lextale_sp,2021.2.3,Win32,60.06366749,,
0,0,1.0829,0,72,72,13,1,14,yunque,1,REAL,FAKE,5ffe6b8b773ec452c1d28adc,Colombian and Castilian,2022-03-11_22h01.55.284,lextale_sp,2021.2.3,Win32,60.06366749,,
0,1,1.0515,0,73,73,52,1,53,vegada,0,REAL,FAKE,5ffe6b8b773ec452c1d28adc,Colombian and Castilian,2022-03-11_22h01.55.284,lextale_sp,2021.2.3,Win32,60.06366749,,
0,0,1.1167,0,74,74,87,1,88,acantilado,1,REAL,FAKE,5ffe6b8b773ec452c1d28adc,Colombian and Castilian,2022-03-11_22h01.55.284,lextale_sp,2021.2.3,Win32,60.06366749,,
0,0,1.249,0,75,75,74,1,75,yacer,1,REAL,FAKE,5ffe6b8b773ec452c1d28adc,Colombian and Castilian,2022-03-11_22h01.55.284,lextale_sp,2021.2.3,Win32,60.06366749,,
0,1,1.2428,0,76,76,31,1,32,fatacidad,0,REAL,FAKE,5ffe6b8b773ec452c1d28adc,Colombian and Castilian,2022-03-11_22h01.55.284,lextale_sp,2021.2.3,Win32,60.06366749,,
0,0,1.2619,0,77,77,42,1,43,canela,1,REAL,FAKE,5ffe6b8b773ec452c1d28adc,Colombian and Castilian,2022-03-11_22h01.55.284,lextale_sp,2021.2.3,Win32,60.06366749,,
1,0,0.9772,0,78,78,15,1,16,abracer,0,REAL,FAKE,5ffe6b8b773ec452c1d28adc,Colombian and Castilian,2022-03-11_22h01.55.284,lextale_sp,2021.2.3,Win32,60.06366749,,
0,0,1.9168,0,79,79,75,1,76,atar,1,REAL,FAKE,5ffe6b8b773ec452c1d28adc,Colombian and Castilian,2022-03-11_22h01.55.284,lextale_sp,2021.2.3,Win32,60.06366749,,
1,0,0.9451,0,80,80,22,1,23,lampera,0,REAL,FAKE,5ffe6b8b773ec452c1d28adc,Colombian and Castilian,2022-03-11_22h01.55.284,lextale_sp,2021.2.3,Win32,60.06366749,,
0,1,1.2621,0,81,81,20,1,21,capillo,0,REAL,FAKE,5ffe6b8b773ec452c1d28adc,Colombian and Castilian,2022-03-11_22h01.55.284,lextale_sp,2021.2.3,Win32,60.06366749,,
1,1,0.9706,0,82,82,43,1,44,cuchara,1,REAL,FAKE,5ffe6b8b773ec452c1d28adc,Colombian and Castilian,2022-03-11_22h01.55.284,lextale_sp,2021.2.3,Win32,60.06366749,,
1,1,0.8361,0,83,83,39,1,40,alfombra,1,REAL,FAKE,5ffe6b8b773ec452c1d28adc,Colombian and Castilian,2022-03-11_22h01.55.284,lextale_sp,2021.2.3,Win32,60.06366749,,
0,0,2.3919,0,84,84,8,1,9,hacha,1,REAL,FAKE,5ffe6b8b773ec452c1d28adc,Colombian and Castilian,2022-03-11_22h01.55.284,lextale_sp,2021.2.3,Win32,60.06366749,,
0,0,0.8768,0,85,85,88,1,89,prisa,1,REAL,FAKE,5ffe6b8b773ec452c1d28adc,Colombian and Castilian,2022-03-11_22h01.55.284,lextale_sp,2021.2.3,Win32,60.06366749,,
0,1,0.8178,0,86,86,69,1,70,temblo,0,REAL,FAKE,5ffe6b8b773ec452c1d28adc,Colombian and Castilian,2022-03-11_22h01.55.284,lextale_sp,2021.2.3,Win32,60.06366749,,
1,1,0.8174,0,87,87,63,1,64,orgulloso,1,REAL,FAKE,5ffe6b8b773ec452c1d28adc,Colombian and Castilian,2022-03-11_22h01.55.284,lextale_sp,2021.2.3,Win32,60.06366749,,
1,1,0.7714,0,88,88,66,1,67,cabello,1,REAL,FAKE,5ffe6b8b773ec452c1d28adc,Colombian and Castilian,2022-03-11_22h01.55.284,lextale_sp,2021.2.3,Win32,60.06366749,,
1,0,1.0708,0,89,89,3,1,4,batillón,0,REAL,FAKE,5ffe6b8b773ec452c1d28adc,Colombian and Castilian,2022-03-11_22h01.55.284,lextale_sp,2021.2.3,Win32,60.06366749,,
,,,,,,,,,,,,,5ffe6b8b773ec452c1d28adc,Colombian and Castilian,2022-03-11_22h01.55.284,lextale_sp,2021.2.3,Win32,60.06366749,space,42.2123
