lextale_instructions.started,lextale_instructions.stopped,lextale_instructions_loop.thisRepN,lextale_instructions_loop.thisTrialN,lextale_instructions_loop.thisN,lextale_instructions_loop.thisIndex,lextale_instructions_loop.ran,instructions_text,continue_text,participant,session,date,expName,psychopyVersion,OS,frameRate,lextale_practice.started,lextale_practice.stopped,key_resp_lextale_practice.keys,key_resp_lextale_practice.corr,key_resp_lextale_practice.rt,key_resp_lextale_practice.duration,lextale_practice_feedback.started,lextale_practice_feedback.stopped,lextale_practice_trials.thisRepN,lextale_practice_trials.thisTrialN,lextale_practice_trials.thisN,lextale_practice_trials.thisIndex,lextale_practice_trials.ran,stim,word,correct_response,prac_button_real,prac_button_false,lextale_check.started,lextale_check.stopped,lextale_trial.started,lextale_trial.stopped,key_resp_lextale_trial.keys,key_resp_lextale_trial.corr,key_resp_lextale_trial.rt,key_resp_lextale_trial.duration,lextail_trials.thisRepN,lextail_trials.thisTrialN,lextail_trials.thisN,lextail_trials.thisIndex,lextail_trials.ran,type,correct_reponse,button_real,button_false
0.0021,1.3733,0,0,0,0,1,"Este es un test de vocabulario en español. 
  
  A continuación vas a ver 90 secuencias de letras que parecen 'españolas'.
  
  Solo algunas de ellas son palabras de verdad.",(presiona la barra espaciadora para continuar),5b20c0474c72120001f25d90,001,2024-06-30_07h19.03.542,empathy_intonation_perc,2024.1.4,MacIntel,62.5,,,,,,,,,,,,,,,,,,,,,,,,,,,,,,,,,,,
1.3739,1.6056,0,1,1,1,1,"Por favor, señala las palabras que tú conoces (aquellas que estás convencido que son palabras españolas, incluso aunque no seas capaz de dar el significado preciso).",(presiona la barra espaciadora para continuar),5b20c0474c72120001f25d90,001,2024-06-30_07h19.03.542,empathy_intonation_perc,2024.1.4,MacIntel,62.5,,,,,,,,,,,,,,,,,,,,,,,,,,,,,,,,,,,
1.6058,1.9057,0,2,2,2,1,Pero cuidado: los errores se penalizan. Por eso no tiene sentido tratar de incrementar tu puntuación marcando como reales palabras que nunca has visto.,(presiona la barra espaciadora para continuar),5b20c0474c72120001f25d90,001,2024-06-30_07h19.03.542,empathy_intonation_perc,2024.1.4,MacIntel,62.5,,,,,,,,,,,,,,,,,,,,,,,,,,,,,,,,,,,
1.906,2.2261,0,3,3,3,1,"Presiona la tecla 1 si piensas que es una palabra real y la tecla 
  0 si piensas que es una palabra falsa. 
  
  Vamos a practicar un poco...",(presiona la barra espaciadora para continuar),5b20c0474c72120001f25d90,001,2024-06-30_07h19.03.542,empathy_intonation_perc,2024.1.4,MacIntel,62.5,,,,,,,,,,,,,,,,,,,,,,,,,,,,,,,,,,,
,,,,,,,,,5b20c0474c72120001f25d90,001,2024-06-30_07h19.03.542,empathy_intonation_perc,2024.1.4,MacIntel,62.5,2.2277,5.3567,1,0,2.5811,,5.3567,6.3449,0,0,0,0,1,0,depiste,0,REAL,FALSA,,,,,,,,,,,,,,,,,
,,,,,,,,,5b20c0474c72120001f25d90,001,2024-06-30_07h19.03.542,empathy_intonation_perc,2024.1.4,MacIntel,62.5,6.3582,7.6061,1,1,0.71,,7.6061,8.6093,0,1,1,1,1,0,sí,1,REAL,FALSA,,,,,,,,,,,,,,,,,
,,,,,,,,,5b20c0474c72120001f25d90,001,2024-06-30_07h19.03.542,empathy_intonation_perc,2024.1.4,MacIntel,62.5,8.6095,10.3229,1,0,1.1634,,10.323,11.3292,0,2,2,2,1,0,coné,0,REAL,FALSA,,,,,,,,,,,,,,,,,
,,,,,,,,,5b20c0474c72120001f25d90,001,2024-06-30_07h19.03.542,empathy_intonation_perc,2024.1.4,MacIntel,62.5,11.3412,12.5886,1,0,0.7131,,12.5886,13.5869,0,3,3,3,1,0,calpar,0,REAL,FALSA,,,,,,,,,,,,,,,,,
,,,,,,,,,5b20c0474c72120001f25d90,001,2024-06-30_07h19.03.542,empathy_intonation_perc,2024.1.4,MacIntel,62.5,13.5873,15.0861,1,0,0.948,,15.0861,16.0838,0,4,4,4,1,0,joten,0,REAL,FALSA,,,,,,,,,,,,,,,,,
,,,,,,,,,5b20c0474c72120001f25d90,001,2024-06-30_07h19.03.542,empathy_intonation_perc,2024.1.4,MacIntel,62.5,16.0841,17.5548,0,0,0.916,,17.5548,18.5558,0,5,5,5,1,0,sacapuntas,1,REAL,FALSA,,,,,,,,,,,,,,,,,
,,,,,,,,,5b20c0474c72120001f25d90,001,2024-06-30_07h19.03.542,empathy_intonation_perc,2024.1.4,MacIntel,62.5,18.5563,20.2602,0,1,1.1668,,20.2602,21.2521,0,6,6,6,1,0,priba,0,REAL,FALSA,,,,,,,,,,,,,,,,,
,,,,,,,,,5b20c0474c72120001f25d90,001,2024-06-30_07h19.03.542,empathy_intonation_perc,2024.1.4,MacIntel,62.5,21.2656,23.0889,1,0,1.2788,,23.089,24.0693,0,7,7,7,1,0,pelasula,0,REAL,FALSA,,,,,,,,,,,,,,,,,
,,,,,,,,,5b20c0474c72120001f25d90,001,2024-06-30_07h19.03.542,empathy_intonation_perc,2024.1.4,MacIntel,62.5,24.0698,25.9688,1,1,1.3568,,25.9688,26.9768,0,8,8,8,1,0,bien,1,REAL,FALSA,,,,,,,,,,,,,,,,,
,,,,,,,,,5b20c0474c72120001f25d90,001,2024-06-30_07h19.03.542,empathy_intonation_perc,2024.1.4,MacIntel,62.5,26.9881,28.3537,1,1,0.8274,,28.3537,29.3545,0,9,9,9,1,0,casa,1,REAL,FALSA,,,,,,,,,,,,,,,,,
,,,,,,,,,5b20c0474c72120001f25d90,001,2024-06-30_07h19.03.542,empathy_intonation_perc,2024.1.4,MacIntel,62.5,29.355,30.6015,0,1,0.7251,,30.6015,31.585,0,10,10,10,1,0,lejo,0,REAL,FALSA,,,,,,,,,,,,,,,,,
,,,,,,,,,5b20c0474c72120001f25d90,001,2024-06-30_07h19.03.542,empathy_intonation_perc,2024.1.4,MacIntel,62.5,31.5854,32.9774,1,0,0.8485,,32.9774,33.9735,0,11,11,11,1,0,pretantas,0,REAL,FALSA,,,,,,,,,,,,,,,,,
,,,,,,,,,5b20c0474c72120001f25d90,001,2024-06-30_07h19.03.542,empathy_intonation_perc,2024.1.4,MacIntel,62.5,,,,,,,,,,,,,,,,,,,33.9742,44.0715,,,,,,,,,,,,,,,
,,,,,,,,,5b20c0474c72120001f25d90,001,2024-06-30_07h19.03.542,empathy_intonation_perc,2024.1.4,MacIntel,62.5,,,,,,,,,,,,,,147,alla,,,,,,44.0926,45.6786,0,1,1.0505,,0,0,0,146,1,pseudoword,0,REAL,FALSA
,,,,,,,,,5b20c0474c72120001f25d90,001,2024-06-30_07h19.03.542,empathy_intonation_perc,2024.1.4,MacIntel,62.5,,,,,,,,,,,,,,139,sasos,,,,,,45.6792,47.1908,0,1,0.9632,,0,1,1,138,1,pseudoword,0,REAL,FALSA
,,,,,,,,,5b20c0474c72120001f25d90,001,2024-06-30_07h19.03.542,empathy_intonation_perc,2024.1.4,MacIntel,62.5,,,,,,,,,,,,,,121,barbs,,,,,,47.1911,48.7378,0,1,1.027,,0,2,2,120,1,pseudoword,0,REAL,FALSA
,,,,,,,,,5b20c0474c72120001f25d90,001,2024-06-30_07h19.03.542,empathy_intonation_perc,2024.1.4,MacIntel,62.5,,,,,,,,,,,,,,91,equipo,,,,,,48.7381,50.4078,1,0,1.1481,,0,3,3,90,1,non_cognate,1,REAL,FALSA
,,,,,,,,,5b20c0474c72120001f25d90,001,2024-06-30_07h19.03.542,empathy_intonation_perc,2024.1.4,MacIntel,62.5,,,,,,,,,,,,,,93,tapa,,,,,,50.4082,51.5925,1,0,0.6337,,0,4,4,92,1,non_cognate,1,REAL,FALSA
,,,,,,,,,5b20c0474c72120001f25d90,001,2024-06-30_07h19.03.542,empathy_intonation_perc,2024.1.4,MacIntel,62.5,,,,,,,,,,,,,,98,martir,,,,,,51.5929,52.8058,0,1,0.6787,,0,5,5,97,1,pseudoword,0,REAL,FALSA
,,,,,,,,,5b20c0474c72120001f25d90,001,2024-06-30_07h19.03.542,empathy_intonation_perc,2024.1.4,MacIntel,62.5,,,,,,,,,,,,,,154,harvé,,,,,,52.8062,54.2043,1,0,0.8497,,0,6,6,153,1,pseudoword,0,REAL,FALSA
,,,,,,,,,5b20c0474c72120001f25d90,001,2024-06-30_07h19.03.542,empathy_intonation_perc,2024.1.4,MacIntel,62.5,,,,,,,,,,,,,,138,tator,,,,,,54.2045,55.4723,0,1,0.7303,,0,7,7,137,1,pseudoword,0,REAL,FALSA
,,,,,,,,,5b20c0474c72120001f25d90,001,2024-06-30_07h19.03.542,empathy_intonation_perc,2024.1.4,MacIntel,62.5,,,,,,,,,,,,,,153,golla,,,,,,55.4725,56.8068,1,0,0.7854,,0,8,8,152,1,pseudoword,0,REAL,FALSA
,,,,,,,,,5b20c0474c72120001f25d90,001,2024-06-30_07h19.03.542,empathy_intonation_perc,2024.1.4,MacIntel,62.5,,,,,,,,,,,,,,87,muleta,,,,,,56.8072,58.0051,1,0,0.6688,,0,9,9,86,1,non_cognate,1,REAL,FALSA
,,,,,,,,,5b20c0474c72120001f25d90,001,2024-06-30_07h19.03.542,empathy_intonation_perc,2024.1.4,MacIntel,62.5,,,,,,,,,,,,,,20,trauma,,,,,,58.0055,60.3405,1,0,1.7963,,0,10,10,19,1,three_way_cognate,1,REAL,FALSA
,,,,,,,,,5b20c0474c72120001f25d90,001,2024-06-30_07h19.03.542,empathy_intonation_perc,2024.1.4,MacIntel,62.5,,,,,,,,,,,,,,126,tobre,,,,,,60.3539,61.6977,1,0,0.8053,,0,11,11,125,1,pseudoword,0,REAL,FALSA
,,,,,,,,,5b20c0474c72120001f25d90,001,2024-06-30_07h19.03.542,empathy_intonation_perc,2024.1.4,MacIntel,62.5,,,,,,,,,,,,,,27,piano,,,,,,61.6979,66.1224,1,0,3.8813,,0,12,12,26,1,two_way_cognate,1,REAL,FALSA
,,,,,,,,,5b20c0474c72120001f25d90,001,2024-06-30_07h19.03.542,empathy_intonation_perc,2024.1.4,MacIntel,62.5,,,,,,,,,,,,,,171,gotro,,,,,,66.1229,67.4533,0,1,0.7932,,0,13,13,170,1,pseudoword,0,REAL,FALSA
,,,,,,,,,5b20c0474c72120001f25d90,001,2024-06-30_07h19.03.542,empathy_intonation_perc,2024.1.4,MacIntel,62.5,,,,,,,,,,,,,,78,rendir,,,,,,67.4535,68.8348,1,0,0.8411,,0,14,14,77,1,non_cognate,1,REAL,FALSA
,,,,,,,,,5b20c0474c72120001f25d90,001,2024-06-30_07h19.03.542,empathy_intonation_perc,2024.1.4,MacIntel,62.5,,,,,,,,,,,,,,95,listo,,,,,,68.8352,69.9516,1,0,0.574,,0,15,15,94,1,non_cognate,1,REAL,FALSA
,,,,,,,,,5b20c0474c72120001f25d90,001,2024-06-30_07h19.03.542,empathy_intonation_perc,2024.1.4,MacIntel,62.5,,,,,,,,,,,,,,155,kugis,,,,,,69.9518,71.0612,0,1,0.5727,,0,16,16,154,1,pseudoword,0,REAL,FALSA
,,,,,,,,,5b20c0474c72120001f25d90,001,2024-06-30_07h19.03.542,empathy_intonation_perc,2024.1.4,MacIntel,62.5,,,,,,,,,,,,,,120,mauja,,,,,,71.0614,72.4572,1,0,0.8527,,0,17,17,119,1,pseudoword,0,REAL,FALSA
,,,,,,,,,5b20c0474c72120001f25d90,001,2024-06-30_07h19.03.542,empathy_intonation_perc,2024.1.4,MacIntel,62.5,,,,,,,,,,,,,,148,gino,,,,,,72.4577,73.7077,1,0,0.7159,,0,18,18,147,1,pseudoword,0,REAL,FALSA
,,,,,,,,,5b20c0474c72120001f25d90,001,2024-06-30_07h19.03.542,empathy_intonation_perc,2024.1.4,MacIntel,62.5,,,,,,,,,,,,,,58,colcha,,,,,,73.7082,74.9433,1,0,0.6721,,0,19,19,57,1,non_cognate,1,REAL,FALSA
,,,,,,,,,5b20c0474c72120001f25d90,001,2024-06-30_07h19.03.542,empathy_intonation_perc,2024.1.4,MacIntel,62.5,,,,,,,,,,,,,,175,tradía,,,,,,74.9436,76.3291,0,1,0.8407,,0,20,20,174,1,pseudoword,0,REAL,FALSA
,,,,,,,,,5b20c0474c72120001f25d90,001,2024-06-30_07h19.03.542,empathy_intonation_perc,2024.1.4,MacIntel,62.5,,,,,,,,,,,,,,107,plago,,,,,,76.3294,77.957,0,1,1.0985,,0,21,21,106,1,pseudoword,0,REAL,FALSA
,,,,,,,,,5b20c0474c72120001f25d90,001,2024-06-30_07h19.03.542,empathy_intonation_perc,2024.1.4,MacIntel,62.5,,,,,,,,,,,,,,80,cuenco,,,,,,77.9574,79.0844,0,1,0.5774,,0,22,22,79,1,non_cognate,1,REAL,FALSA
,,,,,,,,,5b20c0474c72120001f25d90,001,2024-06-30_07h19.03.542,empathy_intonation_perc,2024.1.4,MacIntel,62.5,,,,,,,,,,,,,,76,chocar,,,,,,79.0847,80.4189,0,1,0.7921,,0,23,23,75,1,non_cognate,1,REAL,FALSA
,,,,,,,,,5b20c0474c72120001f25d90,001,2024-06-30_07h19.03.542,empathy_intonation_perc,2024.1.4,MacIntel,62.5,,,,,,,,,,,,,,15,test,,,,,,80.4192,82.1337,0,1,1.1916,,0,24,24,14,1,three_way_cognate,1,REAL,FALSA
,,,,,,,,,5b20c0474c72120001f25d90,001,2024-06-30_07h19.03.542,empathy_intonation_perc,2024.1.4,MacIntel,62.5,,,,,,,,,,,,,,174,pabea,,,,,,82.1339,83.5005,1,0,0.8221,,0,25,25,173,1,pseudoword,0,REAL,FALSA
,,,,,,,,,5b20c0474c72120001f25d90,001,2024-06-30_07h19.03.542,empathy_intonation_perc,2024.1.4,MacIntel,62.5,,,,,,,,,,,,,,12,dogma,,,,,,83.5009,84.9517,0,1,0.907,,0,26,26,11,1,three_way_cognate,1,REAL,FALSA
,,,,,,,,,5b20c0474c72120001f25d90,001,2024-06-30_07h19.03.542,empathy_intonation_perc,2024.1.4,MacIntel,62.5,,,,,,,,,,,,,,104,estulo,,,,,,84.9521,86.6086,1,0,1.1312,,0,27,27,103,1,pseudoword,0,REAL,FALSA
,,,,,,,,,5b20c0474c72120001f25d90,001,2024-06-30_07h19.03.542,empathy_intonation_perc,2024.1.4,MacIntel,62.5,,,,,,,,,,,,,,73,llevar,,,,,,86.6089,87.7732,1,0,0.6305,,0,28,28,72,1,non_cognate,1,REAL,FALSA
,,,,,,,,,5b20c0474c72120001f25d90,001,2024-06-30_07h19.03.542,empathy_intonation_perc,2024.1.4,MacIntel,62.5,,,,,,,,,,,,,,32,animal,,,,,,87.7736,89.3224,1,0,1.0116,,0,29,29,31,1,two_way_cognate,1,REAL,FALSA
,,,,,,,,,5b20c0474c72120001f25d90,001,2024-06-30_07h19.03.542,empathy_intonation_perc,2024.1.4,MacIntel,62.5,,,,,,,,,,,,,,9,portal,,,,,,89.3227,90.436,1,0,0.5587,,0,30,30,8,1,three_way_cognate,1,REAL,FALSA
,,,,,,,,,5b20c0474c72120001f25d90,001,2024-06-30_07h19.03.542,empathy_intonation_perc,2024.1.4,MacIntel,62.5,,,,,,,,,,,,,,42,rumor,,,,,,90.4362,92.1592,1,0,1.1821,,0,31,31,41,1,two_way_cognate,1,REAL,FALSA
,,,,,,,,,5b20c0474c72120001f25d90,001,2024-06-30_07h19.03.542,empathy_intonation_perc,2024.1.4,MacIntel,62.5,,,,,,,,,,,,,,152,prave,,,,,,92.1594,93.4578,0,1,0.766,,0,32,32,151,1,pseudoword,0,REAL,FALSA
,,,,,,,,,5b20c0474c72120001f25d90,001,2024-06-30_07h19.03.542,empathy_intonation_perc,2024.1.4,MacIntel,62.5,,,,,,,,,,,,,,141,virios,,,,,,93.4581,94.7206,0,1,0.7096,,0,33,33,140,1,pseudoword,0,REAL,FALSA
,,,,,,,,,5b20c0474c72120001f25d90,001,2024-06-30_07h19.03.542,empathy_intonation_perc,2024.1.4,MacIntel,62.5,,,,,,,,,,,,,,156,ozoso,,,,,,94.721,95.9545,0,1,0.6938,,0,34,34,155,1,pseudoword,0,REAL,FALSA
,,,,,,,,,5b20c0474c72120001f25d90,001,2024-06-30_07h19.03.542,empathy_intonation_perc,2024.1.4,MacIntel,62.5,,,,,,,,,,,,,,19,mafia,,,,,,95.9548,97.3283,1,0,0.8343,,0,35,35,18,1,three_way_cognate,1,REAL,FALSA
,,,,,,,,,5b20c0474c72120001f25d90,001,2024-06-30_07h19.03.542,empathy_intonation_perc,2024.1.4,MacIntel,62.5,,,,,,,,,,,,,,132,nocó,,,,,,97.3288,98.5903,1,0,0.7023,,0,36,36,131,1,pseudoword,0,REAL,FALSA
,,,,,,,,,5b20c0474c72120001f25d90,001,2024-06-30_07h19.03.542,empathy_intonation_perc,2024.1.4,MacIntel,62.5,,,,,,,,,,,,,,88,percha,,,,,,98.5906,99.742,1,0,0.6176,,0,37,37,87,1,non_cognate,1,REAL,FALSA
,,,,,,,,,5b20c0474c72120001f25d90,001,2024-06-30_07h19.03.542,empathy_intonation_perc,2024.1.4,MacIntel,62.5,,,,,,,,,,,,,,21,hotel,,,,,,99.7423,100.9212,1,0,0.617,,0,38,38,20,1,three_way_cognate,1,REAL,FALSA
,,,,,,,,,5b20c0474c72120001f25d90,001,2024-06-30_07h19.03.542,empathy_intonation_perc,2024.1.4,MacIntel,62.5,,,,,,,,,,,,,,145,rúo,,,,,,100.9216,102.074,0,1,0.6208,,0,39,39,144,1,pseudoword,0,REAL,FALSA
,,,,,,,,,5b20c0474c72120001f25d90,001,2024-06-30_07h19.03.542,empathy_intonation_perc,2024.1.4,MacIntel,62.5,,,,,,,,,,,,,,69,tiza,,,,,,102.0743,103.3873,1,0,0.7787,,0,40,40,68,1,non_cognate,1,REAL,FALSA
,,,,,,,,,5b20c0474c72120001f25d90,001,2024-06-30_07h19.03.542,empathy_intonation_perc,2024.1.4,MacIntel,62.5,,,,,,,,,,,,,,103,vueras,,,,,,103.3877,104.81,0,1,0.8833,,0,41,41,102,1,pseudoword,0,REAL,FALSA
,,,,,,,,,5b20c0474c72120001f25d90,001,2024-06-30_07h19.03.542,empathy_intonation_perc,2024.1.4,MacIntel,62.5,,,,,,,,,,,,,,13,plan,,,,,,104.8102,106.2044,1,0,0.8502,,0,42,42,12,1,three_way_cognate,1,REAL,FALSA
,,,,,,,,,5b20c0474c72120001f25d90,001,2024-06-30_07h19.03.542,empathy_intonation_perc,2024.1.4,MacIntel,62.5,,,,,,,,,,,,,,60,siglo,,,,,,106.2047,108.1867,1,0,1.4279,,0,43,43,59,1,non_cognate,1,REAL,FALSA
,,,,,,,,,5b20c0474c72120001f25d90,001,2024-06-30_07h19.03.542,empathy_intonation_perc,2024.1.4,MacIntel,62.5,,,,,,,,,,,,,,167,dobbo,,,,,,108.1872,109.4895,0,1,0.7785,,0,44,44,166,1,pseudoword,0,REAL,FALSA
,,,,,,,,,5b20c0474c72120001f25d90,001,2024-06-30_07h19.03.542,empathy_intonation_perc,2024.1.4,MacIntel,62.5,,,,,,,,,,,,,,146,gió,,,,,,109.4898,111.1853,1,0,1.1598,,0,45,45,145,1,pseudoword,0,REAL,FALSA
,,,,,,,,,5b20c0474c72120001f25d90,001,2024-06-30_07h19.03.542,empathy_intonation_perc,2024.1.4,MacIntel,62.5,,,,,,,,,,,,,,170,diabo,,,,,,111.1856,112.4442,1,0,0.7173,,0,46,46,169,1,pseudoword,0,REAL,FALSA
,,,,,,,,,5b20c0474c72120001f25d90,001,2024-06-30_07h19.03.542,empathy_intonation_perc,2024.1.4,MacIntel,62.5,,,,,,,,,,,,,,116,grigir,,,,,,112.4445,113.9101,1,0,0.9061,,0,47,47,115,1,pseudoword,0,REAL,FALSA
,,,,,,,,,5b20c0474c72120001f25d90,001,2024-06-30_07h19.03.542,empathy_intonation_perc,2024.1.4,MacIntel,62.5,,,,,,,,,,,,,,185,aljizo,,,,,,113.9104,115.5417,1,0,1.0844,,0,48,48,184,1,pseudoword,0,REAL,FALSA
,,,,,,,,,5b20c0474c72120001f25d90,001,2024-06-30_07h19.03.542,empathy_intonation_perc,2024.1.4,MacIntel,62.5,,,,,,,,,,,,,,33,collar,,,,,,115.542,117.5676,1,0,1.4765,,0,49,49,32,1,two_way_cognate,1,REAL,FALSA
,,,,,,,,,5b20c0474c72120001f25d90,001,2024-06-30_07h19.03.542,empathy_intonation_perc,2024.1.4,MacIntel,62.5,,,,,,,,,,,,,,55,maldad,,,,,,117.568,119.1536,0,1,1.0431,,0,50,50,54,1,non_cognate,1,REAL,FALSA
,,,,,,,,,5b20c0474c72120001f25d90,001,2024-06-30_07h19.03.542,empathy_intonation_perc,2024.1.4,MacIntel,62.5,,,,,,,,,,,,,,180,pupica,,,,,,119.1539,120.6412,0,1,0.9556,,0,51,51,179,1,pseudoword,0,REAL,FALSA
,,,,,,,,,5b20c0474c72120001f25d90,001,2024-06-30_07h19.03.542,empathy_intonation_perc,2024.1.4,MacIntel,62.5,,,,,,,,,,,,,,25,vigor,,,,,,120.6416,122.2385,1,0,1.0624,,0,52,52,24,1,two_way_cognate,1,REAL,FALSA
,,,,,,,,,5b20c0474c72120001f25d90,001,2024-06-30_07h19.03.542,empathy_intonation_perc,2024.1.4,MacIntel,62.5,,,,,,,,,,,,,,31,civil,,,,,,122.2389,123.7869,0,1,1.0106,,0,53,53,30,1,two_way_cognate,1,REAL,FALSA
,,,,,,,,,5b20c0474c72120001f25d90,001,2024-06-30_07h19.03.542,empathy_intonation_perc,2024.1.4,MacIntel,62.5,,,,,,,,,,,,,,133,conso,,,,,,123.7872,125.588,1,0,1.2521,,0,54,54,132,1,pseudoword,0,REAL,FALSA
,,,,,,,,,5b20c0474c72120001f25d90,001,2024-06-30_07h19.03.542,empathy_intonation_perc,2024.1.4,MacIntel,62.5,,,,,,,,,,,,,,159,trcia,,,,,,125.5885,127.0861,0,1,0.9598,,0,55,55,158,1,pseudoword,0,REAL,FALSA
,,,,,,,,,5b20c0474c72120001f25d90,001,2024-06-30_07h19.03.542,empathy_intonation_perc,2024.1.4,MacIntel,62.5,,,,,,,,,,,,,,110,densó,,,,,,127.0865,128.5752,0,1,0.9497,,0,56,56,109,1,pseudoword,0,REAL,FALSA
,,,,,,,,,5b20c0474c72120001f25d90,001,2024-06-30_07h19.03.542,empathy_intonation_perc,2024.1.4,MacIntel,62.5,,,,,,,,,,,,,,86,cuenco,,,,,,128.5755,130.3249,1,0,1.1979,,0,57,57,85,1,non_cognate,1,REAL,FALSA
,,,,,,,,,5b20c0474c72120001f25d90,001,2024-06-30_07h19.03.542,empathy_intonation_perc,2024.1.4,MacIntel,62.5,,,,,,,,,,,,,,114,dibrea,,,,,,130.3253,131.5247,0,1,0.6517,,0,58,58,113,1,pseudoword,0,REAL,FALSA
,,,,,,,,,5b20c0474c72120001f25d90,001,2024-06-30_07h19.03.542,empathy_intonation_perc,2024.1.4,MacIntel,62.5,,,,,,,,,,,,,,38,halo,,,,,,131.5251,132.9845,1,0,0.9144,,0,59,59,37,1,two_way_cognate,1,REAL,FALSA
,,,,,,,,,5b20c0474c72120001f25d90,001,2024-06-30_07h19.03.542,empathy_intonation_perc,2024.1.4,MacIntel,62.5,,,,,,,,,,,,,,118,bará,,,,,,132.9848,134.225,1,0,0.7011,,0,60,60,117,1,pseudoword,0,REAL,FALSA
,,,,,,,,,5b20c0474c72120001f25d90,001,2024-06-30_07h19.03.542,empathy_intonation_perc,2024.1.4,MacIntel,62.5,,,,,,,,,,,,,,182,desaro,,,,,,134.2253,136.0266,1,0,1.2396,,0,61,61,181,1,pseudoword,0,REAL,FALSA
,,,,,,,,,5b20c0474c72120001f25d90,001,2024-06-30_07h19.03.542,empathy_intonation_perc,2024.1.4,MacIntel,62.5,,,,,,,,,,,,,,119,esís,,,,,,136.0269,137.3217,0,1,0.7633,,0,62,62,118,1,pseudoword,0,REAL,FALSA
,,,,,,,,,5b20c0474c72120001f25d90,001,2024-06-30_07h19.03.542,empathy_intonation_perc,2024.1.4,MacIntel,62.5,,,,,,,,,,,,,,191,frasis,,,,,,137.3222,138.9895,0,1,1.1294,,0,63,63,190,1,pseudoword,0,REAL,FALSA
,,,,,,,,,5b20c0474c72120001f25d90,001,2024-06-30_07h19.03.542,empathy_intonation_perc,2024.1.4,MacIntel,62.5,,,,,,,,,,,,,,50,sierra,,,,,,138.9899,140.4271,1,0,0.9027,,0,64,64,49,1,non_cognate,1,REAL,FALSA
,,,,,,,,,5b20c0474c72120001f25d90,001,2024-06-30_07h19.03.542,empathy_intonation_perc,2024.1.4,MacIntel,62.5,,,,,,,,,,,,,,168,cobén,,,,,,140.4275,142.3741,0,1,1.4152,,0,65,65,167,1,pseudoword,0,REAL,FALSA
,,,,,,,,,5b20c0474c72120001f25d90,001,2024-06-30_07h19.03.542,empathy_intonation_perc,2024.1.4,MacIntel,62.5,,,,,,,,,,,,,,165,chote,,,,,,142.3745,143.8547,0,1,0.9181,,0,66,66,164,1,pseudoword,0,REAL,FALSA
,,,,,,,,,5b20c0474c72120001f25d90,001,2024-06-30_07h19.03.542,empathy_intonation_perc,2024.1.4,MacIntel,62.5,,,,,,,,,,,,,,40,pelvis,,,,,,143.8551,145.5693,0,1,1.1648,,0,67,67,39,1,two_way_cognate,1,REAL,FALSA
,,,,,,,,,5b20c0474c72120001f25d90,001,2024-06-30_07h19.03.542,empathy_intonation_perc,2024.1.4,MacIntel,62.5,,,,,,,,,,,,,,188,amplir,,,,,,145.5695,149.3552,1,0,3.2465,,0,68,68,187,1,pseudoword,0,REAL,FALSA
,,,,,,,,,5b20c0474c72120001f25d90,001,2024-06-30_07h19.03.542,empathy_intonation_perc,2024.1.4,MacIntel,62.5,,,,,,,,,,,,,,41,pasta,,,,,,149.3665,151.6036,0,1,1.6964,,0,69,69,40,1,two_way_cognate,1,REAL,FALSA
,,,,,,,,,5b20c0474c72120001f25d90,001,2024-06-30_07h19.03.542,empathy_intonation_perc,2024.1.4,MacIntel,62.5,,,,,,,,,,,,,,94,forro,,,,,,151.6039,153.8041,1,0,1.6528,,0,70,70,93,1,non_cognate,1,REAL,FALSA
,,,,,,,,,5b20c0474c72120001f25d90,001,2024-06-30_07h19.03.542,empathy_intonation_perc,2024.1.4,MacIntel,62.5,,,,,,,,,,,,,,82,brillo,,,,,,153.8044,155.3236,1,0,0.9821,,0,71,71,81,1,non_cognate,1,REAL,FALSA
,,,,,,,,,5b20c0474c72120001f25d90,001,2024-06-30_07h19.03.542,empathy_intonation_perc,2024.1.4,MacIntel,62.5,,,,,,,,,,,,,,47,color,,,,,,155.3239,158.4872,1,0,2.6185,,0,72,72,46,1,two_way_cognate,1,REAL,FALSA
,,,,,,,,,5b20c0474c72120001f25d90,001,2024-06-30_07h19.03.542,empathy_intonation_perc,2024.1.4,MacIntel,62.5,,,,,,,,,,,,,,2,tumor,,,,,,158.4875,160.8735,0,1,1.8515,,0,73,73,1,1,three_way_cognate,1,REAL,FALSA
,,,,,,,,,5b20c0474c72120001f25d90,001,2024-06-30_07h19.03.542,empathy_intonation_perc,2024.1.4,MacIntel,62.5,,,,,,,,,,,,,,81,sacar,,,,,,160.874,162.3277,1,0,0.9068,,0,74,74,80,1,non_cognate,1,REAL,FALSA
,,,,,,,,,5b20c0474c72120001f25d90,001,2024-06-30_07h19.03.542,empathy_intonation_perc,2024.1.4,MacIntel,62.5,,,,,,,,,,,,,,122,boñaz,,,,,,162.3281,163.4698,1,0,0.61,,0,75,75,121,1,pseudoword,0,REAL,FALSA
,,,,,,,,,5b20c0474c72120001f25d90,001,2024-06-30_07h19.03.542,empathy_intonation_perc,2024.1.4,MacIntel,62.5,,,,,,,,,,,,,,75,patada,,,,,,163.4701,164.8373,1,0,0.8452,,0,76,76,74,1,non_cognate,1,REAL,FALSA
,,,,,,,,,5b20c0474c72120001f25d90,001,2024-06-30_07h19.03.542,empathy_intonation_perc,2024.1.4,MacIntel,62.5,,,,,,,,,,,,,,1,moral,,,,,,164.8377,166.0861,1,0,0.7282,,0,77,77,0,1,three_way_cognate,1,REAL,FALSA
,,,,,,,,,5b20c0474c72120001f25d90,001,2024-06-30_07h19.03.542,empathy_intonation_perc,2024.1.4,MacIntel,62.5,,,,,,,,,,,,,,56,pico,,,,,,166.0865,167.471,1,0,0.8446,,0,78,78,55,1,non_cognate,1,REAL,FALSA
,,,,,,,,,5b20c0474c72120001f25d90,001,2024-06-30_07h19.03.542,empathy_intonation_perc,2024.1.4,MacIntel,62.5,,,,,,,,,,,,,,181,gravés,,,,,,167.4714,169.0233,1,0,1.0016,,0,79,79,180,1,pseudoword,0,REAL,FALSA
,,,,,,,,,5b20c0474c72120001f25d90,001,2024-06-30_07h19.03.542,empathy_intonation_perc,2024.1.4,MacIntel,62.5,,,,,,,,,,,,,,61,aduana,,,,,,169.0237,170.3679,0,1,0.8105,,0,80,80,60,1,non_cognate,1,REAL,FALSA
,,,,,,,,,5b20c0474c72120001f25d90,001,2024-06-30_07h19.03.542,empathy_intonation_perc,2024.1.4,MacIntel,62.5,,,,,,,,,,,,,,136,hueas,,,,,,170.3681,171.9536,0,1,1.0439,,0,81,81,135,1,pseudoword,0,REAL,FALSA
,,,,,,,,,5b20c0474c72120001f25d90,001,2024-06-30_07h19.03.542,empathy_intonation_perc,2024.1.4,MacIntel,62.5,,,,,,,,,,,,,,112,samón,,,,,,171.954,173.0861,1,0,0.6001,,0,82,82,111,1,pseudoword,0,REAL,FALSA
,,,,,,,,,5b20c0474c72120001f25d90,001,2024-06-30_07h19.03.542,empathy_intonation_perc,2024.1.4,MacIntel,62.5,,,,,,,,,,,,,,74,ala,,,,,,173.0865,174.2095,1,0,0.573,,0,83,83,73,1,non_cognate,1,REAL,FALSA
,,,,,,,,,5b20c0474c72120001f25d90,001,2024-06-30_07h19.03.542,empathy_intonation_perc,2024.1.4,MacIntel,62.5,,,,,,,,,,,,,,57,regalo,,,,,,174.2097,175.3217,1,0,0.5676,,0,84,84,56,1,non_cognate,1,REAL,FALSA
,,,,,,,,,5b20c0474c72120001f25d90,001,2024-06-30_07h19.03.542,empathy_intonation_perc,2024.1.4,MacIntel,62.5,,,,,,,,,,,,,,130,dubo,,,,,,175.322,176.4697,0,1,0.5994,,0,85,85,129,1,pseudoword,0,REAL,FALSA
,,,,,,,,,5b20c0474c72120001f25d90,001,2024-06-30_07h19.03.542,empathy_intonation_perc,2024.1.4,MacIntel,62.5,,,,,,,,,,,,,,192,próces,,,,,,176.4699,177.7332,1,0,0.7251,,0,86,86,191,1,pseudoword,0,REAL,FALSA
,,,,,,,,,5b20c0474c72120001f25d90,001,2024-06-30_07h19.03.542,empathy_intonation_perc,2024.1.4,MacIntel,62.5,,,,,,,,,,,,,,92,flecha,,,,,,177.7334,179.1574,0,1,0.8984,,0,87,87,91,1,non_cognate,1,REAL,FALSA
,,,,,,,,,5b20c0474c72120001f25d90,001,2024-06-30_07h19.03.542,empathy_intonation_perc,2024.1.4,MacIntel,62.5,,,,,,,,,,,,,,163,olzan,,,,,,179.1577,180.4861,0,1,0.7764,,0,88,88,162,1,pseudoword,0,REAL,FALSA
,,,,,,,,,5b20c0474c72120001f25d90,001,2024-06-30_07h19.03.542,empathy_intonation_perc,2024.1.4,MacIntel,62.5,,,,,,,,,,,,,,63,hilo,,,,,,180.4864,182.2696,0,1,1.2623,,0,89,89,62,1,non_cognate,1,REAL,FALSA
,,,,,,,,,5b20c0474c72120001f25d90,001,2024-06-30_07h19.03.542,empathy_intonation_perc,2024.1.4,MacIntel,62.5,,,,,,,,,,,,,,124,lobe,,,,,,182.2699,183.9532,0,1,1.1341,,0,90,90,123,1,pseudoword,0,REAL,FALSA
,,,,,,,,,5b20c0474c72120001f25d90,001,2024-06-30_07h19.03.542,empathy_intonation_perc,2024.1.4,MacIntel,62.5,,,,,,,,,,,,,,150,cricó,,,,,,183.9537,185.4052,1,0,0.8957,,0,91,91,149,1,pseudoword,0,REAL,FALSA
,,,,,,,,,5b20c0474c72120001f25d90,001,2024-06-30_07h19.03.542,empathy_intonation_perc,2024.1.4,MacIntel,62.5,,,,,,,,,,,,,,173,mibro,,,,,,185.4055,187.2538,0,1,1.3116,,0,92,92,172,1,pseudoword,0,REAL,FALSA
,,,,,,,,,5b20c0474c72120001f25d90,001,2024-06-30_07h19.03.542,empathy_intonation_perc,2024.1.4,MacIntel,62.5,,,,,,,,,,,,,,62,pegar,,,,,,187.2542,191.9526,1,0,4.1453,,0,93,93,61,1,non_cognate,1,REAL,FALSA
,,,,,,,,,5b20c0474c72120001f25d90,001,2024-06-30_07h19.03.542,empathy_intonation_perc,2024.1.4,MacIntel,62.5,,,,,,,,,,,,,,131,fuar,,,,,,191.9645,193.5243,0,1,1.0213,,0,94,94,130,1,pseudoword,0,REAL,FALSA
,,,,,,,,,5b20c0474c72120001f25d90,001,2024-06-30_07h19.03.542,empathy_intonation_perc,2024.1.4,MacIntel,62.5,,,,,,,,,,,,,,8,kilo,,,,,,193.5246,194.7067,1,0,0.6474,,0,95,95,7,1,three_way_cognate,1,REAL,FALSA
,,,,,,,,,5b20c0474c72120001f25d90,001,2024-06-30_07h19.03.542,empathy_intonation_perc,2024.1.4,MacIntel,62.5,,,,,,,,,,,,,,158,babrá,,,,,,194.7071,195.905,1,0,0.6618,,0,96,96,157,1,pseudoword,0,REAL,FALSA
,,,,,,,,,5b20c0474c72120001f25d90,001,2024-06-30_07h19.03.542,empathy_intonation_perc,2024.1.4,MacIntel,62.5,,,,,,,,,,,,,,109,laras,,,,,,195.9054,197.0762,0,1,0.6067,,0,97,97,108,1,pseudoword,0,REAL,FALSA
,,,,,,,,,5b20c0474c72120001f25d90,001,2024-06-30_07h19.03.542,empathy_intonation_perc,2024.1.4,MacIntel,62.5,,,,,,,,,,,,,,52,blando,,,,,,197.0764,207.9902,1,0,10.3616,,0,98,98,51,1,non_cognate,1,REAL,FALSA
,,,,,,,,,5b20c0474c72120001f25d90,001,2024-06-30_07h19.03.542,empathy_intonation_perc,2024.1.4,MacIntel,62.5,,,,,,,,,,,,,,142,parre,,,,,,208.0023,217.0521,1,0,8.4943,,0,99,99,141,1,pseudoword,0,REAL,FALSA
,,,,,,,,,5b20c0474c72120001f25d90,001,2024-06-30_07h19.03.542,empathy_intonation_perc,2024.1.4,MacIntel,62.5,,,,,,,,,,,,,,70,ánimo,,,,,,217.0658,218.3849,1,0,0.7956,,0,100,100,69,1,non_cognate,1,REAL,FALSA
,,,,,,,,,5b20c0474c72120001f25d90,001,2024-06-30_07h19.03.542,empathy_intonation_perc,2024.1.4,MacIntel,62.5,,,,,,,,,,,,,,140,chorde,,,,,,218.3853,219.8512,0,1,0.9451,,0,101,101,139,1,pseudoword,0,REAL,FALSA
,,,,,,,,,5b20c0474c72120001f25d90,001,2024-06-30_07h19.03.542,empathy_intonation_perc,2024.1.4,MacIntel,62.5,,,,,,,,,,,,,,115,lidena,,,,,,219.8515,221.0153,1,0,0.6409,,0,102,102,114,1,pseudoword,0,REAL,FALSA
,,,,,,,,,5b20c0474c72120001f25d90,001,2024-06-30_07h19.03.542,empathy_intonation_perc,2024.1.4,MacIntel,62.5,,,,,,,,,,,,,,97,nocita,,,,,,221.0156,222.2554,1,0,0.6972,,0,103,103,96,1,pseudoword,0,REAL,FALSA
,,,,,,,,,5b20c0474c72120001f25d90,001,2024-06-30_07h19.03.542,empathy_intonation_perc,2024.1.4,MacIntel,62.5,,,,,,,,,,,,,,24,retina,,,,,,222.2556,223.781,0,1,0.9898,,0,104,104,23,1,three_way_cognate,1,REAL,FALSA
,,,,,,,,,5b20c0474c72120001f25d90,001,2024-06-30_07h19.03.542,empathy_intonation_perc,2024.1.4,MacIntel,62.5,,,,,,,,,,,,,,84,aviso,,,,,,223.7813,225.1144,1,0,0.7933,,0,105,105,83,1,non_cognate,1,REAL,FALSA
,,,,,,,,,5b20c0474c72120001f25d90,001,2024-06-30_07h19.03.542,empathy_intonation_perc,2024.1.4,MacIntel,62.5,,,,,,,,,,,,,,184,huenos,,,,,,225.1147,226.4471,1,0,0.7893,,0,106,106,183,1,pseudoword,0,REAL,FALSA
,,,,,,,,,5b20c0474c72120001f25d90,001,2024-06-30_07h19.03.542,empathy_intonation_perc,2024.1.4,MacIntel,62.5,,,,,,,,,,,,,,44,editor,,,,,,226.4475,227.97,1,0,0.9945,,0,107,107,43,1,two_way_cognate,1,REAL,FALSA
,,,,,,,,,5b20c0474c72120001f25d90,001,2024-06-30_07h19.03.542,empathy_intonation_perc,2024.1.4,MacIntel,62.5,,,,,,,,,,,,,,16,chat,,,,,,227.9703,229.2365,0,1,0.7317,,0,108,108,15,1,three_way_cognate,1,REAL,FALSA
,,,,,,,,,5b20c0474c72120001f25d90,001,2024-06-30_07h19.03.542,empathy_intonation_perc,2024.1.4,MacIntel,62.5,,,,,,,,,,,,,,125,ceme,,,,,,229.2368,230.6689,0,1,0.8783,,0,109,109,124,1,pseudoword,0,REAL,FALSA
,,,,,,,,,5b20c0474c72120001f25d90,001,2024-06-30_07h19.03.542,empathy_intonation_perc,2024.1.4,MacIntel,62.5,,,,,,,,,,,,,,111,monue,,,,,,230.6693,232.2388,0,1,1.0315,,0,110,110,110,1,pseudoword,0,REAL,FALSA
,,,,,,,,,5b20c0474c72120001f25d90,001,2024-06-30_07h19.03.542,empathy_intonation_perc,2024.1.4,MacIntel,62.5,,,,,,,,,,,,,,166,anfia,,,,,,232.2391,233.7673,1,0,0.9815,,0,111,111,165,1,pseudoword,0,REAL,FALSA
,,,,,,,,,5b20c0474c72120001f25d90,001,2024-06-30_07h19.03.542,empathy_intonation_perc,2024.1.4,MacIntel,62.5,,,,,,,,,,,,,,64,rizado,,,,,,233.7676,234.9683,1,0,0.6799,,0,112,112,63,1,non_cognate,1,REAL,FALSA
,,,,,,,,,5b20c0474c72120001f25d90,001,2024-06-30_07h19.03.542,empathy_intonation_perc,2024.1.4,MacIntel,62.5,,,,,,,,,,,,,,79,suelo,,,,,,234.9687,236.2679,1,0,0.763,,0,113,113,78,1,non_cognate,1,REAL,FALSA
,,,,,,,,,5b20c0474c72120001f25d90,001,2024-06-30_07h19.03.542,empathy_intonation_perc,2024.1.4,MacIntel,62.5,,,,,,,,,,,,,,6,horror,,,,,,236.2683,237.7144,0,1,0.9101,,0,114,114,5,1,three_way_cognate,1,REAL,FALSA
,,,,,,,,,5b20c0474c72120001f25d90,001,2024-06-30_07h19.03.542,empathy_intonation_perc,2024.1.4,MacIntel,62.5,,,,,,,,,,,,,,10,drama,,,,,,237.7148,239.3362,0,1,1.0984,,0,115,115,9,1,three_way_cognate,1,REAL,FALSA
,,,,,,,,,5b20c0474c72120001f25d90,001,2024-06-30_07h19.03.542,empathy_intonation_perc,2024.1.4,MacIntel,62.5,,,,,,,,,,,,,,11,golf,,,,,,239.3367,240.6522,0,1,0.7807,,0,116,116,10,1,three_way_cognate,1,REAL,FALSA
,,,,,,,,,5b20c0474c72120001f25d90,001,2024-06-30_07h19.03.542,empathy_intonation_perc,2024.1.4,MacIntel,62.5,,,,,,,,,,,,,,72,rostro,,,,,,240.6524,242.1518,1,0,0.9627,,0,117,117,71,1,non_cognate,1,REAL,FALSA
,,,,,,,,,5b20c0474c72120001f25d90,001,2024-06-30_07h19.03.542,empathy_intonation_perc,2024.1.4,MacIntel,62.5,,,,,,,,,,,,,,22,mango,,,,,,242.1523,243.5141,1,0,0.8259,,0,118,118,21,1,three_way_cognate,1,REAL,FALSA
,,,,,,,,,5b20c0474c72120001f25d90,001,2024-06-30_07h19.03.542,empathy_intonation_perc,2024.1.4,MacIntel,62.5,,,,,,,,,,,,,,186,rizate,,,,,,243.5144,244.8817,0,1,0.8441,,0,119,119,185,1,pseudoword,0,REAL,FALSA
,,,,,,,,,5b20c0474c72120001f25d90,001,2024-06-30_07h19.03.542,empathy_intonation_perc,2024.1.4,MacIntel,62.5,,,,,,,,,,,,,,108,jauda,,,,,,244.882,246.535,1,0,1.1274,,0,120,120,107,1,pseudoword,0,REAL,FALSA
,,,,,,,,,5b20c0474c72120001f25d90,001,2024-06-30_07h19.03.542,empathy_intonation_perc,2024.1.4,MacIntel,62.5,,,,,,,,,,,,,,68,puñal,,,,,,246.5354,247.8877,1,0,0.8132,,0,121,121,67,1,non_cognate,1,REAL,FALSA
,,,,,,,,,5b20c0474c72120001f25d90,001,2024-06-30_07h19.03.542,empathy_intonation_perc,2024.1.4,MacIntel,62.5,,,,,,,,,,,,,,45,total,,,,,,247.888,250.2351,1,0,1.8141,,0,122,122,44,1,two_way_cognate,1,REAL,FALSA
,,,,,,,,,5b20c0474c72120001f25d90,001,2024-06-30_07h19.03.542,empathy_intonation_perc,2024.1.4,MacIntel,62.5,,,,,,,,,,,,,,161,civas,,,,,,250.2354,251.4319,0,1,0.6758,,0,123,123,160,1,pseudoword,0,REAL,FALSA
,,,,,,,,,5b20c0474c72120001f25d90,001,2024-06-30_07h19.03.542,empathy_intonation_perc,2024.1.4,MacIntel,62.5,,,,,,,,,,,,,,177,entodo,,,,,,251.4323,252.6474,1,0,0.6904,,0,124,124,176,1,pseudoword,0,REAL,FALSA
,,,,,,,,,5b20c0474c72120001f25d90,001,2024-06-30_07h19.03.542,empathy_intonation_perc,2024.1.4,MacIntel,62.5,,,,,,,,,,,,,,135,panté,,,,,,252.6477,253.9072,1,0,0.7364,,0,125,125,134,1,pseudoword,0,REAL,FALSA
,,,,,,,,,5b20c0474c72120001f25d90,001,2024-06-30_07h19.03.542,empathy_intonation_perc,2024.1.4,MacIntel,62.5,,,,,,,,,,,,,,66,aleta,,,,,,253.9074,255.2529,0,1,0.7989,,0,126,126,65,1,non_cognate,1,REAL,FALSA
,,,,,,,,,5b20c0474c72120001f25d90,001,2024-06-30_07h19.03.542,empathy_intonation_perc,2024.1.4,MacIntel,62.5,,,,,,,,,,,,,,172,dogue,,,,,,255.2534,256.5693,0,1,0.7818,,0,127,127,171,1,pseudoword,0,REAL,FALSA
,,,,,,,,,5b20c0474c72120001f25d90,001,2024-06-30_07h19.03.542,empathy_intonation_perc,2024.1.4,MacIntel,62.5,,,,,,,,,,,,,,48,pelvis,,,,,,256.5697,258.1716,0,1,1.0518,,0,128,128,47,1,two_way_cognate,1,REAL,FALSA
,,,,,,,,,5b20c0474c72120001f25d90,001,2024-06-30_07h19.03.542,empathy_intonation_perc,2024.1.4,MacIntel,62.5,,,,,,,,,,,,,,14,aura,,,,,,258.172,265.3019,1,0,6.5958,,0,129,129,13,1,three_way_cognate,1,REAL,FALSA
,,,,,,,,,5b20c0474c72120001f25d90,001,2024-06-30_07h19.03.542,empathy_intonation_perc,2024.1.4,MacIntel,62.5,,,,,,,,,,,,,,7,albino,,,,,,265.3154,266.7841,1,0,0.929,,0,130,130,6,1,three_way_cognate,1,REAL,FALSA
,,,,,,,,,5b20c0474c72120001f25d90,001,2024-06-30_07h19.03.542,empathy_intonation_perc,2024.1.4,MacIntel,62.5,,,,,,,,,,,,,,187,nomata,,,,,,266.7844,268.0848,1,0,0.7497,,0,131,131,186,1,pseudoword,0,REAL,FALSA
,,,,,,,,,5b20c0474c72120001f25d90,001,2024-06-30_07h19.03.542,empathy_intonation_perc,2024.1.4,MacIntel,62.5,,,,,,,,,,,,,,90,venado,,,,,,268.0853,269.172,0,1,0.5676,,0,132,132,89,1,non_cognate,1,REAL,FALSA
,,,,,,,,,5b20c0474c72120001f25d90,001,2024-06-30_07h19.03.542,empathy_intonation_perc,2024.1.4,MacIntel,62.5,,,,,,,,,,,,,,190,asumie,,,,,,269.1723,270.3494,0,1,0.6408,,0,133,133,189,1,pseudoword,0,REAL,FALSA
,,,,,,,,,5b20c0474c72120001f25d90,001,2024-06-30_07h19.03.542,empathy_intonation_perc,2024.1.4,MacIntel,62.5,,,,,,,,,,,,,,178,inichó,,,,,,270.3498,272.0208,1,0,1.1305,,0,134,134,177,1,pseudoword,0,REAL,FALSA
,,,,,,,,,5b20c0474c72120001f25d90,001,2024-06-30_07h19.03.542,empathy_intonation_perc,2024.1.4,MacIntel,62.5,,,,,,,,,,,,,,83,hálito,,,,,,272.0214,274.0382,0,1,1.4694,,0,135,135,82,1,non_cognate,1,REAL,FALSA
,,,,,,,,,5b20c0474c72120001f25d90,001,2024-06-30_07h19.03.542,empathy_intonation_perc,2024.1.4,MacIntel,62.5,,,,,,,,,,,,,,35,aurora,,,,,,274.0387,275.5682,1,0,0.9979,,0,136,136,34,1,two_way_cognate,1,REAL,FALSA
,,,,,,,,,5b20c0474c72120001f25d90,001,2024-06-30_07h19.03.542,empathy_intonation_perc,2024.1.4,MacIntel,62.5,,,,,,,,,,,,,,71,torta,,,,,,275.5686,276.785,1,0,0.6814,,0,137,137,70,1,non_cognate,1,REAL,FALSA
,,,,,,,,,5b20c0474c72120001f25d90,001,2024-06-30_07h19.03.542,empathy_intonation_perc,2024.1.4,MacIntel,62.5,,,,,,,,,,,,,,30,fiscal,,,,,,276.7854,278.8478,1,0,1.5258,,0,138,138,29,1,two_way_cognate,1,REAL,FALSA
,,,,,,,,,5b20c0474c72120001f25d90,001,2024-06-30_07h19.03.542,empathy_intonation_perc,2024.1.4,MacIntel,62.5,,,,,,,,,,,,,,143,hurcos,,,,,,278.8482,280.9088,0,1,1.5027,,0,139,139,142,1,pseudoword,0,REAL,FALSA
,,,,,,,,,5b20c0474c72120001f25d90,001,2024-06-30_07h19.03.542,empathy_intonation_perc,2024.1.4,MacIntel,62.5,,,,,,,,,,,,,,176,gripar,,,,,,280.9092,282.2681,1,0,0.8272,,0,140,140,175,1,pseudoword,0,REAL,FALSA
,,,,,,,,,5b20c0474c72120001f25d90,001,2024-06-30_07h19.03.542,empathy_intonation_perc,2024.1.4,MacIntel,62.5,,,,,,,,,,,,,,49,teñir,,,,,,282.2685,283.6645,1,0,0.8395,,0,141,141,48,1,non_cognate,1,REAL,FALSA
,,,,,,,,,5b20c0474c72120001f25d90,001,2024-06-30_07h19.03.542,empathy_intonation_perc,2024.1.4,MacIntel,62.5,,,,,,,,,,,,,,53,punta,,,,,,283.6647,285.5695,1,0,1.3828,,0,142,142,52,1,non_cognate,1,REAL,FALSA
,,,,,,,,,5b20c0474c72120001f25d90,001,2024-06-30_07h19.03.542,empathy_intonation_perc,2024.1.4,MacIntel,62.5,,,,,,,,,,,,,,149,emén,,,,,,285.5698,286.9174,0,1,0.8127,,0,143,143,148,1,pseudoword,0,REAL,FALSA
,,,,,,,,,5b20c0474c72120001f25d90,001,2024-06-30_07h19.03.542,empathy_intonation_perc,2024.1.4,MacIntel,62.5,,,,,,,,,,,,,,39,casual,,,,,,286.9177,294.4215,1,0,6.9635,,0,144,144,38,1,two_way_cognate,1,REAL,FALSA
,,,,,,,,,5b20c0474c72120001f25d90,001,2024-06-30_07h19.03.542,empathy_intonation_perc,2024.1.4,MacIntel,62.5,,,,,,,,,,,,,,59,feo,,,,,,294.4332,295.8302,1,0,0.8551,,0,145,145,58,1,non_cognate,1,REAL,FALSA
,,,,,,,,,5b20c0474c72120001f25d90,001,2024-06-30_07h19.03.542,empathy_intonation_perc,2024.1.4,MacIntel,62.5,,,,,,,,,,,,,,101,losco,,,,,,295.8307,296.9853,0,1,0.612,,0,146,146,100,1,pseudoword,0,REAL,FALSA
,,,,,,,,,5b20c0474c72120001f25d90,001,2024-06-30_07h19.03.542,empathy_intonation_perc,2024.1.4,MacIntel,62.5,,,,,,,,,,,,,,164,tecia,,,,,,296.9856,298.718,0,1,1.1832,,0,147,147,163,1,pseudoword,0,REAL,FALSA
,,,,,,,,,5b20c0474c72120001f25d90,001,2024-06-30_07h19.03.542,empathy_intonation_perc,2024.1.4,MacIntel,62.5,,,,,,,,,,,,,,37,torso,,,,,,298.7184,300.7657,0,1,1.5124,,0,148,148,36,1,two_way_cognate,1,REAL,FALSA
,,,,,,,,,5b20c0474c72120001f25d90,001,2024-06-30_07h19.03.542,empathy_intonation_perc,2024.1.4,MacIntel,62.5,,,,,,,,,,,,,,46,mortal,,,,,,300.7659,302.7335,1,0,1.429,,0,149,149,45,1,two_way_cognate,1,REAL,FALSA
,,,,,,,,,5b20c0474c72120001f25d90,001,2024-06-30_07h19.03.542,empathy_intonation_perc,2024.1.4,MacIntel,62.5,,,,,,,,,,,,,,137,trugo,,,,,,302.7337,304.1242,0,1,0.8345,,0,150,150,136,1,pseudoword,0,REAL,FALSA
,,,,,,,,,5b20c0474c72120001f25d90,001,2024-06-30_07h19.03.542,empathy_intonation_perc,2024.1.4,MacIntel,62.5,,,,,,,,,,,,,,105,leniz,,,,,,304.1244,308.4215,0,1,3.7637,,0,151,151,104,1,pseudoword,0,REAL,FALSA
,,,,,,,,,5b20c0474c72120001f25d90,001,2024-06-30_07h19.03.542,empathy_intonation_perc,2024.1.4,MacIntel,62.5,,,,,,,,,,,,,,89,muñeca,,,,,,308.4339,309.8331,0,1,0.8626,,0,152,152,88,1,non_cognate,1,REAL,FALSA
,,,,,,,,,5b20c0474c72120001f25d90,001,2024-06-30_07h19.03.542,empathy_intonation_perc,2024.1.4,MacIntel,62.5,,,,,,,,,,,,,,151,prías,,,,,,309.8334,311.1706,0,1,0.8172,,0,153,153,150,1,pseudoword,0,REAL,FALSA
,,,,,,,,,5b20c0474c72120001f25d90,001,2024-06-30_07h19.03.542,empathy_intonation_perc,2024.1.4,MacIntel,62.5,,,,,,,,,,,,,,18,altar,,,,,,311.1709,312.9901,0,1,1.287,,0,154,154,17,1,three_way_cognate,1,REAL,FALSA
,,,,,,,,,5b20c0474c72120001f25d90,001,2024-06-30_07h19.03.542,empathy_intonation_perc,2024.1.4,MacIntel,62.5,,,,,,,,,,,,,,17,clan,,,,,,312.9904,315.567,0,1,2.0436,,0,155,155,16,1,three_way_cognate,1,REAL,FALSA
,,,,,,,,,5b20c0474c72120001f25d90,001,2024-06-30_07h19.03.542,empathy_intonation_perc,2024.1.4,MacIntel,62.5,,,,,,,,,,,,,,144,diroco,,,,,,315.5783,316.8161,0,1,0.6902,,0,156,156,143,1,pseudoword,0,REAL,FALSA
,,,,,,,,,5b20c0474c72120001f25d90,001,2024-06-30_07h19.03.542,empathy_intonation_perc,2024.1.4,MacIntel,62.5,,,,,,,,,,,,,,160,fomeó,,,,,,316.8165,318.0564,1,0,0.7192,,0,157,157,159,1,pseudoword,0,REAL,FALSA
,,,,,,,,,5b20c0474c72120001f25d90,001,2024-06-30_07h19.03.542,empathy_intonation_perc,2024.1.4,MacIntel,62.5,,,,,,,,,,,,,,100,épinas,,,,,,318.0567,320.058,0,1,1.4541,,0,158,158,99,1,pseudoword,0,REAL,FALSA
,,,,,,,,,5b20c0474c72120001f25d90,001,2024-06-30_07h19.03.542,empathy_intonation_perc,2024.1.4,MacIntel,62.5,,,,,,,,,,,,,,3,disco,,,,,,320.0584,321.2866,0,1,0.6859,,0,159,159,2,1,three_way_cognate,1,REAL,FALSA
,,,,,,,,,5b20c0474c72120001f25d90,001,2024-06-30_07h19.03.542,empathy_intonation_perc,2024.1.4,MacIntel,62.5,,,,,,,,,,,,,,54,tapón,,,,,,321.287,322.8713,0,1,1.0518,,0,160,160,53,1,non_cognate,1,REAL,FALSA
,,,,,,,,,5b20c0474c72120001f25d90,001,2024-06-30_07h19.03.542,empathy_intonation_perc,2024.1.4,MacIntel,62.5,,,,,,,,,,,,,,106,diebro,,,,,,322.8716,324.1009,0,1,0.6781,,0,161,161,105,1,pseudoword,0,REAL,FALSA
,,,,,,,,,5b20c0474c72120001f25d90,001,2024-06-30_07h19.03.542,empathy_intonation_perc,2024.1.4,MacIntel,62.5,,,,,,,,,,,,,,51,listo,,,,,,324.1011,325.2333,1,0,0.5915,,0,162,162,50,1,non_cognate,1,REAL,FALSA
,,,,,,,,,5b20c0474c72120001f25d90,001,2024-06-30_07h19.03.542,empathy_intonation_perc,2024.1.4,MacIntel,62.5,,,,,,,,,,,,,,157,seled,,,,,,325.2338,326.5137,0,1,0.7435,,0,163,163,156,1,pseudoword,0,REAL,FALSA
,,,,,,,,,5b20c0474c72120001f25d90,001,2024-06-30_07h19.03.542,empathy_intonation_perc,2024.1.4,MacIntel,62.5,,,,,,,,,,,,,,29,clamor,,,,,,326.5141,328.1574,1,0,1.1204,,0,164,164,28,1,two_way_cognate,1,REAL,FALSA
,,,,,,,,,5b20c0474c72120001f25d90,001,2024-06-30_07h19.03.542,empathy_intonation_perc,2024.1.4,MacIntel,62.5,,,,,,,,,,,,,,128,pelí,,,,,,328.1577,329.2963,1,0,0.6108,,0,165,165,127,1,pseudoword,0,REAL,FALSA
,,,,,,,,,5b20c0474c72120001f25d90,001,2024-06-30_07h19.03.542,empathy_intonation_perc,2024.1.4,MacIntel,62.5,,,,,,,,,,,,,,179,suelet,,,,,,329.2966,333.0347,0,1,3.2147,,0,166,166,178,1,pseudoword,0,REAL,FALSA
,,,,,,,,,5b20c0474c72120001f25d90,001,2024-06-30_07h19.03.542,empathy_intonation_perc,2024.1.4,MacIntel,62.5,,,,,,,,,,,,,,4,flora,,,,,,333.0349,334.2345,1,0,0.6649,,0,167,167,3,1,three_way_cognate,1,REAL,FALSA
,,,,,,,,,5b20c0474c72120001f25d90,001,2024-06-30_07h19.03.542,empathy_intonation_perc,2024.1.4,MacIntel,62.5,,,,,,,,,,,,,,36,viable,,,,,,334.2349,335.4375,0,1,0.6678,,0,168,168,35,1,two_way_cognate,1,REAL,FALSA
,,,,,,,,,5b20c0474c72120001f25d90,001,2024-06-30_07h19.03.542,empathy_intonation_perc,2024.1.4,MacIntel,62.5,,,,,,,,,,,,,,77,suave,,,,,,335.4379,336.6719,1,0,0.6995,,0,169,169,76,1,non_cognate,1,REAL,FALSA
,,,,,,,,,5b20c0474c72120001f25d90,001,2024-06-30_07h19.03.542,empathy_intonation_perc,2024.1.4,MacIntel,62.5,,,,,,,,,,,,,,189,medium,,,,,,336.6721,337.8634,0,1,0.6594,,0,170,170,188,1,pseudoword,0,REAL,FALSA
,,,,,,,,,5b20c0474c72120001f25d90,001,2024-06-30_07h19.03.542,empathy_intonation_perc,2024.1.4,MacIntel,62.5,,,,,,,,,,,,,,183,edioso,,,,,,337.8638,338.9959,1,0,0.6085,,0,171,171,182,1,pseudoword,0,REAL,FALSA
,,,,,,,,,5b20c0474c72120001f25d90,001,2024-06-30_07h19.03.542,empathy_intonation_perc,2024.1.4,MacIntel,62.5,,,,,,,,,,,,,,102,coyo,,,,,,338.9963,340.1404,0,1,0.6003,,0,172,172,101,1,pseudoword,0,REAL,FALSA
,,,,,,,,,5b20c0474c72120001f25d90,001,2024-06-30_07h19.03.542,empathy_intonation_perc,2024.1.4,MacIntel,62.5,,,,,,,,,,,,,,123,arane,,,,,,340.1408,341.3144,0,1,0.645,,0,173,173,122,1,pseudoword,0,REAL,FALSA
,,,,,,,,,5b20c0474c72120001f25d90,001,2024-06-30_07h19.03.542,empathy_intonation_perc,2024.1.4,MacIntel,62.5,,,,,,,,,,,,,,67,llamar,,,,,,341.3149,342.4675,1,0,0.6123,,0,174,174,66,1,non_cognate,1,REAL,FALSA
,,,,,,,,,5b20c0474c72120001f25d90,001,2024-06-30_07h19.03.542,empathy_intonation_perc,2024.1.4,MacIntel,62.5,,,,,,,,,,,,,,162,cengo,,,,,,342.4679,343.7536,1,0,0.7506,,0,175,175,161,1,pseudoword,0,REAL,FALSA
,,,,,,,,,5b20c0474c72120001f25d90,001,2024-06-30_07h19.03.542,empathy_intonation_perc,2024.1.4,MacIntel,62.5,,,,,,,,,,,,,,169,pitis,,,,,,343.7539,345.0482,0,1,0.7575,,0,176,176,168,1,pseudoword,0,REAL,FALSA
,,,,,,,,,5b20c0474c72120001f25d90,001,2024-06-30_07h19.03.542,empathy_intonation_perc,2024.1.4,MacIntel,62.5,,,,,,,,,,,,,,26,enigma,,,,,,345.0486,346.8671,0,1,1.2789,,0,177,177,25,1,two_way_cognate,1,REAL,FALSA
,,,,,,,,,5b20c0474c72120001f25d90,001,2024-06-30_07h19.03.542,empathy_intonation_perc,2024.1.4,MacIntel,62.5,,,,,,,,,,,,,,28,ardor,,,,,,346.8675,348.4679,0,1,1.0617,,0,178,178,27,1,two_way_cognate,1,REAL,FALSA
,,,,,,,,,5b20c0474c72120001f25d90,001,2024-06-30_07h19.03.542,empathy_intonation_perc,2024.1.4,MacIntel,62.5,,,,,,,,,,,,,,117,morrá,,,,,,348.4683,349.9626,1,0,0.9596,,0,179,179,116,1,pseudoword,0,REAL,FALSA
,,,,,,,,,5b20c0474c72120001f25d90,001,2024-06-30_07h19.03.542,empathy_intonation_perc,2024.1.4,MacIntel,62.5,,,,,,,,,,,,,,134,molor,,,,,,349.963,351.4955,1,0,0.989,,0,180,180,133,1,pseudoword,0,REAL,FALSA
,,,,,,,,,5b20c0474c72120001f25d90,001,2024-06-30_07h19.03.542,empathy_intonation_perc,2024.1.4,MacIntel,62.5,,,,,,,,,,,,,,113,nasce,,,,,,351.4957,352.868,0,1,0.8343,,0,181,181,112,1,pseudoword,0,REAL,FALSA
,,,,,,,,,5b20c0474c72120001f25d90,001,2024-06-30_07h19.03.542,empathy_intonation_perc,2024.1.4,MacIntel,62.5,,,,,,,,,,,,,,43,honor,,,,,,352.8684,355.4182,1,0,2.0012,,0,182,182,42,1,two_way_cognate,1,REAL,FALSA
,,,,,,,,,5b20c0474c72120001f25d90,001,2024-06-30_07h19.03.542,empathy_intonation_perc,2024.1.4,MacIntel,62.5,,,,,,,,,,,,,,65,guerra,,,,,,355.4186,356.8067,1,0,0.854,,0,183,183,64,1,non_cognate,1,REAL,FALSA
,,,,,,,,,5b20c0474c72120001f25d90,001,2024-06-30_07h19.03.542,empathy_intonation_perc,2024.1.4,MacIntel,62.5,,,,,,,,,,,,,,5,extra,,,,,,356.8071,358.1237,1,0,0.7879,,0,184,184,4,1,three_way_cognate,1,REAL,FALSA
,,,,,,,,,5b20c0474c72120001f25d90,001,2024-06-30_07h19.03.542,empathy_intonation_perc,2024.1.4,MacIntel,62.5,,,,,,,,,,,,,,23,plural,,,,,,358.1241,359.3735,1,0,0.7002,,0,185,185,22,1,three_way_cognate,1,REAL,FALSA
,,,,,,,,,5b20c0474c72120001f25d90,001,2024-06-30_07h19.03.542,empathy_intonation_perc,2024.1.4,MacIntel,62.5,,,,,,,,,,,,,,99,bugor,,,,,,359.3737,360.6785,0,1,0.7596,,0,186,186,98,1,pseudoword,0,REAL,FALSA
,,,,,,,,,5b20c0474c72120001f25d90,001,2024-06-30_07h19.03.542,empathy_intonation_perc,2024.1.4,MacIntel,62.5,,,,,,,,,,,,,,127,vien,,,,,,360.6787,362.3071,1,0,1.0884,,0,187,187,126,1,pseudoword,0,REAL,FALSA
,,,,,,,,,5b20c0474c72120001f25d90,001,2024-06-30_07h19.03.542,empathy_intonation_perc,2024.1.4,MacIntel,62.5,,,,,,,,,,,,,,129,vinzó,,,,,,362.3074,363.6975,1,0,0.8425,,0,188,188,128,1,pseudoword,0,REAL,FALSA
,,,,,,,,,5b20c0474c72120001f25d90,001,2024-06-30_07h19.03.542,empathy_intonation_perc,2024.1.4,MacIntel,62.5,,,,,,,,,,,,,,85,enorme,,,,,,363.6979,364.9372,0,1,0.6882,,0,189,189,84,1,non_cognate,1,REAL,FALSA
,,,,,,,,,5b20c0474c72120001f25d90,001,2024-06-30_07h19.03.542,empathy_intonation_perc,2024.1.4,MacIntel,62.5,,,,,,,,,,,,,,34,actor,,,,,,364.9374,366.1516,1,0,0.6816,,0,190,190,33,1,two_way_cognate,1,REAL,FALSA
,,,,,,,,,5b20c0474c72120001f25d90,001,2024-06-30_07h19.03.542,empathy_intonation_perc,2024.1.4,MacIntel,62.5,,,,,,,,,,,,,,96,caro,,,,,,366.152,367.3869,1,0,0.7009,,0,191,191,95,1,non_cognate,1,REAL,FALSA
