lextale_instructions.started,lextale_instructions.stopped,lextale_instructions_loop.thisRepN,lextale_instructions_loop.thisTrialN,lextale_instructions_loop.thisN,lextale_instructions_loop.thisIndex,lextale_instructions_loop.ran,instructions_text,continue_text,participant,session,date,expName,psychopyVersion,OS,frameRate,lextale_practice.started,lextale_practice.stopped,key_resp_lextale_practice.keys,key_resp_lextale_practice.corr,key_resp_lextale_practice.rt,key_resp_lextale_practice.duration,lextale_practice_feedback.started,lextale_practice_feedback.stopped,lextale_practice_trials.thisRepN,lextale_practice_trials.thisTrialN,lextale_practice_trials.thisN,lextale_practice_trials.thisIndex,lextale_practice_trials.ran,stim,word,correct_response,prac_button_real,prac_button_false,lextale_check.started,lextale_check.stopped,lextale_trial.started,lextale_trial.stopped,key_resp_lextale_trial.keys,key_resp_lextale_trial.corr,key_resp_lextale_trial.rt,key_resp_lextale_trial.duration,lextail_trials.thisRepN,lextail_trials.thisTrialN,lextail_trials.thisN,lextail_trials.thisIndex,lextail_trials.ran,type,correct_reponse,button_real,button_false
0.0033,20.6408,0,0,0,0,1,"Este es un test de vocabulario en español. 
  
  A continuación vas a ver 90 secuencias de letras que parecen 'españolas'.
  
  Solo algunas de ellas son palabras de verdad.",(presiona la barra espaciadora para continuar),637d4793730be3ac44f5a4a5,001,2024-06-30_07h32.24.961,empathy_intonation_perc,2024.1.4,Win32,60.24096386,,,,,,,,,,,,,,,,,,,,,,,,,,,,,,,,,,,
20.6415,21.3229,0,1,1,1,1,"Por favor, señala las palabras que tú conoces (aquellas que estás convencido que son palabras españolas, incluso aunque no seas capaz de dar el significado preciso).",(presiona la barra espaciadora para continuar),637d4793730be3ac44f5a4a5,001,2024-06-30_07h32.24.961,empathy_intonation_perc,2024.1.4,Win32,60.24096386,,,,,,,,,,,,,,,,,,,,,,,,,,,,,,,,,,,
21.3232,22.323,0,2,2,2,1,Pero cuidado: los errores se penalizan. Por eso no tiene sentido tratar de incrementar tu puntuación marcando como reales palabras que nunca has visto.,(presiona la barra espaciadora para continuar),637d4793730be3ac44f5a4a5,001,2024-06-30_07h32.24.961,empathy_intonation_perc,2024.1.4,Win32,60.24096386,,,,,,,,,,,,,,,,,,,,,,,,,,,,,,,,,,,
22.3234,22.6887,0,3,3,3,1,"Presiona la tecla 1 si piensas que es una palabra real y la tecla 
  0 si piensas que es una palabra falsa. 
  
  Vamos a practicar un poco...",(presiona la barra espaciadora para continuar),637d4793730be3ac44f5a4a5,001,2024-06-30_07h32.24.961,empathy_intonation_perc,2024.1.4,Win32,60.24096386,,,,,,,,,,,,,,,,,,,,,,,,,,,,,,,,,,,
,,,,,,,,,637d4793730be3ac44f5a4a5,001,2024-06-30_07h32.24.961,empathy_intonation_perc,2024.1.4,Win32,60.24096386,22.6908,36.3985,1,0,13.1755,,36.4052,37.3979,0,0,0,0,1,0,depiste,0,REAL,FALSA,,,,,,,,,,,,,,,,,
,,,,,,,,,637d4793730be3ac44f5a4a5,001,2024-06-30_07h32.24.961,empathy_intonation_perc,2024.1.4,Win32,60.24096386,37.3982,41.2294,1,1,3.3023,,41.2294,42.2282,0,1,1,1,1,0,sí,1,REAL,FALSA,,,,,,,,,,,,,,,,,
,,,,,,,,,637d4793730be3ac44f5a4a5,001,2024-06-30_07h32.24.961,empathy_intonation_perc,2024.1.4,Win32,60.24096386,42.2356,42.9615,1,0,0.1976,,42.9616,43.9607,0,2,2,2,1,0,coné,0,REAL,FALSA,,,,,,,,,,,,,,,,,
,,,,,,,,,637d4793730be3ac44f5a4a5,001,2024-06-30_07h32.24.961,empathy_intonation_perc,2024.1.4,Win32,60.24096386,43.9612,44.5766,1,0,0.0925,,44.5766,45.5762,0,3,3,3,1,0,calpar,0,REAL,FALSA,,,,,,,,,,,,,,,,,
,,,,,,,,,637d4793730be3ac44f5a4a5,001,2024-06-30_07h32.24.961,empathy_intonation_perc,2024.1.4,Win32,60.24096386,45.5764,46.1928,0,1,0.0807,,46.1928,47.1925,0,4,4,4,1,0,joten,0,REAL,FALSA,,,,,,,,,,,,,,,,,
,,,,,,,,,637d4793730be3ac44f5a4a5,001,2024-06-30_07h32.24.961,empathy_intonation_perc,2024.1.4,Win32,60.24096386,47.1928,48.0252,0,0,0.2949,,48.0254,49.0246,0,5,5,5,1,0,sacapuntas,1,REAL,FALSA,,,,,,,,,,,,,,,,,
,,,,,,,,,637d4793730be3ac44f5a4a5,001,2024-06-30_07h32.24.961,empathy_intonation_perc,2024.1.4,Win32,60.24096386,49.025,49.7408,1,0,0.1906,,49.7409,50.7404,0,6,6,6,1,0,priba,0,REAL,FALSA,,,,,,,,,,,,,,,,,
,,,,,,,,,637d4793730be3ac44f5a4a5,001,2024-06-30_07h32.24.961,empathy_intonation_perc,2024.1.4,Win32,60.24096386,50.7407,51.7399,1,0,0.4627,,51.7399,52.7392,0,7,7,7,1,0,pelasula,0,REAL,FALSA,,,,,,,,,,,,,,,,,
,,,,,,,,,637d4793730be3ac44f5a4a5,001,2024-06-30_07h32.24.961,empathy_intonation_perc,2024.1.4,Win32,60.24096386,52.7396,53.3726,0,0,0.0991,,53.3726,54.3713,0,8,8,8,1,0,bien,1,REAL,FALSA,,,,,,,,,,,,,,,,,
,,,,,,,,,637d4793730be3ac44f5a4a5,001,2024-06-30_07h32.24.961,empathy_intonation_perc,2024.1.4,Win32,60.24096386,54.3716,54.9547,1,1,0.046,,54.9547,55.9544,0,9,9,9,1,0,casa,1,REAL,FALSA,,,,,,,,,,,,,,,,,
,,,,,,,,,637d4793730be3ac44f5a4a5,001,2024-06-30_07h32.24.961,empathy_intonation_perc,2024.1.4,Win32,60.24096386,55.9547,57.0365,0,1,0.5511,,57.0366,58.0362,0,10,10,10,1,0,lejo,0,REAL,FALSA,,,,,,,,,,,,,,,,,
,,,,,,,,,637d4793730be3ac44f5a4a5,001,2024-06-30_07h32.24.961,empathy_intonation_perc,2024.1.4,Win32,60.24096386,58.0365,59.3521,0,1,0.788,,59.3521,60.3517,0,11,11,11,1,0,pretantas,0,REAL,FALSA,,,,,,,,,,,,,,,,,
,,,,,,,,,637d4793730be3ac44f5a4a5,001,2024-06-30_07h32.24.961,empathy_intonation_perc,2024.1.4,Win32,60.24096386,,,,,,,,,,,,,,,,,,,60.3523,61.7346,,,,,,,,,,,,,,,
,,,,,,,,,637d4793730be3ac44f5a4a5,001,2024-06-30_07h32.24.961,empathy_intonation_perc,2024.1.4,Win32,60.24096386,,,,,,,,,,,,,,110,densó,,,,,,61.756,62.7168,1,0,0.4356,,0,0,0,109,1,pseudoword,0,REAL,FALSA
,,,,,,,,,637d4793730be3ac44f5a4a5,001,2024-06-30_07h32.24.961,empathy_intonation_perc,2024.1.4,Win32,60.24096386,,,,,,,,,,,,,,164,tecia,,,,,,62.7172,63.5834,0,1,0.3354,,0,1,1,163,1,pseudoword,0,REAL,FALSA
,,,,,,,,,637d4793730be3ac44f5a4a5,001,2024-06-30_07h32.24.961,empathy_intonation_perc,2024.1.4,Win32,60.24096386,,,,,,,,,,,,,,111,monue,,,,,,63.5838,64.283,0,1,0.1662,,0,2,2,110,1,pseudoword,0,REAL,FALSA
,,,,,,,,,637d4793730be3ac44f5a4a5,001,2024-06-30_07h32.24.961,empathy_intonation_perc,2024.1.4,Win32,60.24096386,,,,,,,,,,,,,,55,maldad,,,,,,64.2833,64.8655,0,1,0.0472,,0,3,3,54,1,non_cognate,1,REAL,FALSA
,,,,,,,,,637d4793730be3ac44f5a4a5,001,2024-06-30_07h32.24.961,empathy_intonation_perc,2024.1.4,Win32,60.24096386,,,,,,,,,,,,,,165,chote,,,,,,64.8659,65.3984,0,1,0.0102,,0,4,4,164,1,pseudoword,0,REAL,FALSA
,,,,,,,,,637d4793730be3ac44f5a4a5,001,2024-06-30_07h32.24.961,empathy_intonation_perc,2024.1.4,Win32,60.24096386,,,,,,,,,,,,,,172,dogue,,,,,,65.3987,66.0989,0,1,0.1658,,0,5,5,171,1,pseudoword,0,REAL,FALSA
,,,,,,,,,637d4793730be3ac44f5a4a5,001,2024-06-30_07h32.24.961,empathy_intonation_perc,2024.1.4,Win32,60.24096386,,,,,,,,,,,,,,31,civil,,,,,,66.0993,66.6981,0,1,0.0647,,0,6,6,30,1,two_way_cognate,1,REAL,FALSA
,,,,,,,,,637d4793730be3ac44f5a4a5,001,2024-06-30_07h32.24.961,empathy_intonation_perc,2024.1.4,Win32,60.24096386,,,,,,,,,,,,,,144,diroco,,,,,,66.6985,67.2809,0,1,0.0482,,0,7,7,143,1,pseudoword,0,REAL,FALSA
,,,,,,,,,637d4793730be3ac44f5a4a5,001,2024-06-30_07h32.24.961,empathy_intonation_perc,2024.1.4,Win32,60.24096386,,,,,,,,,,,,,,187,nomata,,,,,,67.2812,68.0144,0,1,0.2086,,0,8,8,186,1,pseudoword,0,REAL,FALSA
,,,,,,,,,637d4793730be3ac44f5a4a5,001,2024-06-30_07h32.24.961,empathy_intonation_perc,2024.1.4,Win32,60.24096386,,,,,,,,,,,,,,176,gripar,,,,,,68.0147,68.6468,0,1,0.108,,0,9,9,175,1,pseudoword,0,REAL,FALSA
,,,,,,,,,637d4793730be3ac44f5a4a5,001,2024-06-30_07h32.24.961,empathy_intonation_perc,2024.1.4,Win32,60.24096386,,,,,,,,,,,,,,6,horror,,,,,,68.647,69.4633,0,1,0.2832,,0,10,10,5,1,three_way_cognate,1,REAL,FALSA
,,,,,,,,,637d4793730be3ac44f5a4a5,001,2024-06-30_07h32.24.961,empathy_intonation_perc,2024.1.4,Win32,60.24096386,,,,,,,,,,,,,,40,pelvis,,,,,,69.4638,70.246,1,0,0.2495,,0,11,11,39,1,two_way_cognate,1,REAL,FALSA
,,,,,,,,,637d4793730be3ac44f5a4a5,001,2024-06-30_07h32.24.961,empathy_intonation_perc,2024.1.4,Win32,60.24096386,,,,,,,,,,,,,,33,collar,,,,,,70.2463,71.0456,1,0,0.2629,,0,12,12,32,1,two_way_cognate,1,REAL,FALSA
,,,,,,,,,637d4793730be3ac44f5a4a5,001,2024-06-30_07h32.24.961,empathy_intonation_perc,2024.1.4,Win32,60.24096386,,,,,,,,,,,,,,96,caro,,,,,,71.0459,71.7116,0,1,0.1447,,0,13,13,95,1,non_cognate,1,REAL,FALSA
,,,,,,,,,637d4793730be3ac44f5a4a5,001,2024-06-30_07h32.24.961,empathy_intonation_perc,2024.1.4,Win32,60.24096386,,,,,,,,,,,,,,184,huenos,,,,,,71.7118,72.3948,1,0,0.1481,,0,14,14,183,1,pseudoword,0,REAL,FALSA
,,,,,,,,,637d4793730be3ac44f5a4a5,001,2024-06-30_07h32.24.961,empathy_intonation_perc,2024.1.4,Win32,60.24096386,,,,,,,,,,,,,,107,plago,,,,,,72.3952,73.1282,1,0,0.1975,,0,15,15,106,1,pseudoword,0,REAL,FALSA
,,,,,,,,,637d4793730be3ac44f5a4a5,001,2024-06-30_07h32.24.961,empathy_intonation_perc,2024.1.4,Win32,60.24096386,,,,,,,,,,,,,,147,alla,,,,,,73.1285,73.8273,0,1,0.1658,,0,16,16,146,1,pseudoword,0,REAL,FALSA
,,,,,,,,,637d4793730be3ac44f5a4a5,001,2024-06-30_07h32.24.961,empathy_intonation_perc,2024.1.4,Win32,60.24096386,,,,,,,,,,,,,,129,vinzó,,,,,,73.8276,74.527,0,1,0.1677,,0,17,17,128,1,pseudoword,0,REAL,FALSA
,,,,,,,,,637d4793730be3ac44f5a4a5,001,2024-06-30_07h32.24.961,empathy_intonation_perc,2024.1.4,Win32,60.24096386,,,,,,,,,,,,,,101,losco,,,,,,74.5272,75.1598,1,0,0.0978,,0,18,18,100,1,pseudoword,0,REAL,FALSA
,,,,,,,,,637d4793730be3ac44f5a4a5,001,2024-06-30_07h32.24.961,empathy_intonation_perc,2024.1.4,Win32,60.24096386,,,,,,,,,,,,,,39,casual,,,,,,75.1603,75.7096,0,1,0.0292,,0,19,19,38,1,two_way_cognate,1,REAL,FALSA
,,,,,,,,,637d4793730be3ac44f5a4a5,001,2024-06-30_07h32.24.961,empathy_intonation_perc,2024.1.4,Win32,60.24096386,,,,,,,,,,,,,,134,molor,,,,,,75.7099,76.3428,1,0,0.0993,,0,20,20,133,1,pseudoword,0,REAL,FALSA
,,,,,,,,,637d4793730be3ac44f5a4a5,001,2024-06-30_07h32.24.961,empathy_intonation_perc,2024.1.4,Win32,60.24096386,,,,,,,,,,,,,,74,ala,,,,,,76.3429,77.059,1,0,0.194,,0,21,21,73,1,non_cognate,1,REAL,FALSA
,,,,,,,,,637d4793730be3ac44f5a4a5,001,2024-06-30_07h32.24.961,empathy_intonation_perc,2024.1.4,Win32,60.24096386,,,,,,,,,,,,,,178,inichó,,,,,,77.0594,77.659,0,1,0.0698,,0,22,22,177,1,pseudoword,0,REAL,FALSA
,,,,,,,,,637d4793730be3ac44f5a4a5,001,2024-06-30_07h32.24.961,empathy_intonation_perc,2024.1.4,Win32,60.24096386,,,,,,,,,,,,,,168,cobén,,,,,,77.6594,78.375,0,1,0.1832,,0,23,23,167,1,pseudoword,0,REAL,FALSA
,,,,,,,,,637d4793730be3ac44f5a4a5,001,2024-06-30_07h32.24.961,empathy_intonation_perc,2024.1.4,Win32,60.24096386,,,,,,,,,,,,,,189,medium,,,,,,78.3754,78.9242,1,0,0.0272,,0,24,24,188,1,pseudoword,0,REAL,FALSA
,,,,,,,,,637d4793730be3ac44f5a4a5,001,2024-06-30_07h32.24.961,empathy_intonation_perc,2024.1.4,Win32,60.24096386,,,,,,,,,,,,,,43,honor,,,,,,78.9245,79.6247,1,0,0.1807,,0,25,25,42,1,two_way_cognate,1,REAL,FALSA
,,,,,,,,,637d4793730be3ac44f5a4a5,001,2024-06-30_07h32.24.961,empathy_intonation_perc,2024.1.4,Win32,60.24096386,,,,,,,,,,,,,,152,prave,,,,,,79.6253,80.3241,0,1,0.1649,,0,26,26,151,1,pseudoword,0,REAL,FALSA
,,,,,,,,,637d4793730be3ac44f5a4a5,001,2024-06-30_07h32.24.961,empathy_intonation_perc,2024.1.4,Win32,60.24096386,,,,,,,,,,,,,,92,flecha,,,,,,80.3244,81.0064,0,1,0.1593,,0,27,27,91,1,non_cognate,1,REAL,FALSA
,,,,,,,,,637d4793730be3ac44f5a4a5,001,2024-06-30_07h32.24.961,empathy_intonation_perc,2024.1.4,Win32,60.24096386,,,,,,,,,,,,,,66,aleta,,,,,,81.0068,81.7734,0,1,0.235,,0,28,28,65,1,non_cognate,1,REAL,FALSA
,,,,,,,,,637d4793730be3ac44f5a4a5,001,2024-06-30_07h32.24.961,empathy_intonation_perc,2024.1.4,Win32,60.24096386,,,,,,,,,,,,,,150,cricó,,,,,,81.7739,82.6559,0,1,0.3482,,0,29,29,149,1,pseudoword,0,REAL,FALSA
,,,,,,,,,637d4793730be3ac44f5a4a5,001,2024-06-30_07h32.24.961,empathy_intonation_perc,2024.1.4,Win32,60.24096386,,,,,,,,,,,,,,10,drama,,,,,,82.6563,83.2725,0,1,0.0827,,0,30,30,9,1,three_way_cognate,1,REAL,FALSA
,,,,,,,,,637d4793730be3ac44f5a4a5,001,2024-06-30_07h32.24.961,empathy_intonation_perc,2024.1.4,Win32,60.24096386,,,,,,,,,,,,,,127,vien,,,,,,83.2728,83.8217,0,1,0.0153,,0,31,31,126,1,pseudoword,0,REAL,FALSA
,,,,,,,,,637d4793730be3ac44f5a4a5,001,2024-06-30_07h32.24.961,empathy_intonation_perc,2024.1.4,Win32,60.24096386,,,,,,,,,,,,,,24,retina,,,,,,83.822,84.4548,0,1,0.0985,,0,32,32,23,1,three_way_cognate,1,REAL,FALSA
,,,,,,,,,637d4793730be3ac44f5a4a5,001,2024-06-30_07h32.24.961,empathy_intonation_perc,2024.1.4,Win32,60.24096386,,,,,,,,,,,,,,82,brillo,,,,,,84.4552,85.0714,0,1,0.0833,,0,33,33,81,1,non_cognate,1,REAL,FALSA
,,,,,,,,,637d4793730be3ac44f5a4a5,001,2024-06-30_07h32.24.961,empathy_intonation_perc,2024.1.4,Win32,60.24096386,,,,,,,,,,,,,,179,suelet,,,,,,85.0716,85.6044,0,1,0.0004,,0,34,34,178,1,pseudoword,0,REAL,FALSA
,,,,,,,,,637d4793730be3ac44f5a4a5,001,2024-06-30_07h32.24.961,empathy_intonation_perc,2024.1.4,Win32,60.24096386,,,,,,,,,,,,,,126,tobre,,,,,,85.6047,86.4206,1,0,0.2955,,0,35,35,125,1,pseudoword,0,REAL,FALSA
,,,,,,,,,637d4793730be3ac44f5a4a5,001,2024-06-30_07h32.24.961,empathy_intonation_perc,2024.1.4,Win32,60.24096386,,,,,,,,,,,,,,80,cuenco,,,,,,86.4209,87.1037,1,0,0.151,,0,36,36,79,1,non_cognate,1,REAL,FALSA
,,,,,,,,,637d4793730be3ac44f5a4a5,001,2024-06-30_07h32.24.961,empathy_intonation_perc,2024.1.4,Win32,60.24096386,,,,,,,,,,,,,,68,puñal,,,,,,87.1041,87.6701,0,1,0.0315,,0,37,37,67,1,non_cognate,1,REAL,FALSA
,,,,,,,,,637d4793730be3ac44f5a4a5,001,2024-06-30_07h32.24.961,empathy_intonation_perc,2024.1.4,Win32,60.24096386,,,,,,,,,,,,,,91,equipo,,,,,,87.6705,88.3032,1,0,0.1047,,0,38,38,90,1,non_cognate,1,REAL,FALSA
,,,,,,,,,637d4793730be3ac44f5a4a5,001,2024-06-30_07h32.24.961,empathy_intonation_perc,2024.1.4,Win32,60.24096386,,,,,,,,,,,,,,12,dogma,,,,,,88.3036,88.9697,0,1,0.134,,0,39,39,11,1,three_way_cognate,1,REAL,FALSA
,,,,,,,,,637d4793730be3ac44f5a4a5,001,2024-06-30_07h32.24.961,empathy_intonation_perc,2024.1.4,Win32,60.24096386,,,,,,,,,,,,,,94,forro,,,,,,88.9701,89.6185,1,0,0.1155,,0,40,40,93,1,non_cognate,1,REAL,FALSA
,,,,,,,,,637d4793730be3ac44f5a4a5,001,2024-06-30_07h32.24.961,empathy_intonation_perc,2024.1.4,Win32,60.24096386,,,,,,,,,,,,,,117,morrá,,,,,,89.6189,90.1519,0,1,0.008,,0,41,41,116,1,pseudoword,0,REAL,FALSA
,,,,,,,,,637d4793730be3ac44f5a4a5,001,2024-06-30_07h32.24.961,empathy_intonation_perc,2024.1.4,Win32,60.24096386,,,,,,,,,,,,,,61,aduana,,,,,,90.1521,90.6845,0,1,0.0047,,0,42,42,60,1,non_cognate,1,REAL,FALSA
,,,,,,,,,637d4793730be3ac44f5a4a5,001,2024-06-30_07h32.24.961,empathy_intonation_perc,2024.1.4,Win32,60.24096386,,,,,,,,,,,,,,67,llamar,,,,,,90.6847,91.2844,1,0,0.0721,,0,43,43,66,1,non_cognate,1,REAL,FALSA
,,,,,,,,,637d4793730be3ac44f5a4a5,001,2024-06-30_07h32.24.961,empathy_intonation_perc,2024.1.4,Win32,60.24096386,,,,,,,,,,,,,,128,pelí,,,,,,91.2848,91.8512,0,1,0.0412,,0,44,44,127,1,pseudoword,0,REAL,FALSA
,,,,,,,,,637d4793730be3ac44f5a4a5,001,2024-06-30_07h32.24.961,empathy_intonation_perc,2024.1.4,Win32,60.24096386,,,,,,,,,,,,,,133,conso,,,,,,91.8516,92.3843,0,1,0.0004,,0,45,45,132,1,pseudoword,0,REAL,FALSA
,,,,,,,,,637d4793730be3ac44f5a4a5,001,2024-06-30_07h32.24.961,empathy_intonation_perc,2024.1.4,Win32,60.24096386,,,,,,,,,,,,,,102,coyo,,,,,,92.3851,92.9668,1,0,0.0496,,0,46,46,101,1,pseudoword,0,REAL,FALSA
,,,,,,,,,637d4793730be3ac44f5a4a5,001,2024-06-30_07h32.24.961,empathy_intonation_perc,2024.1.4,Win32,60.24096386,,,,,,,,,,,,,,70,ánimo,,,,,,92.967,93.5333,0,1,0.0318,,0,47,47,69,1,non_cognate,1,REAL,FALSA
,,,,,,,,,637d4793730be3ac44f5a4a5,001,2024-06-30_07h32.24.961,empathy_intonation_perc,2024.1.4,Win32,60.24096386,,,,,,,,,,,,,,114,dibrea,,,,,,93.5337,94.1164,1,0,0.0481,,0,48,48,113,1,pseudoword,0,REAL,FALSA
,,,,,,,,,637d4793730be3ac44f5a4a5,001,2024-06-30_07h32.24.961,empathy_intonation_perc,2024.1.4,Win32,60.24096386,,,,,,,,,,,,,,63,hilo,,,,,,94.1167,94.6993,0,1,0.0495,,0,49,49,62,1,non_cognate,1,REAL,FALSA
,,,,,,,,,637d4793730be3ac44f5a4a5,001,2024-06-30_07h32.24.961,empathy_intonation_perc,2024.1.4,Win32,60.24096386,,,,,,,,,,,,,,34,actor,,,,,,94.6995,95.4323,0,1,0.2055,,0,50,50,33,1,two_way_cognate,1,REAL,FALSA
,,,,,,,,,637d4793730be3ac44f5a4a5,001,2024-06-30_07h32.24.961,empathy_intonation_perc,2024.1.4,Win32,60.24096386,,,,,,,,,,,,,,3,disco,,,,,,95.4326,96.0316,1,0,0.0655,,0,51,51,2,1,three_way_cognate,1,REAL,FALSA
,,,,,,,,,637d4793730be3ac44f5a4a5,001,2024-06-30_07h32.24.961,empathy_intonation_perc,2024.1.4,Win32,60.24096386,,,,,,,,,,,,,,76,chocar,,,,,,96.0319,96.5979,0,1,0.0443,,0,52,52,75,1,non_cognate,1,REAL,FALSA
,,,,,,,,,637d4793730be3ac44f5a4a5,001,2024-06-30_07h32.24.961,empathy_intonation_perc,2024.1.4,Win32,60.24096386,,,,,,,,,,,,,,138,tator,,,,,,96.5981,97.3476,1,0,0.2154,,0,53,53,137,1,pseudoword,0,REAL,FALSA
,,,,,,,,,637d4793730be3ac44f5a4a5,001,2024-06-30_07h32.24.961,empathy_intonation_perc,2024.1.4,Win32,60.24096386,,,,,,,,,,,,,,1,moral,,,,,,97.3479,97.9472,0,1,0.0675,,0,54,54,0,1,three_way_cognate,1,REAL,FALSA
,,,,,,,,,637d4793730be3ac44f5a4a5,001,2024-06-30_07h32.24.961,empathy_intonation_perc,2024.1.4,Win32,60.24096386,,,,,,,,,,,,,,190,asumie,,,,,,97.9475,98.5634,1,0,0.0936,,0,55,55,189,1,pseudoword,0,REAL,FALSA
,,,,,,,,,637d4793730be3ac44f5a4a5,001,2024-06-30_07h32.24.961,empathy_intonation_perc,2024.1.4,Win32,60.24096386,,,,,,,,,,,,,,166,anfia,,,,,,98.5637,102.0952,0,1,2.9971,,0,56,56,165,1,pseudoword,0,REAL,FALSA
,,,,,,,,,637d4793730be3ac44f5a4a5,001,2024-06-30_07h32.24.961,empathy_intonation_perc,2024.1.4,Win32,60.24096386,,,,,,,,,,,,,,71,torta,,,,,,102.0955,102.8449,0,1,0.2234,,0,57,57,70,1,non_cognate,1,REAL,FALSA
,,,,,,,,,637d4793730be3ac44f5a4a5,001,2024-06-30_07h32.24.961,empathy_intonation_perc,2024.1.4,Win32,60.24096386,,,,,,,,,,,,,,64,rizado,,,,,,102.8452,103.4948,0,1,0.1156,,0,58,58,63,1,non_cognate,1,REAL,FALSA
,,,,,,,,,637d4793730be3ac44f5a4a5,001,2024-06-30_07h32.24.961,empathy_intonation_perc,2024.1.4,Win32,60.24096386,,,,,,,,,,,,,,36,viable,,,,,,103.4952,104.977,0,1,0.9556,,0,59,59,35,1,two_way_cognate,1,REAL,FALSA
,,,,,,,,,637d4793730be3ac44f5a4a5,001,2024-06-30_07h32.24.961,empathy_intonation_perc,2024.1.4,Win32,60.24096386,,,,,,,,,,,,,,167,dobbo,,,,,,104.9773,105.66,1,0,0.1471,,0,60,60,166,1,pseudoword,0,REAL,FALSA
,,,,,,,,,637d4793730be3ac44f5a4a5,001,2024-06-30_07h32.24.961,empathy_intonation_perc,2024.1.4,Win32,60.24096386,,,,,,,,,,,,,,5,extra,,,,,,105.6604,106.2599,0,1,0.0676,,0,61,61,4,1,three_way_cognate,1,REAL,FALSA
,,,,,,,,,637d4793730be3ac44f5a4a5,001,2024-06-30_07h32.24.961,empathy_intonation_perc,2024.1.4,Win32,60.24096386,,,,,,,,,,,,,,29,clamor,,,,,,106.2603,106.9258,1,0,0.1418,,0,62,62,28,1,two_way_cognate,1,REAL,FALSA
,,,,,,,,,637d4793730be3ac44f5a4a5,001,2024-06-30_07h32.24.961,empathy_intonation_perc,2024.1.4,Win32,60.24096386,,,,,,,,,,,,,,136,hueas,,,,,,106.9262,107.5593,1,0,0.0981,,0,63,63,135,1,pseudoword,0,REAL,FALSA
,,,,,,,,,637d4793730be3ac44f5a4a5,001,2024-06-30_07h32.24.961,empathy_intonation_perc,2024.1.4,Win32,60.24096386,,,,,,,,,,,,,,88,percha,,,,,,107.5596,108.2754,1,0,0.1816,,0,64,64,87,1,non_cognate,1,REAL,FALSA
,,,,,,,,,637d4793730be3ac44f5a4a5,001,2024-06-30_07h32.24.961,empathy_intonation_perc,2024.1.4,Win32,60.24096386,,,,,,,,,,,,,,130,dubo,,,,,,108.2757,108.8418,0,1,0.032,,0,65,65,129,1,pseudoword,0,REAL,FALSA
,,,,,,,,,637d4793730be3ac44f5a4a5,001,2024-06-30_07h32.24.961,empathy_intonation_perc,2024.1.4,Win32,60.24096386,,,,,,,,,,,,,,98,martir,,,,,,108.8421,109.8745,1,0,0.5079,,0,66,66,97,1,pseudoword,0,REAL,FALSA
,,,,,,,,,637d4793730be3ac44f5a4a5,001,2024-06-30_07h32.24.961,empathy_intonation_perc,2024.1.4,Win32,60.24096386,,,,,,,,,,,,,,85,enorme,,,,,,109.8749,110.5071,1,0,0.1021,,0,67,67,84,1,non_cognate,1,REAL,FALSA
,,,,,,,,,637d4793730be3ac44f5a4a5,001,2024-06-30_07h32.24.961,empathy_intonation_perc,2024.1.4,Win32,60.24096386,,,,,,,,,,,,,,158,babrá,,,,,,110.5075,111.0906,0,1,0.0483,,0,68,68,157,1,pseudoword,0,REAL,FALSA
,,,,,,,,,637d4793730be3ac44f5a4a5,001,2024-06-30_07h32.24.961,empathy_intonation_perc,2024.1.4,Win32,60.24096386,,,,,,,,,,,,,,32,animal,,,,,,111.0911,111.6899,0,1,0.0706,,0,69,69,31,1,two_way_cognate,1,REAL,FALSA
,,,,,,,,,637d4793730be3ac44f5a4a5,001,2024-06-30_07h32.24.961,empathy_intonation_perc,2024.1.4,Win32,60.24096386,,,,,,,,,,,,,,132,nocó,,,,,,111.6902,112.4731,0,1,0.2517,,0,70,70,131,1,pseudoword,0,REAL,FALSA
,,,,,,,,,637d4793730be3ac44f5a4a5,001,2024-06-30_07h32.24.961,empathy_intonation_perc,2024.1.4,Win32,60.24096386,,,,,,,,,,,,,,14,aura,,,,,,112.4735,113.1056,1,0,0.098,,0,71,71,13,1,three_way_cognate,1,REAL,FALSA
,,,,,,,,,637d4793730be3ac44f5a4a5,001,2024-06-30_07h32.24.961,empathy_intonation_perc,2024.1.4,Win32,60.24096386,,,,,,,,,,,,,,7,albino,,,,,,113.1059,113.7723,1,0,0.1332,,0,72,72,6,1,three_way_cognate,1,REAL,FALSA
,,,,,,,,,637d4793730be3ac44f5a4a5,001,2024-06-30_07h32.24.961,empathy_intonation_perc,2024.1.4,Win32,60.24096386,,,,,,,,,,,,,,89,muñeca,,,,,,113.7727,114.4221,1,0,0.1178,,0,73,73,88,1,non_cognate,1,REAL,FALSA
,,,,,,,,,637d4793730be3ac44f5a4a5,001,2024-06-30_07h32.24.961,empathy_intonation_perc,2024.1.4,Win32,60.24096386,,,,,,,,,,,,,,41,pasta,,,,,,114.4226,115.0545,1,0,0.0981,,0,74,74,40,1,two_way_cognate,1,REAL,FALSA
,,,,,,,,,637d4793730be3ac44f5a4a5,001,2024-06-30_07h32.24.961,empathy_intonation_perc,2024.1.4,Win32,60.24096386,,,,,,,,,,,,,,191,frasis,,,,,,115.0546,115.671,1,0,0.0848,,0,75,75,190,1,pseudoword,0,REAL,FALSA
,,,,,,,,,637d4793730be3ac44f5a4a5,001,2024-06-30_07h32.24.961,empathy_intonation_perc,2024.1.4,Win32,60.24096386,,,,,,,,,,,,,,112,samón,,,,,,115.6713,116.321,0,1,0.1209,,0,76,76,111,1,pseudoword,0,REAL,FALSA
,,,,,,,,,637d4793730be3ac44f5a4a5,001,2024-06-30_07h32.24.961,empathy_intonation_perc,2024.1.4,Win32,60.24096386,,,,,,,,,,,,,,86,cuenco,,,,,,116.3214,116.937,0,1,0.0815,,0,77,77,85,1,non_cognate,1,REAL,FALSA
,,,,,,,,,637d4793730be3ac44f5a4a5,001,2024-06-30_07h32.24.961,empathy_intonation_perc,2024.1.4,Win32,60.24096386,,,,,,,,,,,,,,52,blando,,,,,,116.9373,117.4699,0,1,0.0034,,0,78,78,51,1,non_cognate,1,REAL,FALSA
,,,,,,,,,637d4793730be3ac44f5a4a5,001,2024-06-30_07h32.24.961,empathy_intonation_perc,2024.1.4,Win32,60.24096386,,,,,,,,,,,,,,15,test,,,,,,117.4701,118.0364,0,1,0.0341,,0,79,79,14,1,three_way_cognate,1,REAL,FALSA
,,,,,,,,,637d4793730be3ac44f5a4a5,001,2024-06-30_07h32.24.961,empathy_intonation_perc,2024.1.4,Win32,60.24096386,,,,,,,,,,,,,,42,rumor,,,,,,118.0367,118.736,0,1,0.1741,,0,80,80,41,1,two_way_cognate,1,REAL,FALSA
,,,,,,,,,637d4793730be3ac44f5a4a5,001,2024-06-30_07h32.24.961,empathy_intonation_perc,2024.1.4,Win32,60.24096386,,,,,,,,,,,,,,59,feo,,,,,,118.7364,119.6194,0,1,0.3486,,0,81,81,58,1,non_cognate,1,REAL,FALSA
,,,,,,,,,637d4793730be3ac44f5a4a5,001,2024-06-30_07h32.24.961,empathy_intonation_perc,2024.1.4,Win32,60.24096386,,,,,,,,,,,,,,122,boñaz,,,,,,119.6198,120.3852,0,1,0.2324,,0,82,82,121,1,pseudoword,0,REAL,FALSA
,,,,,,,,,637d4793730be3ac44f5a4a5,001,2024-06-30_07h32.24.961,empathy_intonation_perc,2024.1.4,Win32,60.24096386,,,,,,,,,,,,,,185,aljizo,,,,,,120.3856,121.2016,0,1,0.2817,,0,83,83,184,1,pseudoword,0,REAL,FALSA
,,,,,,,,,637d4793730be3ac44f5a4a5,001,2024-06-30_07h32.24.961,empathy_intonation_perc,2024.1.4,Win32,60.24096386,,,,,,,,,,,,,,50,sierra,,,,,,121.2019,121.9846,0,1,0.256,,0,84,84,49,1,non_cognate,1,REAL,FALSA
,,,,,,,,,637d4793730be3ac44f5a4a5,001,2024-06-30_07h32.24.961,empathy_intonation_perc,2024.1.4,Win32,60.24096386,,,,,,,,,,,,,,53,punta,,,,,,121.9851,122.784,0,1,0.2717,,0,85,85,52,1,non_cognate,1,REAL,FALSA
,,,,,,,,,637d4793730be3ac44f5a4a5,001,2024-06-30_07h32.24.961,empathy_intonation_perc,2024.1.4,Win32,60.24096386,,,,,,,,,,,,,,22,mango,,,,,,122.7844,123.6166,0,1,0.3063,,0,86,86,21,1,three_way_cognate,1,REAL,FALSA
,,,,,,,,,637d4793730be3ac44f5a4a5,001,2024-06-30_07h32.24.961,empathy_intonation_perc,2024.1.4,Win32,60.24096386,,,,,,,,,,,,,,186,rizate,,,,,,123.617,124.3497,0,1,0.2051,,0,87,87,185,1,pseudoword,0,REAL,FALSA
,,,,,,,,,637d4793730be3ac44f5a4a5,001,2024-06-30_07h32.24.961,empathy_intonation_perc,2024.1.4,Win32,60.24096386,,,,,,,,,,,,,,19,mafia,,,,,,124.35,125.1328,0,1,0.2475,,0,88,88,18,1,three_way_cognate,1,REAL,FALSA
,,,,,,,,,637d4793730be3ac44f5a4a5,001,2024-06-30_07h32.24.961,empathy_intonation_perc,2024.1.4,Win32,60.24096386,,,,,,,,,,,,,,84,aviso,,,,,,125.1332,125.8822,0,1,0.2151,,0,89,89,83,1,non_cognate,1,REAL,FALSA
,,,,,,,,,637d4793730be3ac44f5a4a5,001,2024-06-30_07h32.24.961,empathy_intonation_perc,2024.1.4,Win32,60.24096386,,,,,,,,,,,,,,115,lidena,,,,,,125.8827,126.6149,0,1,0.2046,,0,90,90,114,1,pseudoword,0,REAL,FALSA
,,,,,,,,,637d4793730be3ac44f5a4a5,001,2024-06-30_07h32.24.961,empathy_intonation_perc,2024.1.4,Win32,60.24096386,,,,,,,,,,,,,,83,hálito,,,,,,126.6152,127.2318,0,1,0.0835,,0,91,91,82,1,non_cognate,1,REAL,FALSA
,,,,,,,,,637d4793730be3ac44f5a4a5,001,2024-06-30_07h32.24.961,empathy_intonation_perc,2024.1.4,Win32,60.24096386,,,,,,,,,,,,,,27,piano,,,,,,127.2321,127.881,0,1,0.1147,,0,92,92,26,1,two_way_cognate,1,REAL,FALSA
,,,,,,,,,637d4793730be3ac44f5a4a5,001,2024-06-30_07h32.24.961,empathy_intonation_perc,2024.1.4,Win32,60.24096386,,,,,,,,,,,,,,104,estulo,,,,,,127.8812,128.647,0,1,0.2413,,0,93,93,103,1,pseudoword,0,REAL,FALSA
,,,,,,,,,637d4793730be3ac44f5a4a5,001,2024-06-30_07h32.24.961,empathy_intonation_perc,2024.1.4,Win32,60.24096386,,,,,,,,,,,,,,118,bará,,,,,,128.6473,129.2465,0,1,0.0781,,0,94,94,117,1,pseudoword,0,REAL,FALSA
,,,,,,,,,637d4793730be3ac44f5a4a5,001,2024-06-30_07h32.24.961,empathy_intonation_perc,2024.1.4,Win32,60.24096386,,,,,,,,,,,,,,169,pitis,,,,,,129.2468,129.863,0,1,0.0903,,0,95,95,168,1,pseudoword,0,REAL,FALSA
,,,,,,,,,637d4793730be3ac44f5a4a5,001,2024-06-30_07h32.24.961,empathy_intonation_perc,2024.1.4,Win32,60.24096386,,,,,,,,,,,,,,62,pegar,,,,,,129.8633,130.4799,0,1,0.0905,,0,96,96,61,1,non_cognate,1,REAL,FALSA
,,,,,,,,,637d4793730be3ac44f5a4a5,001,2024-06-30_07h32.24.961,empathy_intonation_perc,2024.1.4,Win32,60.24096386,,,,,,,,,,,,,,48,pelvis,,,,,,130.4802,131.0131,0,1,0.0085,,0,97,97,47,1,two_way_cognate,1,REAL,FALSA
,,,,,,,,,637d4793730be3ac44f5a4a5,001,2024-06-30_07h32.24.961,empathy_intonation_perc,2024.1.4,Win32,60.24096386,,,,,,,,,,,,,,175,tradía,,,,,,131.0135,131.6293,0,1,0.0813,,0,98,98,174,1,pseudoword,0,REAL,FALSA
,,,,,,,,,637d4793730be3ac44f5a4a5,001,2024-06-30_07h32.24.961,empathy_intonation_perc,2024.1.4,Win32,60.24096386,,,,,,,,,,,,,,120,mauja,,,,,,131.6297,132.1951,0,1,0.0454,,0,99,99,119,1,pseudoword,0,REAL,FALSA
,,,,,,,,,637d4793730be3ac44f5a4a5,001,2024-06-30_07h32.24.961,empathy_intonation_perc,2024.1.4,Win32,60.24096386,,,,,,,,,,,,,,137,trugo,,,,,,132.1954,132.7948,0,1,0.0649,,0,100,100,136,1,pseudoword,0,REAL,FALSA
,,,,,,,,,637d4793730be3ac44f5a4a5,001,2024-06-30_07h32.24.961,empathy_intonation_perc,2024.1.4,Win32,60.24096386,,,,,,,,,,,,,,73,llevar,,,,,,132.7951,133.3617,0,1,0.0408,,0,101,101,72,1,non_cognate,1,REAL,FALSA
,,,,,,,,,637d4793730be3ac44f5a4a5,001,2024-06-30_07h32.24.961,empathy_intonation_perc,2024.1.4,Win32,60.24096386,,,,,,,,,,,,,,38,halo,,,,,,133.362,133.9277,0,1,0.0426,,0,102,102,37,1,two_way_cognate,1,REAL,FALSA
,,,,,,,,,637d4793730be3ac44f5a4a5,001,2024-06-30_07h32.24.961,empathy_intonation_perc,2024.1.4,Win32,60.24096386,,,,,,,,,,,,,,57,regalo,,,,,,133.9279,134.6442,0,1,0.1869,,0,103,103,56,1,non_cognate,1,REAL,FALSA
,,,,,,,,,637d4793730be3ac44f5a4a5,001,2024-06-30_07h32.24.961,empathy_intonation_perc,2024.1.4,Win32,60.24096386,,,,,,,,,,,,,,160,fomeó,,,,,,134.6445,135.2937,0,1,0.1225,,0,104,104,159,1,pseudoword,0,REAL,FALSA
,,,,,,,,,637d4793730be3ac44f5a4a5,001,2024-06-30_07h32.24.961,empathy_intonation_perc,2024.1.4,Win32,60.24096386,,,,,,,,,,,,,,9,portal,,,,,,135.294,135.8598,0,1,0.0323,,0,105,105,8,1,three_way_cognate,1,REAL,FALSA
,,,,,,,,,637d4793730be3ac44f5a4a5,001,2024-06-30_07h32.24.961,empathy_intonation_perc,2024.1.4,Win32,60.24096386,,,,,,,,,,,,,,145,rúo,,,,,,135.86,136.4262,0,1,0.0461,,0,106,106,144,1,pseudoword,0,REAL,FALSA
,,,,,,,,,637d4793730be3ac44f5a4a5,001,2024-06-30_07h32.24.961,empathy_intonation_perc,2024.1.4,Win32,60.24096386,,,,,,,,,,,,,,188,amplir,,,,,,136.4265,137.0429,0,1,0.0812,,0,107,107,187,1,pseudoword,0,REAL,FALSA
,,,,,,,,,637d4793730be3ac44f5a4a5,001,2024-06-30_07h32.24.961,empathy_intonation_perc,2024.1.4,Win32,60.24096386,,,,,,,,,,,,,,121,barbs,,,,,,137.0432,144.0552,0,1,6.4906,,0,108,108,120,1,pseudoword,0,REAL,FALSA
,,,,,,,,,637d4793730be3ac44f5a4a5,001,2024-06-30_07h32.24.961,empathy_intonation_perc,2024.1.4,Win32,60.24096386,,,,,,,,,,,,,,163,olzan,,,,,,144.0622,144.7385,0,1,0.147,,0,109,109,162,1,pseudoword,0,REAL,FALSA
,,,,,,,,,637d4793730be3ac44f5a4a5,001,2024-06-30_07h32.24.961,empathy_intonation_perc,2024.1.4,Win32,60.24096386,,,,,,,,,,,,,,4,flora,,,,,,144.7387,145.4047,0,1,0.1324,,0,110,110,3,1,three_way_cognate,1,REAL,FALSA
,,,,,,,,,637d4793730be3ac44f5a4a5,001,2024-06-30_07h32.24.961,empathy_intonation_perc,2024.1.4,Win32,60.24096386,,,,,,,,,,,,,,56,pico,,,,,,145.4051,146.2873,0,1,0.3506,,0,111,111,55,1,non_cognate,1,REAL,FALSA
,,,,,,,,,637d4793730be3ac44f5a4a5,001,2024-06-30_07h32.24.961,empathy_intonation_perc,2024.1.4,Win32,60.24096386,,,,,,,,,,,,,,106,diebro,,,,,,146.2875,146.8869,0,1,0.0748,,0,112,112,105,1,pseudoword,0,REAL,FALSA
,,,,,,,,,637d4793730be3ac44f5a4a5,001,2024-06-30_07h32.24.961,empathy_intonation_perc,2024.1.4,Win32,60.24096386,,,,,,,,,,,,,,108,jauda,,,,,,146.8871,147.4207,0,1,0.0081,,0,113,113,107,1,pseudoword,0,REAL,FALSA
,,,,,,,,,637d4793730be3ac44f5a4a5,001,2024-06-30_07h32.24.961,empathy_intonation_perc,2024.1.4,Win32,60.24096386,,,,,,,,,,,,,,25,vigor,,,,,,147.421,147.9696,0,1,0.0289,,0,114,114,24,1,two_way_cognate,1,REAL,FALSA
,,,,,,,,,637d4793730be3ac44f5a4a5,001,2024-06-30_07h32.24.961,empathy_intonation_perc,2024.1.4,Win32,60.24096386,,,,,,,,,,,,,,156,ozoso,,,,,,147.9699,148.6529,0,1,0.1559,,0,115,115,155,1,pseudoword,0,REAL,FALSA
,,,,,,,,,637d4793730be3ac44f5a4a5,001,2024-06-30_07h32.24.961,empathy_intonation_perc,2024.1.4,Win32,60.24096386,,,,,,,,,,,,,,69,tiza,,,,,,148.6532,149.203,0,1,0.0227,,0,116,116,68,1,non_cognate,1,REAL,FALSA
,,,,,,,,,637d4793730be3ac44f5a4a5,001,2024-06-30_07h32.24.961,empathy_intonation_perc,2024.1.4,Win32,60.24096386,,,,,,,,,,,,,,135,panté,,,,,,149.2033,150.0189,0,1,0.2911,,0,117,117,134,1,pseudoword,0,REAL,FALSA
,,,,,,,,,637d4793730be3ac44f5a4a5,001,2024-06-30_07h32.24.961,empathy_intonation_perc,2024.1.4,Win32,60.24096386,,,,,,,,,,,,,,173,mibro,,,,,,150.0192,150.9185,0,1,0.37,,0,118,118,172,1,pseudoword,0,REAL,FALSA
,,,,,,,,,637d4793730be3ac44f5a4a5,001,2024-06-30_07h32.24.961,empathy_intonation_perc,2024.1.4,Win32,60.24096386,,,,,,,,,,,,,,182,desaro,,,,,,150.9187,151.668,0,1,0.2141,,0,119,119,181,1,pseudoword,0,REAL,FALSA
,,,,,,,,,637d4793730be3ac44f5a4a5,001,2024-06-30_07h32.24.961,empathy_intonation_perc,2024.1.4,Win32,60.24096386,,,,,,,,,,,,,,153,golla,,,,,,151.6683,152.2674,0,1,0.0755,,0,120,120,152,1,pseudoword,0,REAL,FALSA
,,,,,,,,,637d4793730be3ac44f5a4a5,001,2024-06-30_07h32.24.961,empathy_intonation_perc,2024.1.4,Win32,60.24096386,,,,,,,,,,,,,,140,chorde,,,,,,152.2678,153.0503,0,1,0.2599,,0,121,121,139,1,pseudoword,0,REAL,FALSA
,,,,,,,,,637d4793730be3ac44f5a4a5,001,2024-06-30_07h32.24.961,empathy_intonation_perc,2024.1.4,Win32,60.24096386,,,,,,,,,,,,,,181,gravés,,,,,,153.0506,153.7667,0,1,0.1838,,0,122,122,180,1,pseudoword,0,REAL,FALSA
,,,,,,,,,637d4793730be3ac44f5a4a5,001,2024-06-30_07h32.24.961,empathy_intonation_perc,2024.1.4,Win32,60.24096386,,,,,,,,,,,,,,109,laras,,,,,,153.767,154.4,0,1,0.1104,,0,123,123,108,1,pseudoword,0,REAL,FALSA
,,,,,,,,,637d4793730be3ac44f5a4a5,001,2024-06-30_07h32.24.961,empathy_intonation_perc,2024.1.4,Win32,60.24096386,,,,,,,,,,,,,,78,rendir,,,,,,154.4002,155.016,0,1,0.0889,,0,124,124,77,1,non_cognate,1,REAL,FALSA
,,,,,,,,,637d4793730be3ac44f5a4a5,001,2024-06-30_07h32.24.961,empathy_intonation_perc,2024.1.4,Win32,60.24096386,,,,,,,,,,,,,,20,trauma,,,,,,155.0163,155.6156,0,1,0.0671,,0,125,125,19,1,three_way_cognate,1,REAL,FALSA
,,,,,,,,,637d4793730be3ac44f5a4a5,001,2024-06-30_07h32.24.961,empathy_intonation_perc,2024.1.4,Win32,60.24096386,,,,,,,,,,,,,,11,golf,,,,,,155.6158,156.2155,0,1,0.0701,,0,126,126,10,1,three_way_cognate,1,REAL,FALSA
,,,,,,,,,637d4793730be3ac44f5a4a5,001,2024-06-30_07h32.24.961,empathy_intonation_perc,2024.1.4,Win32,60.24096386,,,,,,,,,,,,,,151,prías,,,,,,156.2158,156.8155,0,1,0.0646,,0,127,127,150,1,pseudoword,0,REAL,FALSA
,,,,,,,,,637d4793730be3ac44f5a4a5,001,2024-06-30_07h32.24.961,empathy_intonation_perc,2024.1.4,Win32,60.24096386,,,,,,,,,,,,,,21,hotel,,,,,,156.8158,157.4816,0,1,0.1313,,0,128,128,20,1,three_way_cognate,1,REAL,FALSA
,,,,,,,,,637d4793730be3ac44f5a4a5,001,2024-06-30_07h32.24.961,empathy_intonation_perc,2024.1.4,Win32,60.24096386,,,,,,,,,,,,,,146,gió,,,,,,157.482,158.1147,0,1,0.0995,,0,129,129,145,1,pseudoword,0,REAL,FALSA
,,,,,,,,,637d4793730be3ac44f5a4a5,001,2024-06-30_07h32.24.961,empathy_intonation_perc,2024.1.4,Win32,60.24096386,,,,,,,,,,,,,,162,cengo,,,,,,158.1152,159.5803,0,1,0.932,,0,130,130,161,1,pseudoword,0,REAL,FALSA
,,,,,,,,,637d4793730be3ac44f5a4a5,001,2024-06-30_07h32.24.961,empathy_intonation_perc,2024.1.4,Win32,60.24096386,,,,,,,,,,,,,,97,nocita,,,,,,159.5806,165.3103,0,1,5.2037,,0,131,131,96,1,pseudoword,0,REAL,FALSA
,,,,,,,,,637d4793730be3ac44f5a4a5,001,2024-06-30_07h32.24.961,empathy_intonation_perc,2024.1.4,Win32,60.24096386,,,,,,,,,,,,,,16,chat,,,,,,165.3172,165.8766,0,1,0.0376,,0,132,132,15,1,three_way_cognate,1,REAL,FALSA
,,,,,,,,,637d4793730be3ac44f5a4a5,001,2024-06-30_07h32.24.961,empathy_intonation_perc,2024.1.4,Win32,60.24096386,,,,,,,,,,,,,,75,patada,,,,,,165.8769,166.5604,0,1,0.1486,,0,133,133,74,1,non_cognate,1,REAL,FALSA
,,,,,,,,,637d4793730be3ac44f5a4a5,001,2024-06-30_07h32.24.961,empathy_intonation_perc,2024.1.4,Win32,60.24096386,,,,,,,,,,,,,,100,épinas,,,,,,166.5607,167.293,0,1,0.1989,,0,134,134,99,1,pseudoword,0,REAL,FALSA
,,,,,,,,,637d4793730be3ac44f5a4a5,001,2024-06-30_07h32.24.961,empathy_intonation_perc,2024.1.4,Win32,60.24096386,,,,,,,,,,,,,,8,kilo,,,,,,167.2934,168.042,0,1,0.2279,,0,135,135,7,1,three_way_cognate,1,REAL,FALSA
,,,,,,,,,637d4793730be3ac44f5a4a5,001,2024-06-30_07h32.24.961,empathy_intonation_perc,2024.1.4,Win32,60.24096386,,,,,,,,,,,,,,171,gotro,,,,,,168.0422,168.8082,0,1,0.241,,0,136,136,170,1,pseudoword,0,REAL,FALSA
,,,,,,,,,637d4793730be3ac44f5a4a5,001,2024-06-30_07h32.24.961,empathy_intonation_perc,2024.1.4,Win32,60.24096386,,,,,,,,,,,,,,113,nasce,,,,,,168.8084,169.5579,0,1,0.2154,,0,137,137,112,1,pseudoword,0,REAL,FALSA
,,,,,,,,,637d4793730be3ac44f5a4a5,001,2024-06-30_07h32.24.961,empathy_intonation_perc,2024.1.4,Win32,60.24096386,,,,,,,,,,,,,,143,hurcos,,,,,,169.5582,170.3078,0,1,0.2144,,0,138,138,142,1,pseudoword,0,REAL,FALSA
,,,,,,,,,637d4793730be3ac44f5a4a5,001,2024-06-30_07h32.24.961,empathy_intonation_perc,2024.1.4,Win32,60.24096386,,,,,,,,,,,,,,105,leniz,,,,,,170.3081,171.0071,0,1,0.1747,,0,139,139,104,1,pseudoword,0,REAL,FALSA
,,,,,,,,,637d4793730be3ac44f5a4a5,001,2024-06-30_07h32.24.961,empathy_intonation_perc,2024.1.4,Win32,60.24096386,,,,,,,,,,,,,,28,ardor,,,,,,171.0074,172.1565,0,1,0.6158,,0,140,140,27,1,two_way_cognate,1,REAL,FALSA
,,,,,,,,,637d4793730be3ac44f5a4a5,001,2024-06-30_07h32.24.961,empathy_intonation_perc,2024.1.4,Win32,60.24096386,,,,,,,,,,,,,,95,listo,,,,,,172.1569,172.9893,0,1,0.31,,0,141,141,94,1,non_cognate,1,REAL,FALSA
,,,,,,,,,637d4793730be3ac44f5a4a5,001,2024-06-30_07h32.24.961,empathy_intonation_perc,2024.1.4,Win32,60.24096386,,,,,,,,,,,,,,65,guerra,,,,,,172.9894,173.7732,0,1,0.2549,,0,142,142,64,1,non_cognate,1,REAL,FALSA
,,,,,,,,,637d4793730be3ac44f5a4a5,001,2024-06-30_07h32.24.961,empathy_intonation_perc,2024.1.4,Win32,60.24096386,,,,,,,,,,,,,,46,mortal,,,,,,173.7737,174.4887,0,1,0.1915,,0,143,143,45,1,two_way_cognate,1,REAL,FALSA
,,,,,,,,,637d4793730be3ac44f5a4a5,001,2024-06-30_07h32.24.961,empathy_intonation_perc,2024.1.4,Win32,60.24096386,,,,,,,,,,,,,,139,sasos,,,,,,174.4891,175.3546,0,1,0.3443,,0,144,144,138,1,pseudoword,0,REAL,FALSA
,,,,,,,,,637d4793730be3ac44f5a4a5,001,2024-06-30_07h32.24.961,empathy_intonation_perc,2024.1.4,Win32,60.24096386,,,,,,,,,,,,,,87,muleta,,,,,,175.355,176.1543,0,1,0.2646,,0,145,145,86,1,non_cognate,1,REAL,FALSA
,,,,,,,,,637d4793730be3ac44f5a4a5,001,2024-06-30_07h32.24.961,empathy_intonation_perc,2024.1.4,Win32,60.24096386,,,,,,,,,,,,,,17,clan,,,,,,176.1546,176.8709,0,1,0.1896,,0,146,146,16,1,three_way_cognate,1,REAL,FALSA
,,,,,,,,,637d4793730be3ac44f5a4a5,001,2024-06-30_07h32.24.961,empathy_intonation_perc,2024.1.4,Win32,60.24096386,,,,,,,,,,,,,,157,seled,,,,,,176.8712,177.5868,0,1,0.1934,,0,147,147,156,1,pseudoword,0,REAL,FALSA
,,,,,,,,,637d4793730be3ac44f5a4a5,001,2024-06-30_07h32.24.961,empathy_intonation_perc,2024.1.4,Win32,60.24096386,,,,,,,,,,,,,,161,civas,,,,,,177.5872,178.2197,0,1,0.1057,,0,148,148,160,1,pseudoword,0,REAL,FALSA
,,,,,,,,,637d4793730be3ac44f5a4a5,001,2024-06-30_07h32.24.961,empathy_intonation_perc,2024.1.4,Win32,60.24096386,,,,,,,,,,,,,,183,edioso,,,,,,178.22,179.2527,0,1,0.4982,,0,149,149,182,1,pseudoword,0,REAL,FALSA
,,,,,,,,,637d4793730be3ac44f5a4a5,001,2024-06-30_07h32.24.961,empathy_intonation_perc,2024.1.4,Win32,60.24096386,,,,,,,,,,,,,,149,emén,,,,,,179.253,180.0355,0,1,0.25,,0,150,150,148,1,pseudoword,0,REAL,FALSA
,,,,,,,,,637d4793730be3ac44f5a4a5,001,2024-06-30_07h32.24.961,empathy_intonation_perc,2024.1.4,Win32,60.24096386,,,,,,,,,,,,,,154,harvé,,,,,,180.0359,180.8024,0,1,0.2308,,0,151,151,153,1,pseudoword,0,REAL,FALSA
,,,,,,,,,637d4793730be3ac44f5a4a5,001,2024-06-30_07h32.24.961,empathy_intonation_perc,2024.1.4,Win32,60.24096386,,,,,,,,,,,,,,177,entodo,,,,,,180.8028,181.8847,0,1,0.5487,,0,152,152,176,1,pseudoword,0,REAL,FALSA
,,,,,,,,,637d4793730be3ac44f5a4a5,001,2024-06-30_07h32.24.961,empathy_intonation_perc,2024.1.4,Win32,60.24096386,,,,,,,,,,,,,,142,parre,,,,,,181.885,182.6345,0,1,0.224,,0,153,153,141,1,pseudoword,0,REAL,FALSA
,,,,,,,,,637d4793730be3ac44f5a4a5,001,2024-06-30_07h32.24.961,empathy_intonation_perc,2024.1.4,Win32,60.24096386,,,,,,,,,,,,,,99,bugor,,,,,,182.6349,183.2837,0,1,0.1143,,0,154,154,98,1,pseudoword,0,REAL,FALSA
,,,,,,,,,637d4793730be3ac44f5a4a5,001,2024-06-30_07h32.24.961,empathy_intonation_perc,2024.1.4,Win32,60.24096386,,,,,,,,,,,,,,45,total,,,,,,183.284,184.1,0,1,0.287,,0,155,155,44,1,two_way_cognate,1,REAL,FALSA
,,,,,,,,,637d4793730be3ac44f5a4a5,001,2024-06-30_07h32.24.961,empathy_intonation_perc,2024.1.4,Win32,60.24096386,,,,,,,,,,,,,,81,sacar,,,,,,184.1002,184.8163,0,1,0.1831,,0,156,156,80,1,non_cognate,1,REAL,FALSA
,,,,,,,,,637d4793730be3ac44f5a4a5,001,2024-06-30_07h32.24.961,empathy_intonation_perc,2024.1.4,Win32,60.24096386,,,,,,,,,,,,,,174,pabea,,,,,,184.8166,185.4825,0,1,0.1359,,0,157,157,173,1,pseudoword,0,REAL,FALSA
,,,,,,,,,637d4793730be3ac44f5a4a5,001,2024-06-30_07h32.24.961,empathy_intonation_perc,2024.1.4,Win32,60.24096386,,,,,,,,,,,,,,148,gino,,,,,,185.4827,186.2822,0,1,0.2735,,0,158,158,147,1,pseudoword,0,REAL,FALSA
,,,,,,,,,637d4793730be3ac44f5a4a5,001,2024-06-30_07h32.24.961,empathy_intonation_perc,2024.1.4,Win32,60.24096386,,,,,,,,,,,,,,72,rostro,,,,,,186.2826,186.9983,0,1,0.1823,,0,159,159,71,1,non_cognate,1,REAL,FALSA
,,,,,,,,,637d4793730be3ac44f5a4a5,001,2024-06-30_07h32.24.961,empathy_intonation_perc,2024.1.4,Win32,60.24096386,,,,,,,,,,,,,,18,altar,,,,,,186.9985,187.6812,0,1,0.16,,0,160,160,17,1,three_way_cognate,1,REAL,FALSA
,,,,,,,,,637d4793730be3ac44f5a4a5,001,2024-06-30_07h32.24.961,empathy_intonation_perc,2024.1.4,Win32,60.24096386,,,,,,,,,,,,,,159,trcia,,,,,,187.6814,200.8073,0,1,12.6032,,0,161,161,158,1,pseudoword,0,REAL,FALSA
,,,,,,,,,637d4793730be3ac44f5a4a5,001,2024-06-30_07h32.24.961,empathy_intonation_perc,2024.1.4,Win32,60.24096386,,,,,,,,,,,,,,77,suave,,,,,,200.8141,201.7734,0,1,0.4406,,0,162,162,76,1,non_cognate,1,REAL,FALSA
,,,,,,,,,637d4793730be3ac44f5a4a5,001,2024-06-30_07h32.24.961,empathy_intonation_perc,2024.1.4,Win32,60.24096386,,,,,,,,,,,,,,170,diabo,,,,,,201.7736,202.3737,0,1,0.0655,,0,163,163,169,1,pseudoword,0,REAL,FALSA
,,,,,,,,,637d4793730be3ac44f5a4a5,001,2024-06-30_07h32.24.961,empathy_intonation_perc,2024.1.4,Win32,60.24096386,,,,,,,,,,,,,,47,color,,,,,,202.374,202.9228,0,1,0.0264,,0,164,164,46,1,two_way_cognate,1,REAL,FALSA
,,,,,,,,,637d4793730be3ac44f5a4a5,001,2024-06-30_07h32.24.961,empathy_intonation_perc,2024.1.4,Win32,60.24096386,,,,,,,,,,,,,,125,ceme,,,,,,202.9231,203.523,0,1,0.0696,,0,165,165,124,1,pseudoword,0,REAL,FALSA
,,,,,,,,,637d4793730be3ac44f5a4a5,001,2024-06-30_07h32.24.961,empathy_intonation_perc,2024.1.4,Win32,60.24096386,,,,,,,,,,,,,,141,virios,,,,,,203.5233,204.0723,0,1,0.029,,0,166,166,140,1,pseudoword,0,REAL,FALSA
,,,,,,,,,637d4793730be3ac44f5a4a5,001,2024-06-30_07h32.24.961,empathy_intonation_perc,2024.1.4,Win32,60.24096386,,,,,,,,,,,,,,60,siglo,,,,,,204.0724,204.6551,0,1,0.0598,,0,167,167,59,1,non_cognate,1,REAL,FALSA
,,,,,,,,,637d4793730be3ac44f5a4a5,001,2024-06-30_07h32.24.961,empathy_intonation_perc,2024.1.4,Win32,60.24096386,,,,,,,,,,,,,,155,kugis,,,,,,204.6553,205.3047,0,1,0.1267,,0,168,168,154,1,pseudoword,0,REAL,FALSA
,,,,,,,,,637d4793730be3ac44f5a4a5,001,2024-06-30_07h32.24.961,empathy_intonation_perc,2024.1.4,Win32,60.24096386,,,,,,,,,,,,,,49,teñir,,,,,,205.3049,206.0212,0,1,0.2009,,0,169,169,48,1,non_cognate,1,REAL,FALSA
,,,,,,,,,637d4793730be3ac44f5a4a5,001,2024-06-30_07h32.24.961,empathy_intonation_perc,2024.1.4,Win32,60.24096386,,,,,,,,,,,,,,123,arane,,,,,,206.0214,206.9038,0,1,0.3608,,0,170,170,122,1,pseudoword,0,REAL,FALSA
,,,,,,,,,637d4793730be3ac44f5a4a5,001,2024-06-30_07h32.24.961,empathy_intonation_perc,2024.1.4,Win32,60.24096386,,,,,,,,,,,,,,93,tapa,,,,,,206.9041,207.687,0,1,0.2582,,0,171,171,92,1,non_cognate,1,REAL,FALSA
,,,,,,,,,637d4793730be3ac44f5a4a5,001,2024-06-30_07h32.24.961,empathy_intonation_perc,2024.1.4,Win32,60.24096386,,,,,,,,,,,,,,44,editor,,,,,,207.6874,208.4364,0,1,0.2273,,0,172,172,43,1,two_way_cognate,1,REAL,FALSA
,,,,,,,,,637d4793730be3ac44f5a4a5,001,2024-06-30_07h32.24.961,empathy_intonation_perc,2024.1.4,Win32,60.24096386,,,,,,,,,,,,,,35,aurora,,,,,,208.4366,209.0534,0,1,0.0892,,0,173,173,34,1,two_way_cognate,1,REAL,FALSA
,,,,,,,,,637d4793730be3ac44f5a4a5,001,2024-06-30_07h32.24.961,empathy_intonation_perc,2024.1.4,Win32,60.24096386,,,,,,,,,,,,,,23,plural,,,,,,209.0538,209.6357,0,1,0.0606,,0,174,174,22,1,three_way_cognate,1,REAL,FALSA
,,,,,,,,,637d4793730be3ac44f5a4a5,001,2024-06-30_07h32.24.961,empathy_intonation_perc,2024.1.4,Win32,60.24096386,,,,,,,,,,,,,,103,vueras,,,,,,209.636,210.286,0,1,0.1225,,0,175,175,102,1,pseudoword,0,REAL,FALSA
,,,,,,,,,637d4793730be3ac44f5a4a5,001,2024-06-30_07h32.24.961,empathy_intonation_perc,2024.1.4,Win32,60.24096386,,,,,,,,,,,,,,119,esís,,,,,,210.2864,210.9018,0,1,0.0896,,0,176,176,118,1,pseudoword,0,REAL,FALSA
,,,,,,,,,637d4793730be3ac44f5a4a5,001,2024-06-30_07h32.24.961,empathy_intonation_perc,2024.1.4,Win32,60.24096386,,,,,,,,,,,,,,90,venado,,,,,,210.902,211.5183,0,1,0.0815,,0,177,177,89,1,non_cognate,1,REAL,FALSA
,,,,,,,,,637d4793730be3ac44f5a4a5,001,2024-06-30_07h32.24.961,empathy_intonation_perc,2024.1.4,Win32,60.24096386,,,,,,,,,,,,,,54,tapón,,,,,,211.5186,212.151,0,1,0.1097,,0,178,178,53,1,non_cognate,1,REAL,FALSA
,,,,,,,,,637d4793730be3ac44f5a4a5,001,2024-06-30_07h32.24.961,empathy_intonation_perc,2024.1.4,Win32,60.24096386,,,,,,,,,,,,,,26,enigma,,,,,,212.1512,212.8013,0,1,0.1157,,0,179,179,25,1,two_way_cognate,1,REAL,FALSA
,,,,,,,,,637d4793730be3ac44f5a4a5,001,2024-06-30_07h32.24.961,empathy_intonation_perc,2024.1.4,Win32,60.24096386,,,,,,,,,,,,,,131,fuar,,,,,,212.8017,213.6172,0,1,0.2948,,0,180,180,130,1,pseudoword,0,REAL,FALSA
,,,,,,,,,637d4793730be3ac44f5a4a5,001,2024-06-30_07h32.24.961,empathy_intonation_perc,2024.1.4,Win32,60.24096386,,,,,,,,,,,,,,58,colcha,,,,,,213.6174,214.5498,0,1,0.41,,0,181,181,57,1,non_cognate,1,REAL,FALSA
,,,,,,,,,637d4793730be3ac44f5a4a5,001,2024-06-30_07h32.24.961,empathy_intonation_perc,2024.1.4,Win32,60.24096386,,,,,,,,,,,,,,192,próces,,,,,,214.5501,215.2994,0,1,0.2255,,0,182,182,191,1,pseudoword,0,REAL,FALSA
,,,,,,,,,637d4793730be3ac44f5a4a5,001,2024-06-30_07h32.24.961,empathy_intonation_perc,2024.1.4,Win32,60.24096386,,,,,,,,,,,,,,180,pupica,,,,,,215.2997,216.0495,0,1,0.232,,0,183,183,179,1,pseudoword,0,REAL,FALSA
,,,,,,,,,637d4793730be3ac44f5a4a5,001,2024-06-30_07h32.24.961,empathy_intonation_perc,2024.1.4,Win32,60.24096386,,,,,,,,,,,,,,13,plan,,,,,,216.0498,216.8489,0,1,0.272,,0,184,184,12,1,three_way_cognate,1,REAL,FALSA
,,,,,,,,,637d4793730be3ac44f5a4a5,001,2024-06-30_07h32.24.961,empathy_intonation_perc,2024.1.4,Win32,60.24096386,,,,,,,,,,,,,,116,grigir,,,,,,216.8493,217.4647,0,1,0.093,,0,185,185,115,1,pseudoword,0,REAL,FALSA
,,,,,,,,,637d4793730be3ac44f5a4a5,001,2024-06-30_07h32.24.961,empathy_intonation_perc,2024.1.4,Win32,60.24096386,,,,,,,,,,,,,,51,listo,,,,,,217.465,218.248,0,1,0.2536,,0,186,186,50,1,non_cognate,1,REAL,FALSA
,,,,,,,,,637d4793730be3ac44f5a4a5,001,2024-06-30_07h32.24.961,empathy_intonation_perc,2024.1.4,Win32,60.24096386,,,,,,,,,,,,,,124,lobe,,,,,,218.2483,219.1308,0,1,0.3538,,0,187,187,123,1,pseudoword,0,REAL,FALSA
,,,,,,,,,637d4793730be3ac44f5a4a5,001,2024-06-30_07h32.24.961,empathy_intonation_perc,2024.1.4,Win32,60.24096386,,,,,,,,,,,,,,37,torso,,,,,,219.131,219.7968,0,1,0.1442,,0,188,188,36,1,two_way_cognate,1,REAL,FALSA
,,,,,,,,,637d4793730be3ac44f5a4a5,001,2024-06-30_07h32.24.961,empathy_intonation_perc,2024.1.4,Win32,60.24096386,,,,,,,,,,,,,,30,fiscal,,,,,,219.7971,220.7634,0,1,0.439,,0,189,189,29,1,two_way_cognate,1,REAL,FALSA
,,,,,,,,,637d4793730be3ac44f5a4a5,001,2024-06-30_07h32.24.961,empathy_intonation_perc,2024.1.4,Win32,60.24096386,,,,,,,,,,,,,,79,suelo,,,,,,220.7637,221.763,0,1,0.4645,,0,190,190,78,1,non_cognate,1,REAL,FALSA
,,,,,,,,,637d4793730be3ac44f5a4a5,001,2024-06-30_07h32.24.961,empathy_intonation_perc,2024.1.4,Win32,60.24096386,,,,,,,,,,,,,,2,tumor,,,,,,221.7634,222.4625,0,1,0.1711,,0,191,191,1,1,three_way_cognate,1,REAL,FALSA
