lextale_instructions.started,lextale_instructions.stopped,lextale_instructions_loop.thisRepN,lextale_instructions_loop.thisTrialN,lextale_instructions_loop.thisN,lextale_instructions_loop.thisIndex,lextale_instructions_loop.ran,instructions_text,continue_text,participant,session,date,expName,psychopyVersion,OS,frameRate,lextale_practice.started,lextale_practice.stopped,key_resp_lextale_practice.keys,key_resp_lextale_practice.corr,key_resp_lextale_practice.rt,key_resp_lextale_practice.duration,lextale_practice_feedback.started,lextale_practice_feedback.stopped,lextale_practice_trials.thisRepN,lextale_practice_trials.thisTrialN,lextale_practice_trials.thisN,lextale_practice_trials.thisIndex,lextale_practice_trials.ran,stim,word,correct_response,prac_button_real,prac_button_false,lextale_check.started,lextale_check.stopped,lextale_trial.started,lextale_trial.stopped,key_resp_lextale_trial.keys,key_resp_lextale_trial.corr,key_resp_lextale_trial.rt,key_resp_lextale_trial.duration,lextail_trials.thisRepN,lextail_trials.thisTrialN,lextail_trials.thisN,lextail_trials.thisIndex,lextail_trials.ran,type,correct_reponse,button_real,button_false
0.0047,5.4731,0,0,0,0,1,"Este es un test de vocabulario en español. 
  
  A continuación vas a ver 90 secuencias de letras que parecen 'españolas'.
  
  Solo algunas de ellas son palabras de verdad.",(presiona la barra espaciadora para continuar),6384ec504af00dd4483f521e,001,2024-06-30_07h34.32.996,empathy_intonation_perc,2024.1.4,Win32,60.24096386,,,,,,,,,,,,,,,,,,,,,,,,,,,,,,,,,,,
5.4745,11.6727,0,1,1,1,1,"Por favor, señala las palabras que tú conoces (aquellas que estás convencido que son palabras españolas, incluso aunque no seas capaz de dar el significado preciso).",(presiona la barra espaciadora para continuar),6384ec504af00dd4483f521e,001,2024-06-30_07h34.32.996,empathy_intonation_perc,2024.1.4,Win32,60.24096386,,,,,,,,,,,,,,,,,,,,,,,,,,,,,,,,,,,
11.6735,15.8225,0,2,2,2,1,Pero cuidado: los errores se penalizan. Por eso no tiene sentido tratar de incrementar tu puntuación marcando como reales palabras que nunca has visto.,(presiona la barra espaciadora para continuar),6384ec504af00dd4483f521e,001,2024-06-30_07h34.32.996,empathy_intonation_perc,2024.1.4,Win32,60.24096386,,,,,,,,,,,,,,,,,,,,,,,,,,,,,,,,,,,
15.8233,18.5554,0,3,3,3,1,"Presiona la tecla 1 si piensas que es una palabra real y la tecla 
  0 si piensas que es una palabra falsa. 
  
  Vamos a practicar un poco...",(presiona la barra espaciadora para continuar),6384ec504af00dd4483f521e,001,2024-06-30_07h34.32.996,empathy_intonation_perc,2024.1.4,Win32,60.24096386,,,,,,,,,,,,,,,,,,,,,,,,,,,,,,,,,,,
,,,,,,,,,6384ec504af00dd4483f521e,001,2024-06-30_07h34.32.996,empathy_intonation_perc,2024.1.4,Win32,60.24096386,18.5608,48.2541,0,1,29.1721,,48.2545,49.2541,0,0,0,0,1,0,depiste,0,REAL,FALSA,,,,,,,,,,,,,,,,,
,,,,,,,,,6384ec504af00dd4483f521e,001,2024-06-30_07h34.32.996,empathy_intonation_perc,2024.1.4,Win32,60.24096386,49.2546,52.5535,1,1,2.7739,,52.5536,53.5536,0,1,1,1,1,0,sí,1,REAL,FALSA,,,,,,,,,,,,,,,,,
,,,,,,,,,6384ec504af00dd4483f521e,001,2024-06-30_07h34.32.996,empathy_intonation_perc,2024.1.4,Win32,60.24096386,53.5634,55.1203,0,1,1.0399,,55.1204,56.1202,0,2,2,2,1,0,coné,0,REAL,FALSA,,,,,,,,,,,,,,,,,
,,,,,,,,,6384ec504af00dd4483f521e,001,2024-06-30_07h34.32.996,empathy_intonation_perc,2024.1.4,Win32,60.24096386,56.1205,57.8367,0,1,1.1796,,57.8367,58.8367,0,3,3,3,1,0,calpar,0,REAL,FALSA,,,,,,,,,,,,,,,,,
,,,,,,,,,6384ec504af00dd4483f521e,001,2024-06-30_07h34.32.996,empathy_intonation_perc,2024.1.4,Win32,60.24096386,58.8457,60.5368,0,1,1.1622,,60.5369,61.5367,0,4,4,4,1,0,joten,0,REAL,FALSA,,,,,,,,,,,,,,,,,
,,,,,,,,,6384ec504af00dd4483f521e,001,2024-06-30_07h34.32.996,empathy_intonation_perc,2024.1.4,Win32,60.24096386,61.537,63.3702,1,1,1.2951,,63.3704,64.3695,0,5,5,5,1,0,sacapuntas,1,REAL,FALSA,,,,,,,,,,,,,,,,,
,,,,,,,,,6384ec504af00dd4483f521e,001,2024-06-30_07h34.32.996,empathy_intonation_perc,2024.1.4,Win32,60.24096386,64.3701,65.7032,0,1,0.7948,,65.7032,66.7032,0,6,6,6,1,0,priba,0,REAL,FALSA,,,,,,,,,,,,,,,,,
,,,,,,,,,6384ec504af00dd4483f521e,001,2024-06-30_07h34.32.996,empathy_intonation_perc,2024.1.4,Win32,60.24096386,66.7187,68.1529,0,1,0.9196,,68.153,69.1528,0,7,7,7,1,0,pelasula,0,REAL,FALSA,,,,,,,,,,,,,,,,,
,,,,,,,,,6384ec504af00dd4483f521e,001,2024-06-30_07h34.32.996,empathy_intonation_perc,2024.1.4,Win32,60.24096386,69.153,70.6862,1,1,1.0051,,70.6862,71.6861,0,8,8,8,1,0,bien,1,REAL,FALSA,,,,,,,,,,,,,,,,,
,,,,,,,,,6384ec504af00dd4483f521e,001,2024-06-30_07h34.32.996,empathy_intonation_perc,2024.1.4,Win32,60.24096386,71.6865,73.3359,1,1,1.1129,,73.336,74.336,0,9,9,9,1,0,casa,1,REAL,FALSA,,,,,,,,,,,,,,,,,
,,,,,,,,,6384ec504af00dd4483f521e,001,2024-06-30_07h34.32.996,empathy_intonation_perc,2024.1.4,Win32,60.24096386,74.3363,76.1025,1,0,1.2317,,76.1026,77.1024,0,10,10,10,1,0,lejo,0,REAL,FALSA,,,,,,,,,,,,,,,,,
,,,,,,,,,6384ec504af00dd4483f521e,001,2024-06-30_07h34.32.996,empathy_intonation_perc,2024.1.4,Win32,60.24096386,77.1199,78.7193,1,0,1.0634,,78.7193,79.7192,0,11,11,11,1,0,pretantas,0,REAL,FALSA,,,,,,,,,,,,,,,,,
,,,,,,,,,6384ec504af00dd4483f521e,001,2024-06-30_07h34.32.996,empathy_intonation_perc,2024.1.4,Win32,60.24096386,,,,,,,,,,,,,,,,,,,79.7202,85.2193,,,,,,,,,,,,,,,
,,,,,,,,,6384ec504af00dd4483f521e,001,2024-06-30_07h34.32.996,empathy_intonation_perc,2024.1.4,Win32,60.24096386,,,,,,,,,,,,,,180,pupica,,,,,,85.2458,86.8188,0,1,1.0483,,0,0,0,179,1,pseudoword,0,REAL,FALSA
,,,,,,,,,6384ec504af00dd4483f521e,001,2024-06-30_07h34.32.996,empathy_intonation_perc,2024.1.4,Win32,60.24096386,,,,,,,,,,,,,,171,gotro,,,,,,86.8198,88.1187,0,1,0.7648,,0,1,1,170,1,pseudoword,0,REAL,FALSA
,,,,,,,,,6384ec504af00dd4483f521e,001,2024-06-30_07h34.32.996,empathy_intonation_perc,2024.1.4,Win32,60.24096386,,,,,,,,,,,,,,38,halo,,,,,,88.119,89.3188,1,0,0.6627,,0,2,2,37,1,two_way_cognate,1,REAL,FALSA
,,,,,,,,,6384ec504af00dd4483f521e,001,2024-06-30_07h34.32.996,empathy_intonation_perc,2024.1.4,Win32,60.24096386,,,,,,,,,,,,,,173,mibro,,,,,,89.3192,91.4683,0,1,1.623,,0,3,3,172,1,pseudoword,0,REAL,FALSA
,,,,,,,,,6384ec504af00dd4483f521e,001,2024-06-30_07h34.32.996,empathy_intonation_perc,2024.1.4,Win32,60.24096386,,,,,,,,,,,,,,70,ánimo,,,,,,91.4687,93.0687,0,1,1.0735,,0,4,4,69,1,non_cognate,1,REAL,FALSA
,,,,,,,,,6384ec504af00dd4483f521e,001,2024-06-30_07h34.32.996,empathy_intonation_perc,2024.1.4,Win32,60.24096386,,,,,,,,,,,,,,156,ozoso,,,,,,93.0691,94.7684,0,1,1.1651,,0,5,5,155,1,pseudoword,0,REAL,FALSA
,,,,,,,,,6384ec504af00dd4483f521e,001,2024-06-30_07h34.32.996,empathy_intonation_perc,2024.1.4,Win32,60.24096386,,,,,,,,,,,,,,118,bará,,,,,,94.7693,96.0349,1,0,0.7378,,0,6,6,117,1,pseudoword,0,REAL,FALSA
,,,,,,,,,6384ec504af00dd4483f521e,001,2024-06-30_07h34.32.996,empathy_intonation_perc,2024.1.4,Win32,60.24096386,,,,,,,,,,,,,,42,rumor,,,,,,96.0353,97.8681,0,1,1.2979,,0,7,7,41,1,two_way_cognate,1,REAL,FALSA
,,,,,,,,,6384ec504af00dd4483f521e,001,2024-06-30_07h34.32.996,empathy_intonation_perc,2024.1.4,Win32,60.24096386,,,,,,,,,,,,,,53,punta,,,,,,97.8687,100.7512,1,0,2.3517,,0,8,8,52,1,non_cognate,1,REAL,FALSA
,,,,,,,,,6384ec504af00dd4483f521e,001,2024-06-30_07h34.32.996,empathy_intonation_perc,2024.1.4,Win32,60.24096386,,,,,,,,,,,,,,187,nomata,,,,,,100.7612,102.7847,0,1,1.5013,,0,9,9,186,1,pseudoword,0,REAL,FALSA
,,,,,,,,,6384ec504af00dd4483f521e,001,2024-06-30_07h34.32.996,empathy_intonation_perc,2024.1.4,Win32,60.24096386,,,,,,,,,,,,,,7,albino,,,,,,102.785,104.2512,1,0,0.933,,0,10,10,6,1,three_way_cognate,1,REAL,FALSA
,,,,,,,,,6384ec504af00dd4483f521e,001,2024-06-30_07h34.32.996,empathy_intonation_perc,2024.1.4,Win32,60.24096386,,,,,,,,,,,,,,184,huenos,,,,,,104.2522,105.7678,1,0,0.9811,,0,11,11,183,1,pseudoword,0,REAL,FALSA
,,,,,,,,,6384ec504af00dd4483f521e,001,2024-06-30_07h34.32.996,empathy_intonation_perc,2024.1.4,Win32,60.24096386,,,,,,,,,,,,,,24,retina,,,,,,105.7681,107.0176,0,1,0.7142,,0,12,12,23,1,three_way_cognate,1,REAL,FALSA
,,,,,,,,,6384ec504af00dd4483f521e,001,2024-06-30_07h34.32.996,empathy_intonation_perc,2024.1.4,Win32,60.24096386,,,,,,,,,,,,,,83,hálito,,,,,,107.018,108.7342,1,0,1.1836,,0,13,13,82,1,non_cognate,1,REAL,FALSA
,,,,,,,,,6384ec504af00dd4483f521e,001,2024-06-30_07h34.32.996,empathy_intonation_perc,2024.1.4,Win32,60.24096386,,,,,,,,,,,,,,69,tiza,,,,,,108.7346,110.6841,0,1,1.4162,,0,14,14,68,1,non_cognate,1,REAL,FALSA
,,,,,,,,,6384ec504af00dd4483f521e,001,2024-06-30_07h34.32.996,empathy_intonation_perc,2024.1.4,Win32,60.24096386,,,,,,,,,,,,,,3,disco,,,,,,110.6845,112.1674,0,1,0.9484,,0,15,15,2,1,three_way_cognate,1,REAL,FALSA
,,,,,,,,,6384ec504af00dd4483f521e,001,2024-06-30_07h34.32.996,empathy_intonation_perc,2024.1.4,Win32,60.24096386,,,,,,,,,,,,,,67,llamar,,,,,,112.168,113.8506,1,0,1.1471,,0,16,16,66,1,non_cognate,1,REAL,FALSA
,,,,,,,,,6384ec504af00dd4483f521e,001,2024-06-30_07h34.32.996,empathy_intonation_perc,2024.1.4,Win32,60.24096386,,,,,,,,,,,,,,147,alla,,,,,,113.851,115.0839,1,0,0.6981,,0,17,17,146,1,pseudoword,0,REAL,FALSA
,,,,,,,,,6384ec504af00dd4483f521e,001,2024-06-30_07h34.32.996,empathy_intonation_perc,2024.1.4,Win32,60.24096386,,,,,,,,,,,,,,151,prías,,,,,,115.0842,116.3176,0,1,0.6986,,0,18,18,150,1,pseudoword,0,REAL,FALSA
,,,,,,,,,6384ec504af00dd4483f521e,001,2024-06-30_07h34.32.996,empathy_intonation_perc,2024.1.4,Win32,60.24096386,,,,,,,,,,,,,,55,maldad,,,,,,116.3179,117.6509,0,1,0.7991,,0,19,19,54,1,non_cognate,1,REAL,FALSA
,,,,,,,,,6384ec504af00dd4483f521e,001,2024-06-30_07h34.32.996,empathy_intonation_perc,2024.1.4,Win32,60.24096386,,,,,,,,,,,,,,166,anfia,,,,,,117.6514,119.0503,0,1,0.8639,,0,20,20,165,1,pseudoword,0,REAL,FALSA
,,,,,,,,,6384ec504af00dd4483f521e,001,2024-06-30_07h34.32.996,empathy_intonation_perc,2024.1.4,Win32,60.24096386,,,,,,,,,,,,,,150,cricó,,,,,,119.0508,120.5836,0,1,0.9984,,0,21,21,149,1,pseudoword,0,REAL,FALSA
,,,,,,,,,6384ec504af00dd4483f521e,001,2024-06-30_07h34.32.996,empathy_intonation_perc,2024.1.4,Win32,60.24096386,,,,,,,,,,,,,,48,pelvis,,,,,,120.584,122.1168,0,1,1.0013,,0,22,22,47,1,two_way_cognate,1,REAL,FALSA
,,,,,,,,,6384ec504af00dd4483f521e,001,2024-06-30_07h34.32.996,empathy_intonation_perc,2024.1.4,Win32,60.24096386,,,,,,,,,,,,,,157,seled,,,,,,122.1173,123.7168,0,1,1.0665,,0,23,23,156,1,pseudoword,0,REAL,FALSA
,,,,,,,,,6384ec504af00dd4483f521e,001,2024-06-30_07h34.32.996,empathy_intonation_perc,2024.1.4,Win32,60.24096386,,,,,,,,,,,,,,127,vien,,,,,,123.7174,125.4166,0,1,1.1663,,0,24,24,126,1,pseudoword,0,REAL,FALSA
,,,,,,,,,6384ec504af00dd4483f521e,001,2024-06-30_07h34.32.996,empathy_intonation_perc,2024.1.4,Win32,60.24096386,,,,,,,,,,,,,,52,blando,,,,,,125.417,127.1,1,0,1.1534,,0,25,25,51,1,non_cognate,1,REAL,FALSA
,,,,,,,,,6384ec504af00dd4483f521e,001,2024-06-30_07h34.32.996,empathy_intonation_perc,2024.1.4,Win32,60.24096386,,,,,,,,,,,,,,32,animal,,,,,,127.1005,128.4835,0,1,0.8536,,0,26,26,31,1,two_way_cognate,1,REAL,FALSA
,,,,,,,,,6384ec504af00dd4483f521e,001,2024-06-30_07h34.32.996,empathy_intonation_perc,2024.1.4,Win32,60.24096386,,,,,,,,,,,,,,183,edioso,,,,,,128.4842,129.8164,0,1,0.8017,,0,27,27,182,1,pseudoword,0,REAL,FALSA
,,,,,,,,,6384ec504af00dd4483f521e,001,2024-06-30_07h34.32.996,empathy_intonation_perc,2024.1.4,Win32,60.24096386,,,,,,,,,,,,,,68,puñal,,,,,,129.8167,131.2331,1,0,0.883,,0,28,28,67,1,non_cognate,1,REAL,FALSA
,,,,,,,,,6384ec504af00dd4483f521e,001,2024-06-30_07h34.32.996,empathy_intonation_perc,2024.1.4,Win32,60.24096386,,,,,,,,,,,,,,85,enorme,,,,,,131.2337,132.8328,0,1,1.0734,,0,29,29,84,1,non_cognate,1,REAL,FALSA
,,,,,,,,,6384ec504af00dd4483f521e,001,2024-06-30_07h34.32.996,empathy_intonation_perc,2024.1.4,Win32,60.24096386,,,,,,,,,,,,,,153,golla,,,,,,132.8334,134.1494,0,1,0.789,,0,30,30,152,1,pseudoword,0,REAL,FALSA
,,,,,,,,,6384ec504af00dd4483f521e,001,2024-06-30_07h34.32.996,empathy_intonation_perc,2024.1.4,Win32,60.24096386,,,,,,,,,,,,,,108,jauda,,,,,,134.1499,135.5661,0,1,0.8839,,0,31,31,107,1,pseudoword,0,REAL,FALSA
,,,,,,,,,6384ec504af00dd4483f521e,001,2024-06-30_07h34.32.996,empathy_intonation_perc,2024.1.4,Win32,60.24096386,,,,,,,,,,,,,,165,chote,,,,,,135.5664,136.9827,0,1,0.8834,,0,32,32,164,1,pseudoword,0,REAL,FALSA
,,,,,,,,,6384ec504af00dd4483f521e,001,2024-06-30_07h34.32.996,empathy_intonation_perc,2024.1.4,Win32,60.24096386,,,,,,,,,,,,,,191,frasis,,,,,,136.9832,138.0995,0,1,0.586,,0,33,33,190,1,pseudoword,0,REAL,FALSA
,,,,,,,,,6384ec504af00dd4483f521e,001,2024-06-30_07h34.32.996,empathy_intonation_perc,2024.1.4,Win32,60.24096386,,,,,,,,,,,,,,95,listo,,,,,,138.0999,139.1993,1,0,0.5714,,0,34,34,94,1,non_cognate,1,REAL,FALSA
,,,,,,,,,6384ec504af00dd4483f521e,001,2024-06-30_07h34.32.996,empathy_intonation_perc,2024.1.4,Win32,60.24096386,,,,,,,,,,,,,,88,percha,,,,,,139.1997,140.7158,1,0,0.9879,,0,35,35,87,1,non_cognate,1,REAL,FALSA
,,,,,,,,,6384ec504af00dd4483f521e,001,2024-06-30_07h34.32.996,empathy_intonation_perc,2024.1.4,Win32,60.24096386,,,,,,,,,,,,,,61,aduana,,,,,,140.7163,142.0158,0,1,0.7685,,0,36,36,60,1,non_cognate,1,REAL,FALSA
,,,,,,,,,6384ec504af00dd4483f521e,001,2024-06-30_07h34.32.996,empathy_intonation_perc,2024.1.4,Win32,60.24096386,,,,,,,,,,,,,,26,enigma,,,,,,142.0163,143.3326,0,1,0.7818,,0,37,37,25,1,two_way_cognate,1,REAL,FALSA
,,,,,,,,,6384ec504af00dd4483f521e,001,2024-06-30_07h34.32.996,empathy_intonation_perc,2024.1.4,Win32,60.24096386,,,,,,,,,,,,,,84,aviso,,,,,,143.3332,144.4489,1,0,0.5908,,0,38,38,83,1,non_cognate,1,REAL,FALSA
,,,,,,,,,6384ec504af00dd4483f521e,001,2024-06-30_07h34.32.996,empathy_intonation_perc,2024.1.4,Win32,60.24096386,,,,,,,,,,,,,,15,test,,,,,,144.4497,145.8156,0,1,0.8301,,0,39,39,14,1,three_way_cognate,1,REAL,FALSA
,,,,,,,,,6384ec504af00dd4483f521e,001,2024-06-30_07h34.32.996,empathy_intonation_perc,2024.1.4,Win32,60.24096386,,,,,,,,,,,,,,133,conso,,,,,,145.8159,147.1656,0,1,0.8155,,0,40,40,132,1,pseudoword,0,REAL,FALSA
,,,,,,,,,6384ec504af00dd4483f521e,001,2024-06-30_07h34.32.996,empathy_intonation_perc,2024.1.4,Win32,60.24096386,,,,,,,,,,,,,,33,collar,,,,,,147.1661,148.4654,0,1,0.7637,,0,41,41,32,1,two_way_cognate,1,REAL,FALSA
,,,,,,,,,6384ec504af00dd4483f521e,001,2024-06-30_07h34.32.996,empathy_intonation_perc,2024.1.4,Win32,60.24096386,,,,,,,,,,,,,,78,rendir,,,,,,148.4658,149.7823,0,1,0.7898,,0,42,42,77,1,non_cognate,1,REAL,FALSA
,,,,,,,,,6384ec504af00dd4483f521e,001,2024-06-30_07h34.32.996,empathy_intonation_perc,2024.1.4,Win32,60.24096386,,,,,,,,,,,,,,144,diroco,,,,,,149.7827,150.9821,1,0,0.6669,,0,43,43,143,1,pseudoword,0,REAL,FALSA
,,,,,,,,,6384ec504af00dd4483f521e,001,2024-06-30_07h34.32.996,empathy_intonation_perc,2024.1.4,Win32,60.24096386,,,,,,,,,,,,,,143,hurcos,,,,,,150.9825,152.5986,1,0,1.0793,,0,44,44,142,1,pseudoword,0,REAL,FALSA
,,,,,,,,,6384ec504af00dd4483f521e,001,2024-06-30_07h34.32.996,empathy_intonation_perc,2024.1.4,Win32,60.24096386,,,,,,,,,,,,,,60,siglo,,,,,,152.599,153.7651,0,1,0.6355,,0,45,45,59,1,non_cognate,1,REAL,FALSA
,,,,,,,,,6384ec504af00dd4483f521e,001,2024-06-30_07h34.32.996,empathy_intonation_perc,2024.1.4,Win32,60.24096386,,,,,,,,,,,,,,11,golf,,,,,,153.7655,155.049,0,1,0.7567,,0,46,46,10,1,three_way_cognate,1,REAL,FALSA
,,,,,,,,,6384ec504af00dd4483f521e,001,2024-06-30_07h34.32.996,empathy_intonation_perc,2024.1.4,Win32,60.24096386,,,,,,,,,,,,,,112,samón,,,,,,155.0502,156.7317,1,0,1.1539,,0,47,47,111,1,pseudoword,0,REAL,FALSA
,,,,,,,,,6384ec504af00dd4483f521e,001,2024-06-30_07h34.32.996,empathy_intonation_perc,2024.1.4,Win32,60.24096386,,,,,,,,,,,,,,90,venado,,,,,,156.7321,158.0317,0,1,0.771,,0,48,48,89,1,non_cognate,1,REAL,FALSA
,,,,,,,,,6384ec504af00dd4483f521e,001,2024-06-30_07h34.32.996,empathy_intonation_perc,2024.1.4,Win32,60.24096386,,,,,,,,,,,,,,8,kilo,,,,,,158.032,159.6815,0,1,1.115,,0,49,49,7,1,three_way_cognate,1,REAL,FALSA
,,,,,,,,,6384ec504af00dd4483f521e,001,2024-06-30_07h34.32.996,empathy_intonation_perc,2024.1.4,Win32,60.24096386,,,,,,,,,,,,,,76,chocar,,,,,,159.6819,160.948,0,1,0.7395,,0,50,50,75,1,non_cognate,1,REAL,FALSA
,,,,,,,,,6384ec504af00dd4483f521e,001,2024-06-30_07h34.32.996,empathy_intonation_perc,2024.1.4,Win32,60.24096386,,,,,,,,,,,,,,28,ardor,,,,,,160.9483,163.0313,0,1,1.5484,,0,51,51,27,1,two_way_cognate,1,REAL,FALSA
,,,,,,,,,6384ec504af00dd4483f521e,001,2024-06-30_07h34.32.996,empathy_intonation_perc,2024.1.4,Win32,60.24096386,,,,,,,,,,,,,,120,mauja,,,,,,163.0315,167.7645,1,0,4.1963,,0,52,52,119,1,pseudoword,0,REAL,FALSA
,,,,,,,,,6384ec504af00dd4483f521e,001,2024-06-30_07h34.32.996,empathy_intonation_perc,2024.1.4,Win32,60.24096386,,,,,,,,,,,,,,31,civil,,,,,,167.7818,169.0644,0,1,0.7527,,0,53,53,30,1,two_way_cognate,1,REAL,FALSA
,,,,,,,,,6384ec504af00dd4483f521e,001,2024-06-30_07h34.32.996,empathy_intonation_perc,2024.1.4,Win32,60.24096386,,,,,,,,,,,,,,58,colcha,,,,,,169.0647,170.9642,1,0,1.3712,,0,54,54,57,1,non_cognate,1,REAL,FALSA
,,,,,,,,,6384ec504af00dd4483f521e,001,2024-06-30_07h34.32.996,empathy_intonation_perc,2024.1.4,Win32,60.24096386,,,,,,,,,,,,,,136,hueas,,,,,,170.9645,172.2475,1,0,0.7472,,0,55,55,135,1,pseudoword,0,REAL,FALSA
,,,,,,,,,6384ec504af00dd4483f521e,001,2024-06-30_07h34.32.996,empathy_intonation_perc,2024.1.4,Win32,60.24096386,,,,,,,,,,,,,,36,viable,,,,,,172.2478,173.8974,0,1,1.122,,0,56,56,35,1,two_way_cognate,1,REAL,FALSA
,,,,,,,,,6384ec504af00dd4483f521e,001,2024-06-30_07h34.32.996,empathy_intonation_perc,2024.1.4,Win32,60.24096386,,,,,,,,,,,,,,139,sasos,,,,,,173.8977,175.7808,0,1,1.349,,0,57,57,138,1,pseudoword,0,REAL,FALSA
,,,,,,,,,6384ec504af00dd4483f521e,001,2024-06-30_07h34.32.996,empathy_intonation_perc,2024.1.4,Win32,60.24096386,,,,,,,,,,,,,,75,patada,,,,,,175.7812,177.2306,0,1,0.9209,,0,58,58,74,1,non_cognate,1,REAL,FALSA
,,,,,,,,,6384ec504af00dd4483f521e,001,2024-06-30_07h34.32.996,empathy_intonation_perc,2024.1.4,Win32,60.24096386,,,,,,,,,,,,,,59,feo,,,,,,177.2309,178.6807,0,1,0.9192,,0,59,59,58,1,non_cognate,1,REAL,FALSA
,,,,,,,,,6384ec504af00dd4483f521e,001,2024-06-30_07h34.32.996,empathy_intonation_perc,2024.1.4,Win32,60.24096386,,,,,,,,,,,,,,131,fuar,,,,,,178.6812,179.8643,0,1,0.6521,,0,60,60,130,1,pseudoword,0,REAL,FALSA
,,,,,,,,,6384ec504af00dd4483f521e,001,2024-06-30_07h34.32.996,empathy_intonation_perc,2024.1.4,Win32,60.24096386,,,,,,,,,,,,,,130,dubo,,,,,,179.8653,181.0971,0,1,0.7036,,0,61,61,129,1,pseudoword,0,REAL,FALSA
,,,,,,,,,6384ec504af00dd4483f521e,001,2024-06-30_07h34.32.996,empathy_intonation_perc,2024.1.4,Win32,60.24096386,,,,,,,,,,,,,,122,boñaz,,,,,,181.0974,183.0471,1,0,1.4135,,0,62,62,121,1,pseudoword,0,REAL,FALSA
,,,,,,,,,6384ec504af00dd4483f521e,001,2024-06-30_07h34.32.996,empathy_intonation_perc,2024.1.4,Win32,60.24096386,,,,,,,,,,,,,,178,inichó,,,,,,183.0474,184.5636,0,1,0.9837,,0,63,63,177,1,pseudoword,0,REAL,FALSA
,,,,,,,,,6384ec504af00dd4483f521e,001,2024-06-30_07h34.32.996,empathy_intonation_perc,2024.1.4,Win32,60.24096386,,,,,,,,,,,,,,94,forro,,,,,,184.5639,185.8801,0,1,0.7871,,0,64,64,93,1,non_cognate,1,REAL,FALSA
,,,,,,,,,6384ec504af00dd4483f521e,001,2024-06-30_07h34.32.996,empathy_intonation_perc,2024.1.4,Win32,60.24096386,,,,,,,,,,,,,,190,asumie,,,,,,185.8804,187.0306,0,1,0.6398,,0,65,65,189,1,pseudoword,0,REAL,FALSA
,,,,,,,,,6384ec504af00dd4483f521e,001,2024-06-30_07h34.32.996,empathy_intonation_perc,2024.1.4,Win32,60.24096386,,,,,,,,,,,,,,82,brillo,,,,,,187.0309,188.3133,1,0,0.7517,,0,66,66,81,1,non_cognate,1,REAL,FALSA
,,,,,,,,,6384ec504af00dd4483f521e,001,2024-06-30_07h34.32.996,empathy_intonation_perc,2024.1.4,Win32,60.24096386,,,,,,,,,,,,,,97,nocita,,,,,,188.3137,189.7472,1,0,0.9072,,0,67,67,96,1,pseudoword,0,REAL,FALSA
,,,,,,,,,6384ec504af00dd4483f521e,001,2024-06-30_07h34.32.996,empathy_intonation_perc,2024.1.4,Win32,60.24096386,,,,,,,,,,,,,,18,altar,,,,,,189.7479,190.93,0,1,0.6563,,0,68,68,17,1,three_way_cognate,1,REAL,FALSA
,,,,,,,,,6384ec504af00dd4483f521e,001,2024-06-30_07h34.32.996,empathy_intonation_perc,2024.1.4,Win32,60.24096386,,,,,,,,,,,,,,22,mango,,,,,,190.9302,192.7632,0,1,1.3049,,0,69,69,21,1,three_way_cognate,1,REAL,FALSA
,,,,,,,,,6384ec504af00dd4483f521e,001,2024-06-30_07h34.32.996,empathy_intonation_perc,2024.1.4,Win32,60.24096386,,,,,,,,,,,,,,81,sacar,,,,,,192.7634,194.0632,0,1,0.7689,,0,70,70,80,1,non_cognate,1,REAL,FALSA
,,,,,,,,,6384ec504af00dd4483f521e,001,2024-06-30_07h34.32.996,empathy_intonation_perc,2024.1.4,Win32,60.24096386,,,,,,,,,,,,,,9,portal,,,,,,194.0636,195.3963,0,1,0.8061,,0,71,71,8,1,three_way_cognate,1,REAL,FALSA
,,,,,,,,,6384ec504af00dd4483f521e,001,2024-06-30_07h34.32.996,empathy_intonation_perc,2024.1.4,Win32,60.24096386,,,,,,,,,,,,,,57,regalo,,,,,,195.3967,196.9298,1,0,0.9967,,0,72,72,56,1,non_cognate,1,REAL,FALSA
,,,,,,,,,6384ec504af00dd4483f521e,001,2024-06-30_07h34.32.996,empathy_intonation_perc,2024.1.4,Win32,60.24096386,,,,,,,,,,,,,,49,teñir,,,,,,196.93,198.2631,1,0,0.7984,,0,73,73,48,1,non_cognate,1,REAL,FALSA
,,,,,,,,,6384ec504af00dd4483f521e,001,2024-06-30_07h34.32.996,empathy_intonation_perc,2024.1.4,Win32,60.24096386,,,,,,,,,,,,,,71,torta,,,,,,198.2637,199.8961,1,0,1.0995,,0,74,74,70,1,non_cognate,1,REAL,FALSA
,,,,,,,,,6384ec504af00dd4483f521e,001,2024-06-30_07h34.32.996,empathy_intonation_perc,2024.1.4,Win32,60.24096386,,,,,,,,,,,,,,29,clamor,,,,,,199.8968,201.1295,0,1,0.7019,,0,75,75,28,1,two_way_cognate,1,REAL,FALSA
,,,,,,,,,6384ec504af00dd4483f521e,001,2024-06-30_07h34.32.996,empathy_intonation_perc,2024.1.4,Win32,60.24096386,,,,,,,,,,,,,,152,prave,,,,,,201.1304,202.5793,0,1,0.9142,,0,76,76,151,1,pseudoword,0,REAL,FALSA
,,,,,,,,,6384ec504af00dd4483f521e,001,2024-06-30_07h34.32.996,empathy_intonation_perc,2024.1.4,Win32,60.24096386,,,,,,,,,,,,,,111,monue,,,,,,202.5803,203.9791,0,1,0.8657,,0,77,77,110,1,pseudoword,0,REAL,FALSA
,,,,,,,,,6384ec504af00dd4483f521e,001,2024-06-30_07h34.32.996,empathy_intonation_perc,2024.1.4,Win32,60.24096386,,,,,,,,,,,,,,86,cuenco,,,,,,203.9794,205.3625,1,0,0.8527,,0,78,78,85,1,non_cognate,1,REAL,FALSA
,,,,,,,,,6384ec504af00dd4483f521e,001,2024-06-30_07h34.32.996,empathy_intonation_perc,2024.1.4,Win32,60.24096386,,,,,,,,,,,,,,149,emén,,,,,,205.3628,206.6624,0,1,0.7643,,0,79,79,148,1,pseudoword,0,REAL,FALSA
,,,,,,,,,6384ec504af00dd4483f521e,001,2024-06-30_07h34.32.996,empathy_intonation_perc,2024.1.4,Win32,60.24096386,,,,,,,,,,,,,,98,martir,,,,,,206.663,207.8457,0,1,0.6532,,0,80,80,97,1,pseudoword,0,REAL,FALSA
,,,,,,,,,6384ec504af00dd4483f521e,001,2024-06-30_07h34.32.996,empathy_intonation_perc,2024.1.4,Win32,60.24096386,,,,,,,,,,,,,,188,amplir,,,,,,207.8461,209.2627,0,1,0.8881,,0,81,81,187,1,pseudoword,0,REAL,FALSA
,,,,,,,,,6384ec504af00dd4483f521e,001,2024-06-30_07h34.32.996,empathy_intonation_perc,2024.1.4,Win32,60.24096386,,,,,,,,,,,,,,175,tradía,,,,,,209.2636,210.5627,1,0,0.7667,,0,82,82,174,1,pseudoword,0,REAL,FALSA
,,,,,,,,,6384ec504af00dd4483f521e,001,2024-06-30_07h34.32.996,empathy_intonation_perc,2024.1.4,Win32,60.24096386,,,,,,,,,,,,,,35,aurora,,,,,,210.5634,211.8788,0,1,0.7796,,0,83,83,34,1,two_way_cognate,1,REAL,FALSA
,,,,,,,,,6384ec504af00dd4483f521e,001,2024-06-30_07h34.32.996,empathy_intonation_perc,2024.1.4,Win32,60.24096386,,,,,,,,,,,,,,135,panté,,,,,,211.8792,213.3455,1,0,0.9318,,0,84,84,134,1,pseudoword,0,REAL,FALSA
,,,,,,,,,6384ec504af00dd4483f521e,001,2024-06-30_07h34.32.996,empathy_intonation_perc,2024.1.4,Win32,60.24096386,,,,,,,,,,,,,,54,tapón,,,,,,213.346,214.8121,1,0,0.9307,,0,85,85,53,1,non_cognate,1,REAL,FALSA
,,,,,,,,,6384ec504af00dd4483f521e,001,2024-06-30_07h34.32.996,empathy_intonation_perc,2024.1.4,Win32,60.24096386,,,,,,,,,,,,,,141,virios,,,,,,214.8124,216.1288,0,1,0.7891,,0,86,86,140,1,pseudoword,0,REAL,FALSA
,,,,,,,,,6384ec504af00dd4483f521e,001,2024-06-30_07h34.32.996,empathy_intonation_perc,2024.1.4,Win32,60.24096386,,,,,,,,,,,,,,47,color,,,,,,216.1292,217.3951,0,1,0.7324,,0,87,87,46,1,two_way_cognate,1,REAL,FALSA
,,,,,,,,,6384ec504af00dd4483f521e,001,2024-06-30_07h34.32.996,empathy_intonation_perc,2024.1.4,Win32,60.24096386,,,,,,,,,,,,,,137,trugo,,,,,,217.3955,219.2284,0,1,1.3048,,0,88,88,136,1,pseudoword,0,REAL,FALSA
,,,,,,,,,6384ec504af00dd4483f521e,001,2024-06-30_07h34.32.996,empathy_intonation_perc,2024.1.4,Win32,60.24096386,,,,,,,,,,,,,,148,gino,,,,,,219.2289,220.4119,0,1,0.6545,,0,89,89,147,1,pseudoword,0,REAL,FALSA
,,,,,,,,,6384ec504af00dd4483f521e,001,2024-06-30_07h34.32.996,empathy_intonation_perc,2024.1.4,Win32,60.24096386,,,,,,,,,,,,,,106,diebro,,,,,,220.413,221.9949,0,1,1.0455,,0,90,90,105,1,pseudoword,0,REAL,FALSA
,,,,,,,,,6384ec504af00dd4483f521e,001,2024-06-30_07h34.32.996,empathy_intonation_perc,2024.1.4,Win32,60.24096386,,,,,,,,,,,,,,46,mortal,,,,,,221.9952,223.2619,0,1,0.732,,0,91,91,45,1,two_way_cognate,1,REAL,FALSA
,,,,,,,,,6384ec504af00dd4483f521e,001,2024-06-30_07h34.32.996,empathy_intonation_perc,2024.1.4,Win32,60.24096386,,,,,,,,,,,,,,37,torso,,,,,,223.2629,224.4615,1,0,0.6743,,0,92,92,36,1,two_way_cognate,1,REAL,FALSA
,,,,,,,,,6384ec504af00dd4483f521e,001,2024-06-30_07h34.32.996,empathy_intonation_perc,2024.1.4,Win32,60.24096386,,,,,,,,,,,,,,73,llevar,,,,,,224.4621,225.645,1,0,0.6658,,0,93,93,72,1,non_cognate,1,REAL,FALSA
,,,,,,,,,6384ec504af00dd4483f521e,001,2024-06-30_07h34.32.996,empathy_intonation_perc,2024.1.4,Win32,60.24096386,,,,,,,,,,,,,,154,harvé,,,,,,225.6455,226.9444,1,0,0.7714,,0,94,94,153,1,pseudoword,0,REAL,FALSA
,,,,,,,,,6384ec504af00dd4483f521e,001,2024-06-30_07h34.32.996,empathy_intonation_perc,2024.1.4,Win32,60.24096386,,,,,,,,,,,,,,66,aleta,,,,,,226.9447,229.0446,0,1,1.5691,,0,95,95,65,1,non_cognate,1,REAL,FALSA
,,,,,,,,,6384ec504af00dd4483f521e,001,2024-06-30_07h34.32.996,empathy_intonation_perc,2024.1.4,Win32,60.24096386,,,,,,,,,,,,,,39,casual,,,,,,229.0454,230.3946,0,1,0.8143,,0,96,96,38,1,two_way_cognate,1,REAL,FALSA
,,,,,,,,,6384ec504af00dd4483f521e,001,2024-06-30_07h34.32.996,empathy_intonation_perc,2024.1.4,Win32,60.24096386,,,,,,,,,,,,,,158,babrá,,,,,,230.3949,231.6443,1,0,0.7209,,0,97,97,157,1,pseudoword,0,REAL,FALSA
,,,,,,,,,6384ec504af00dd4483f521e,001,2024-06-30_07h34.32.996,empathy_intonation_perc,2024.1.4,Win32,60.24096386,,,,,,,,,,,,,,74,ala,,,,,,231.6447,232.7609,0,1,0.6054,,0,98,98,73,1,non_cognate,1,REAL,FALSA
,,,,,,,,,6384ec504af00dd4483f521e,001,2024-06-30_07h34.32.996,empathy_intonation_perc,2024.1.4,Win32,60.24096386,,,,,,,,,,,,,,117,morrá,,,,,,232.7612,234.4611,1,0,1.1644,,0,99,99,116,1,pseudoword,0,REAL,FALSA
,,,,,,,,,6384ec504af00dd4483f521e,001,2024-06-30_07h34.32.996,empathy_intonation_perc,2024.1.4,Win32,60.24096386,,,,,,,,,,,,,,121,barbs,,,,,,234.4617,235.7777,0,1,0.7837,,0,100,100,120,1,pseudoword,0,REAL,FALSA
,,,,,,,,,6384ec504af00dd4483f521e,001,2024-06-30_07h34.32.996,empathy_intonation_perc,2024.1.4,Win32,60.24096386,,,,,,,,,,,,,,1,moral,,,,,,235.7785,236.8775,0,1,0.5658,,0,101,101,0,1,three_way_cognate,1,REAL,FALSA
,,,,,,,,,6384ec504af00dd4483f521e,001,2024-06-30_07h34.32.996,empathy_intonation_perc,2024.1.4,Win32,60.24096386,,,,,,,,,,,,,,87,muleta,,,,,,236.8779,238.211,1,0,0.8142,,0,102,102,86,1,non_cognate,1,REAL,FALSA
,,,,,,,,,6384ec504af00dd4483f521e,001,2024-06-30_07h34.32.996,empathy_intonation_perc,2024.1.4,Win32,60.24096386,,,,,,,,,,,,,,185,aljizo,,,,,,238.2113,239.4607,0,1,0.7209,,0,103,103,184,1,pseudoword,0,REAL,FALSA
,,,,,,,,,6384ec504af00dd4483f521e,001,2024-06-30_07h34.32.996,empathy_intonation_perc,2024.1.4,Win32,60.24096386,,,,,,,,,,,,,,43,honor,,,,,,239.4613,241.0276,0,1,1.0317,,0,104,104,42,1,two_way_cognate,1,REAL,FALSA
,,,,,,,,,6384ec504af00dd4483f521e,001,2024-06-30_07h34.32.996,empathy_intonation_perc,2024.1.4,Win32,60.24096386,,,,,,,,,,,,,,34,actor,,,,,,241.0282,242.1439,0,1,0.5816,,0,105,105,33,1,two_way_cognate,1,REAL,FALSA
,,,,,,,,,6384ec504af00dd4483f521e,001,2024-06-30_07h34.32.996,empathy_intonation_perc,2024.1.4,Win32,60.24096386,,,,,,,,,,,,,,110,densó,,,,,,242.1442,243.4439,0,1,0.7733,,0,106,106,109,1,pseudoword,0,REAL,FALSA
,,,,,,,,,6384ec504af00dd4483f521e,001,2024-06-30_07h34.32.996,empathy_intonation_perc,2024.1.4,Win32,60.24096386,,,,,,,,,,,,,,41,pasta,,,,,,243.4447,245.1437,0,1,1.1716,,0,107,107,40,1,two_way_cognate,1,REAL,FALSA
,,,,,,,,,6384ec504af00dd4483f521e,001,2024-06-30_07h34.32.996,empathy_intonation_perc,2024.1.4,Win32,60.24096386,,,,,,,,,,,,,,159,trcia,,,,,,245.1441,246.4604,0,1,0.7831,,0,108,108,158,1,pseudoword,0,REAL,FALSA
,,,,,,,,,6384ec504af00dd4483f521e,001,2024-06-30_07h34.32.996,empathy_intonation_perc,2024.1.4,Win32,60.24096386,,,,,,,,,,,,,,105,leniz,,,,,,246.4608,247.9269,0,1,0.9318,,0,109,109,104,1,pseudoword,0,REAL,FALSA
,,,,,,,,,6384ec504af00dd4483f521e,001,2024-06-30_07h34.32.996,empathy_intonation_perc,2024.1.4,Win32,60.24096386,,,,,,,,,,,,,,113,nasce,,,,,,247.9271,249.2435,0,1,0.7902,,0,110,110,112,1,pseudoword,0,REAL,FALSA
,,,,,,,,,6384ec504af00dd4483f521e,001,2024-06-30_07h34.32.996,empathy_intonation_perc,2024.1.4,Win32,60.24096386,,,,,,,,,,,,,,176,gripar,,,,,,249.2443,250.9269,0,1,1.1481,,0,111,111,175,1,pseudoword,0,REAL,FALSA
,,,,,,,,,6384ec504af00dd4483f521e,001,2024-06-30_07h34.32.996,empathy_intonation_perc,2024.1.4,Win32,60.24096386,,,,,,,,,,,,,,101,losco,,,,,,250.9272,252.6933,0,1,1.2303,,0,112,112,100,1,pseudoword,0,REAL,FALSA
,,,,,,,,,6384ec504af00dd4483f521e,001,2024-06-30_07h34.32.996,empathy_intonation_perc,2024.1.4,Win32,60.24096386,,,,,,,,,,,,,,89,muñeca,,,,,,252.6937,254.3267,1,0,1.0993,,0,113,113,88,1,non_cognate,1,REAL,FALSA
,,,,,,,,,6384ec504af00dd4483f521e,001,2024-06-30_07h34.32.996,empathy_intonation_perc,2024.1.4,Win32,60.24096386,,,,,,,,,,,,,,51,listo,,,,,,254.3271,256.8767,1,0,2.0168,,0,114,114,50,1,non_cognate,1,REAL,FALSA
,,,,,,,,,6384ec504af00dd4483f521e,001,2024-06-30_07h34.32.996,empathy_intonation_perc,2024.1.4,Win32,60.24096386,,,,,,,,,,,,,,56,pico,,,,,,256.8872,258.5096,1,0,1.105,,0,115,115,55,1,non_cognate,1,REAL,FALSA
,,,,,,,,,6384ec504af00dd4483f521e,001,2024-06-30_07h34.32.996,empathy_intonation_perc,2024.1.4,Win32,60.24096386,,,,,,,,,,,,,,92,flecha,,,,,,258.51,263.326,0,1,4.2786,,0,116,116,91,1,non_cognate,1,REAL,FALSA
,,,,,,,,,6384ec504af00dd4483f521e,001,2024-06-30_07h34.32.996,empathy_intonation_perc,2024.1.4,Win32,60.24096386,,,,,,,,,,,,,,64,rizado,,,,,,263.3376,264.4595,0,1,0.6009,,0,117,117,63,1,non_cognate,1,REAL,FALSA
,,,,,,,,,6384ec504af00dd4483f521e,001,2024-06-30_07h34.32.996,empathy_intonation_perc,2024.1.4,Win32,60.24096386,,,,,,,,,,,,,,72,rostro,,,,,,264.4598,266.2426,1,0,1.2487,,0,118,118,71,1,non_cognate,1,REAL,FALSA
,,,,,,,,,6384ec504af00dd4483f521e,001,2024-06-30_07h34.32.996,empathy_intonation_perc,2024.1.4,Win32,60.24096386,,,,,,,,,,,,,,99,bugor,,,,,,266.243,267.3426,0,1,0.5726,,0,119,119,98,1,pseudoword,0,REAL,FALSA
,,,,,,,,,6384ec504af00dd4483f521e,001,2024-06-30_07h34.32.996,empathy_intonation_perc,2024.1.4,Win32,60.24096386,,,,,,,,,,,,,,189,medium,,,,,,267.343,268.5925,0,1,0.715,,0,120,120,188,1,pseudoword,0,REAL,FALSA
,,,,,,,,,6384ec504af00dd4483f521e,001,2024-06-30_07h34.32.996,empathy_intonation_perc,2024.1.4,Win32,60.24096386,,,,,,,,,,,,,,160,fomeó,,,,,,268.5931,271.0422,1,0,1.9226,,0,121,121,159,1,pseudoword,0,REAL,FALSA
,,,,,,,,,6384ec504af00dd4483f521e,001,2024-06-30_07h34.32.996,empathy_intonation_perc,2024.1.4,Win32,60.24096386,,,,,,,,,,,,,,169,pitis,,,,,,271.0538,272.7758,0,1,1.1993,0.0004,0,122,122,168,1,pseudoword,0,REAL,FALSA
,,,,,,,,,6384ec504af00dd4483f521e,001,2024-06-30_07h34.32.996,empathy_intonation_perc,2024.1.4,Win32,60.24096386,,,,,,,,,,,,,,79,suelo,,,,,,272.7763,274.2921,1,0,0.991,,0,123,123,78,1,non_cognate,1,REAL,FALSA
,,,,,,,,,6384ec504af00dd4483f521e,001,2024-06-30_07h34.32.996,empathy_intonation_perc,2024.1.4,Win32,60.24096386,,,,,,,,,,,,,,168,cobén,,,,,,274.2927,275.6119,1,0,0.7809,,0,124,124,167,1,pseudoword,0,REAL,FALSA
,,,,,,,,,6384ec504af00dd4483f521e,001,2024-06-30_07h34.32.996,empathy_intonation_perc,2024.1.4,Win32,60.24096386,,,,,,,,,,,,,,102,coyo,,,,,,275.6128,276.7923,0,1,0.6478,,0,125,125,101,1,pseudoword,0,REAL,FALSA
,,,,,,,,,6384ec504af00dd4483f521e,001,2024-06-30_07h34.32.996,empathy_intonation_perc,2024.1.4,Win32,60.24096386,,,,,,,,,,,,,,80,cuenco,,,,,,276.7927,278.0253,1,0,0.7039,,0,126,126,79,1,non_cognate,1,REAL,FALSA
,,,,,,,,,6384ec504af00dd4483f521e,001,2024-06-30_07h34.32.996,empathy_intonation_perc,2024.1.4,Win32,60.24096386,,,,,,,,,,,,,,6,horror,,,,,,278.0257,279.2586,0,1,0.6974,,0,127,127,5,1,three_way_cognate,1,REAL,FALSA
,,,,,,,,,6384ec504af00dd4483f521e,001,2024-06-30_07h34.32.996,empathy_intonation_perc,2024.1.4,Win32,60.24096386,,,,,,,,,,,,,,50,sierra,,,,,,279.2589,280.6085,1,0,0.8212,,0,128,128,49,1,non_cognate,1,REAL,FALSA
,,,,,,,,,6384ec504af00dd4483f521e,001,2024-06-30_07h34.32.996,empathy_intonation_perc,2024.1.4,Win32,60.24096386,,,,,,,,,,,,,,44,editor,,,,,,280.6089,281.7754,0,1,0.6287,,0,129,129,43,1,two_way_cognate,1,REAL,FALSA
,,,,,,,,,6384ec504af00dd4483f521e,001,2024-06-30_07h34.32.996,empathy_intonation_perc,2024.1.4,Win32,60.24096386,,,,,,,,,,,,,,5,extra,,,,,,281.7758,283.1083,0,1,0.7958,,0,130,130,4,1,three_way_cognate,1,REAL,FALSA
,,,,,,,,,6384ec504af00dd4483f521e,001,2024-06-30_07h34.32.996,empathy_intonation_perc,2024.1.4,Win32,60.24096386,,,,,,,,,,,,,,100,épinas,,,,,,283.1087,284.2583,1,0,0.6161,,0,131,131,99,1,pseudoword,0,REAL,FALSA
,,,,,,,,,6384ec504af00dd4483f521e,001,2024-06-30_07h34.32.996,empathy_intonation_perc,2024.1.4,Win32,60.24096386,,,,,,,,,,,,,,145,rúo,,,,,,284.2588,285.3916,0,1,0.5957,,0,132,132,144,1,pseudoword,0,REAL,FALSA
,,,,,,,,,6384ec504af00dd4483f521e,001,2024-06-30_07h34.32.996,empathy_intonation_perc,2024.1.4,Win32,60.24096386,,,,,,,,,,,,,,2,tumor,,,,,,285.3922,286.8248,0,1,0.9011,,0,133,133,1,1,three_way_cognate,1,REAL,FALSA
,,,,,,,,,6384ec504af00dd4483f521e,001,2024-06-30_07h34.32.996,empathy_intonation_perc,2024.1.4,Win32,60.24096386,,,,,,,,,,,,,,172,dogue,,,,,,286.8252,288.1248,0,1,0.7635,,0,134,134,171,1,pseudoword,0,REAL,FALSA
,,,,,,,,,6384ec504af00dd4483f521e,001,2024-06-30_07h34.32.996,empathy_intonation_perc,2024.1.4,Win32,60.24096386,,,,,,,,,,,,,,161,civas,,,,,,288.1253,289.358,0,1,0.7008,,0,135,135,160,1,pseudoword,0,REAL,FALSA
,,,,,,,,,6384ec504af00dd4483f521e,001,2024-06-30_07h34.32.996,empathy_intonation_perc,2024.1.4,Win32,60.24096386,,,,,,,,,,,,,,4,flora,,,,,,289.3586,290.558,0,1,0.6641,,0,136,136,3,1,three_way_cognate,1,REAL,FALSA
,,,,,,,,,6384ec504af00dd4483f521e,001,2024-06-30_07h34.32.996,empathy_intonation_perc,2024.1.4,Win32,60.24096386,,,,,,,,,,,,,,186,rizate,,,,,,290.5584,291.5912,0,1,0.5052,,0,137,137,185,1,pseudoword,0,REAL,FALSA
,,,,,,,,,6384ec504af00dd4483f521e,001,2024-06-30_07h34.32.996,empathy_intonation_perc,2024.1.4,Win32,60.24096386,,,,,,,,,,,,,,129,vinzó,,,,,,291.5915,292.458,0,1,0.3302,,0,138,138,128,1,pseudoword,0,REAL,FALSA
,,,,,,,,,6384ec504af00dd4483f521e,001,2024-06-30_07h34.32.996,empathy_intonation_perc,2024.1.4,Win32,60.24096386,,,,,,,,,,,,,,138,tator,,,,,,292.4585,293.1578,0,1,0.169,,0,139,139,137,1,pseudoword,0,REAL,FALSA
,,,,,,,,,6384ec504af00dd4483f521e,001,2024-06-30_07h34.32.996,empathy_intonation_perc,2024.1.4,Win32,60.24096386,,,,,,,,,,,,,,45,total,,,,,,293.1586,294.3245,0,1,0.6287,,0,140,140,44,1,two_way_cognate,1,REAL,FALSA
,,,,,,,,,6384ec504af00dd4483f521e,001,2024-06-30_07h34.32.996,empathy_intonation_perc,2024.1.4,Win32,60.24096386,,,,,,,,,,,,,,23,plural,,,,,,294.325,295.4244,0,1,0.5685,,0,141,141,22,1,three_way_cognate,1,REAL,FALSA
,,,,,,,,,6384ec504af00dd4483f521e,001,2024-06-30_07h34.32.996,empathy_intonation_perc,2024.1.4,Win32,60.24096386,,,,,,,,,,,,,,115,lidena,,,,,,295.4248,296.5245,1,0,0.5729,,0,142,142,114,1,pseudoword,0,REAL,FALSA
,,,,,,,,,6384ec504af00dd4483f521e,001,2024-06-30_07h34.32.996,empathy_intonation_perc,2024.1.4,Win32,60.24096386,,,,,,,,,,,,,,126,tobre,,,,,,296.5249,298.091,1,0,1.0326,,0,143,143,125,1,pseudoword,0,REAL,FALSA
,,,,,,,,,6384ec504af00dd4483f521e,001,2024-06-30_07h34.32.996,empathy_intonation_perc,2024.1.4,Win32,60.24096386,,,,,,,,,,,,,,16,chat,,,,,,298.0914,299.2409,0,1,0.6122,,0,144,144,15,1,three_way_cognate,1,REAL,FALSA
,,,,,,,,,6384ec504af00dd4483f521e,001,2024-06-30_07h34.32.996,empathy_intonation_perc,2024.1.4,Win32,60.24096386,,,,,,,,,,,,,,25,vigor,,,,,,299.2413,300.5574,0,1,0.7787,,0,145,145,24,1,two_way_cognate,1,REAL,FALSA
,,,,,,,,,6384ec504af00dd4483f521e,001,2024-06-30_07h34.32.996,empathy_intonation_perc,2024.1.4,Win32,60.24096386,,,,,,,,,,,,,,123,arane,,,,,,300.5577,301.9247,0,1,0.8417,,0,146,146,122,1,pseudoword,0,REAL,FALSA
,,,,,,,,,6384ec504af00dd4483f521e,001,2024-06-30_07h34.32.996,empathy_intonation_perc,2024.1.4,Win32,60.24096386,,,,,,,,,,,,,,91,equipo,,,,,,301.925,303.2406,1,0,0.7825,,0,147,147,90,1,non_cognate,1,REAL,FALSA
,,,,,,,,,6384ec504af00dd4483f521e,001,2024-06-30_07h34.32.996,empathy_intonation_perc,2024.1.4,Win32,60.24096386,,,,,,,,,,,,,,182,desaro,,,,,,303.2408,303.8404,0,1,0.0627,,0,148,148,181,1,pseudoword,0,REAL,FALSA
,,,,,,,,,6384ec504af00dd4483f521e,001,2024-06-30_07h34.32.996,empathy_intonation_perc,2024.1.4,Win32,60.24096386,,,,,,,,,,,,,,63,hilo,,,,,,303.8413,305.1238,0,1,0.7539,,0,149,149,62,1,non_cognate,1,REAL,FALSA
,,,,,,,,,6384ec504af00dd4483f521e,001,2024-06-30_07h34.32.996,empathy_intonation_perc,2024.1.4,Win32,60.24096386,,,,,,,,,,,,,,116,grigir,,,,,,305.1243,306.4071,0,1,0.7495,,0,150,150,115,1,pseudoword,0,REAL,FALSA
,,,,,,,,,6384ec504af00dd4483f521e,001,2024-06-30_07h34.32.996,empathy_intonation_perc,2024.1.4,Win32,60.24096386,,,,,,,,,,,,,,77,suave,,,,,,306.4076,307.7403,0,1,0.8046,,0,151,151,76,1,non_cognate,1,REAL,FALSA
,,,,,,,,,6384ec504af00dd4483f521e,001,2024-06-30_07h34.32.996,empathy_intonation_perc,2024.1.4,Win32,60.24096386,,,,,,,,,,,,,,134,molor,,,,,,307.7409,308.7405,0,1,0.463,,0,152,152,133,1,pseudoword,0,REAL,FALSA
,,,,,,,,,6384ec504af00dd4483f521e,001,2024-06-30_07h34.32.996,empathy_intonation_perc,2024.1.4,Win32,60.24096386,,,,,,,,,,,,,,162,cengo,,,,,,308.7409,310.4403,1,0,1.1665,,0,153,153,161,1,pseudoword,0,REAL,FALSA
,,,,,,,,,6384ec504af00dd4483f521e,001,2024-06-30_07h34.32.996,empathy_intonation_perc,2024.1.4,Win32,60.24096386,,,,,,,,,,,,,,114,dibrea,,,,,,310.4408,311.2736,0,1,0.3068,,0,154,154,113,1,pseudoword,0,REAL,FALSA
,,,,,,,,,6384ec504af00dd4483f521e,001,2024-06-30_07h34.32.996,empathy_intonation_perc,2024.1.4,Win32,60.24096386,,,,,,,,,,,,,,96,caro,,,,,,311.2741,312.3401,1,0,0.5314,,0,155,155,95,1,non_cognate,1,REAL,FALSA
,,,,,,,,,6384ec504af00dd4483f521e,001,2024-06-30_07h34.32.996,empathy_intonation_perc,2024.1.4,Win32,60.24096386,,,,,,,,,,,,,,103,vueras,,,,,,312.3406,313.5234,1,0,0.6539,,0,156,156,102,1,pseudoword,0,REAL,FALSA
,,,,,,,,,6384ec504af00dd4483f521e,001,2024-06-30_07h34.32.996,empathy_intonation_perc,2024.1.4,Win32,60.24096386,,,,,,,,,,,,,,181,gravés,,,,,,313.5236,315.0066,1,0,0.9568,,0,157,157,180,1,pseudoword,0,REAL,FALSA
,,,,,,,,,6384ec504af00dd4483f521e,001,2024-06-30_07h34.32.996,empathy_intonation_perc,2024.1.4,Win32,60.24096386,,,,,,,,,,,,,,12,dogma,,,,,,315.0068,316.1568,1,0,0.6205,,0,158,158,11,1,three_way_cognate,1,REAL,FALSA
,,,,,,,,,6384ec504af00dd4483f521e,001,2024-06-30_07h34.32.996,empathy_intonation_perc,2024.1.4,Win32,60.24096386,,,,,,,,,,,,,,170,diabo,,,,,,316.1571,317.5566,1,0,0.8657,,0,159,159,169,1,pseudoword,0,REAL,FALSA
,,,,,,,,,6384ec504af00dd4483f521e,001,2024-06-30_07h34.32.996,empathy_intonation_perc,2024.1.4,Win32,60.24096386,,,,,,,,,,,,,,146,gió,,,,,,317.5571,318.6898,1,0,0.5984,,0,160,160,145,1,pseudoword,0,REAL,FALSA
,,,,,,,,,6384ec504af00dd4483f521e,001,2024-06-30_07h34.32.996,empathy_intonation_perc,2024.1.4,Win32,60.24096386,,,,,,,,,,,,,,30,fiscal,,,,,,318.6902,320.24,0,1,1.0158,,0,161,161,29,1,two_way_cognate,1,REAL,FALSA
,,,,,,,,,6384ec504af00dd4483f521e,001,2024-06-30_07h34.32.996,empathy_intonation_perc,2024.1.4,Win32,60.24096386,,,,,,,,,,,,,,19,mafia,,,,,,320.2403,321.5896,0,1,0.8195,,0,162,162,18,1,three_way_cognate,1,REAL,FALSA
,,,,,,,,,6384ec504af00dd4483f521e,001,2024-06-30_07h34.32.996,empathy_intonation_perc,2024.1.4,Win32,60.24096386,,,,,,,,,,,,,,132,nocó,,,,,,321.5901,323.1733,0,1,1.0505,,0,163,163,131,1,pseudoword,0,REAL,FALSA
,,,,,,,,,6384ec504af00dd4483f521e,001,2024-06-30_07h34.32.996,empathy_intonation_perc,2024.1.4,Win32,60.24096386,,,,,,,,,,,,,,164,tecia,,,,,,323.1737,324.4729,1,0,0.766,,0,164,164,163,1,pseudoword,0,REAL,FALSA
,,,,,,,,,6384ec504af00dd4483f521e,001,2024-06-30_07h34.32.996,empathy_intonation_perc,2024.1.4,Win32,60.24096386,,,,,,,,,,,,,,119,esís,,,,,,324.4733,325.7894,1,0,0.7878,,0,165,165,118,1,pseudoword,0,REAL,FALSA
,,,,,,,,,6384ec504af00dd4483f521e,001,2024-06-30_07h34.32.996,empathy_intonation_perc,2024.1.4,Win32,60.24096386,,,,,,,,,,,,,,65,guerra,,,,,,325.7896,327.0393,0,1,0.7237,,0,166,166,64,1,non_cognate,1,REAL,FALSA
,,,,,,,,,6384ec504af00dd4483f521e,001,2024-06-30_07h34.32.996,empathy_intonation_perc,2024.1.4,Win32,60.24096386,,,,,,,,,,,,,,14,aura,,,,,,327.0397,328.673,0,1,1.0993,,0,167,167,13,1,three_way_cognate,1,REAL,FALSA
,,,,,,,,,6384ec504af00dd4483f521e,001,2024-06-30_07h34.32.996,empathy_intonation_perc,2024.1.4,Win32,60.24096386,,,,,,,,,,,,,,62,pegar,,,,,,328.6735,330.1894,0,1,0.9832,,0,168,168,61,1,non_cognate,1,REAL,FALSA
,,,,,,,,,6384ec504af00dd4483f521e,001,2024-06-30_07h34.32.996,empathy_intonation_perc,2024.1.4,Win32,60.24096386,,,,,,,,,,,,,,104,estulo,,,,,,330.1897,331.523,1,0,0.7979,,0,169,169,103,1,pseudoword,0,REAL,FALSA
,,,,,,,,,6384ec504af00dd4483f521e,001,2024-06-30_07h34.32.996,empathy_intonation_perc,2024.1.4,Win32,60.24096386,,,,,,,,,,,,,,40,pelvis,,,,,,331.5234,332.6725,0,1,0.6165,,0,170,170,39,1,two_way_cognate,1,REAL,FALSA
,,,,,,,,,6384ec504af00dd4483f521e,001,2024-06-30_07h34.32.996,empathy_intonation_perc,2024.1.4,Win32,60.24096386,,,,,,,,,,,,,,27,piano,,,,,,332.673,334.0057,0,1,0.7985,,0,171,171,26,1,two_way_cognate,1,REAL,FALSA
,,,,,,,,,6384ec504af00dd4483f521e,001,2024-06-30_07h34.32.996,empathy_intonation_perc,2024.1.4,Win32,60.24096386,,,,,,,,,,,,,,140,chorde,,,,,,334.0059,335.2723,0,1,0.7409,,0,172,172,139,1,pseudoword,0,REAL,FALSA
,,,,,,,,,6384ec504af00dd4483f521e,001,2024-06-30_07h34.32.996,empathy_intonation_perc,2024.1.4,Win32,60.24096386,,,,,,,,,,,,,,179,suelet,,,,,,335.2728,336.7893,0,1,0.9812,,0,173,173,178,1,pseudoword,0,REAL,FALSA
,,,,,,,,,6384ec504af00dd4483f521e,001,2024-06-30_07h34.32.996,empathy_intonation_perc,2024.1.4,Win32,60.24096386,,,,,,,,,,,,,,155,kugis,,,,,,336.7901,337.9555,0,1,0.6328,,0,174,174,154,1,pseudoword,0,REAL,FALSA
,,,,,,,,,6384ec504af00dd4483f521e,001,2024-06-30_07h34.32.996,empathy_intonation_perc,2024.1.4,Win32,60.24096386,,,,,,,,,,,,,,128,pelí,,,,,,337.9561,339.1388,0,1,0.6645,,0,175,175,127,1,pseudoword,0,REAL,FALSA
,,,,,,,,,6384ec504af00dd4483f521e,001,2024-06-30_07h34.32.996,empathy_intonation_perc,2024.1.4,Win32,60.24096386,,,,,,,,,,,,,,163,olzan,,,,,,339.139,340.6387,0,1,0.9668,,0,176,176,162,1,pseudoword,0,REAL,FALSA
,,,,,,,,,6384ec504af00dd4483f521e,001,2024-06-30_07h34.32.996,empathy_intonation_perc,2024.1.4,Win32,60.24096386,,,,,,,,,,,,,,125,ceme,,,,,,340.6391,342.0885,1,0,0.9178,,0,177,177,124,1,pseudoword,0,REAL,FALSA
,,,,,,,,,6384ec504af00dd4483f521e,001,2024-06-30_07h34.32.996,empathy_intonation_perc,2024.1.4,Win32,60.24096386,,,,,,,,,,,,,,107,plago,,,,,,342.089,343.5554,1,0,0.9327,,0,178,178,106,1,pseudoword,0,REAL,FALSA
,,,,,,,,,6384ec504af00dd4483f521e,001,2024-06-30_07h34.32.996,empathy_intonation_perc,2024.1.4,Win32,60.24096386,,,,,,,,,,,,,,124,lobe,,,,,,343.5558,345.1886,0,1,1.1009,,0,179,179,123,1,pseudoword,0,REAL,FALSA
,,,,,,,,,6384ec504af00dd4483f521e,001,2024-06-30_07h34.32.996,empathy_intonation_perc,2024.1.4,Win32,60.24096386,,,,,,,,,,,,,,93,tapa,,,,,,345.1889,346.6384,1,0,0.9177,,0,180,180,92,1,non_cognate,1,REAL,FALSA
,,,,,,,,,6384ec504af00dd4483f521e,001,2024-06-30_07h34.32.996,empathy_intonation_perc,2024.1.4,Win32,60.24096386,,,,,,,,,,,,,,13,plan,,,,,,346.6387,347.9884,0,1,0.8229,,0,181,181,12,1,three_way_cognate,1,REAL,FALSA
,,,,,,,,,6384ec504af00dd4483f521e,001,2024-06-30_07h34.32.996,empathy_intonation_perc,2024.1.4,Win32,60.24096386,,,,,,,,,,,,,,109,laras,,,,,,347.9891,349.3884,0,1,0.8703,,0,182,182,108,1,pseudoword,0,REAL,FALSA
,,,,,,,,,6384ec504af00dd4483f521e,001,2024-06-30_07h34.32.996,empathy_intonation_perc,2024.1.4,Win32,60.24096386,,,,,,,,,,,,,,17,clan,,,,,,349.3887,350.6882,0,1,0.7651,,0,183,183,16,1,three_way_cognate,1,REAL,FALSA
,,,,,,,,,6384ec504af00dd4483f521e,001,2024-06-30_07h34.32.996,empathy_intonation_perc,2024.1.4,Win32,60.24096386,,,,,,,,,,,,,,192,próces,,,,,,350.6886,351.8214,1,0,0.6021,,0,184,184,191,1,pseudoword,0,REAL,FALSA
,,,,,,,,,6384ec504af00dd4483f521e,001,2024-06-30_07h34.32.996,empathy_intonation_perc,2024.1.4,Win32,60.24096386,,,,,,,,,,,,,,142,parre,,,,,,351.8217,353.1381,1,0,0.7865,,0,185,185,141,1,pseudoword,0,REAL,FALSA
,,,,,,,,,6384ec504af00dd4483f521e,001,2024-06-30_07h34.32.996,empathy_intonation_perc,2024.1.4,Win32,60.24096386,,,,,,,,,,,,,,167,dobbo,,,,,,353.1387,354.3547,0,1,0.683,,0,186,186,166,1,pseudoword,0,REAL,FALSA
,,,,,,,,,6384ec504af00dd4483f521e,001,2024-06-30_07h34.32.996,empathy_intonation_perc,2024.1.4,Win32,60.24096386,,,,,,,,,,,,,,177,entodo,,,,,,354.3552,356.1545,1,0,1.2703,,0,187,187,176,1,pseudoword,0,REAL,FALSA
,,,,,,,,,6384ec504af00dd4483f521e,001,2024-06-30_07h34.32.996,empathy_intonation_perc,2024.1.4,Win32,60.24096386,,,,,,,,,,,,,,20,trauma,,,,,,356.1548,357.4045,0,1,0.7172,,0,188,188,19,1,three_way_cognate,1,REAL,FALSA
,,,,,,,,,6384ec504af00dd4483f521e,001,2024-06-30_07h34.32.996,empathy_intonation_perc,2024.1.4,Win32,60.24096386,,,,,,,,,,,,,,10,drama,,,,,,357.4049,358.6712,0,1,0.7365,,0,189,189,9,1,three_way_cognate,1,REAL,FALSA
,,,,,,,,,6384ec504af00dd4483f521e,001,2024-06-30_07h34.32.996,empathy_intonation_perc,2024.1.4,Win32,60.24096386,,,,,,,,,,,,,,21,hotel,,,,,,358.6715,360.421,0,1,1.2155,,0,190,190,20,1,three_way_cognate,1,REAL,FALSA
,,,,,,,,,6384ec504af00dd4483f521e,001,2024-06-30_07h34.32.996,empathy_intonation_perc,2024.1.4,Win32,60.24096386,,,,,,,,,,,,,,174,pabea,,,,,,360.4214,361.921,0,1,0.9634,,0,191,191,173,1,pseudoword,0,REAL,FALSA
