lextale_instructions.started,lextale_instructions.stopped,lextale_instructions_loop.thisRepN,lextale_instructions_loop.thisTrialN,lextale_instructions_loop.thisN,lextale_instructions_loop.thisIndex,lextale_instructions_loop.ran,instructions_text,continue_text,participant,session,date,expName,psychopyVersion,OS,frameRate,lextale_practice.started,lextale_practice.stopped,key_resp_lextale_practice.keys,key_resp_lextale_practice.corr,key_resp_lextale_practice.rt,key_resp_lextale_practice.duration,lextale_practice_feedback.started,lextale_practice_feedback.stopped,lextale_practice_trials.thisRepN,lextale_practice_trials.thisTrialN,lextale_practice_trials.thisN,lextale_practice_trials.thisIndex,lextale_practice_trials.ran,stim,word,correct_response,prac_button_real,prac_button_false,lextale_check.started,lextale_check.stopped,lextale_trial.started,lextale_trial.stopped,key_resp_lextale_trial.keys,key_resp_lextale_trial.corr,key_resp_lextale_trial.rt,key_resp_lextale_trial.duration,lextail_trials.thisRepN,lextail_trials.thisTrialN,lextail_trials.thisN,lextail_trials.thisIndex,lextail_trials.ran,type,correct_reponse,button_real,button_false
0.0132,7.0718,0,0,0,0,1,"Este es un test de vocabulario en español. 
  
  A continuación vas a ver 90 secuencias de letras que parecen 'españolas'.
  
  Solo algunas de ellas son palabras de verdad.",(presiona la barra espaciadora para continuar),63cd760c18f08aa16c2c8a8a,001,2024-06-30_04h01.06.051,empathy_intonation_perc,2024.1.4,Win32,60.97560976,,,,,,,,,,,,,,,,,,,,,,,,,,,,,,,,,,,
7.0734,8.229,0,1,1,1,1,"Por favor, señala las palabras que tú conoces (aquellas que estás convencido que son palabras españolas, incluso aunque no seas capaz de dar el significado preciso).",(presiona la barra espaciadora para continuar),63cd760c18f08aa16c2c8a8a,001,2024-06-30_04h01.06.051,empathy_intonation_perc,2024.1.4,Win32,60.97560976,,,,,,,,,,,,,,,,,,,,,,,,,,,,,,,,,,,
8.2293,8.6961,0,2,2,2,1,Pero cuidado: los errores se penalizan. Por eso no tiene sentido tratar de incrementar tu puntuación marcando como reales palabras que nunca has visto.,(presiona la barra espaciadora para continuar),63cd760c18f08aa16c2c8a8a,001,2024-06-30_04h01.06.051,empathy_intonation_perc,2024.1.4,Win32,60.97560976,,,,,,,,,,,,,,,,,,,,,,,,,,,,,,,,,,,
8.6972,9.3623,0,3,3,3,1,"Presiona la tecla 1 si piensas que es una palabra real y la tecla 
  0 si piensas que es una palabra falsa. 
  
  Vamos a practicar un poco...",(presiona la barra espaciadora para continuar),63cd760c18f08aa16c2c8a8a,001,2024-06-30_04h01.06.051,empathy_intonation_perc,2024.1.4,Win32,60.97560976,,,,,,,,,,,,,,,,,,,,,,,,,,,,,,,,,,,
,,,,,,,,,63cd760c18f08aa16c2c8a8a,001,2024-06-30_04h01.06.051,empathy_intonation_perc,2024.1.4,Win32,60.97560976,9.3686,134.296,1,0,124.3999,,134.297,135.2929,0,0,0,0,1,0,depiste,0,REAL,FALSA,,,,,,,,,,,,,,,,,
,,,,,,,,,63cd760c18f08aa16c2c8a8a,001,2024-06-30_04h01.06.051,empathy_intonation_perc,2024.1.4,Win32,60.97560976,135.2961,139.5221,0,0,3.6919,,139.5224,140.5208,0,1,1,1,1,0,sí,1,REAL,FALSA,,,,,,,,,,,,,,,,,
,,,,,,,,,63cd760c18f08aa16c2c8a8a,001,2024-06-30_04h01.06.051,empathy_intonation_perc,2024.1.4,Win32,60.97560976,140.5231,142.6358,1,0,1.5761,,142.636,143.6351,0,2,2,2,1,0,coné,0,REAL,FALSA,,,,,,,,,,,,,,,,,
,,,,,,,,,63cd760c18f08aa16c2c8a8a,001,2024-06-30_04h01.06.051,empathy_intonation_perc,2024.1.4,Win32,60.97560976,143.6366,144.518,1,0,0.3382,,144.5182,145.5172,0,3,3,3,1,0,calpar,0,REAL,FALSA,,,,,,,,,,,,,,,,,
,,,,,,,,,63cd760c18f08aa16c2c8a8a,001,2024-06-30_04h01.06.051,empathy_intonation_perc,2024.1.4,Win32,60.97560976,145.5191,146.8159,0,1,0.7543,,146.8161,147.8151,0,4,4,4,1,0,joten,0,REAL,FALSA,,,,,,,,,,,,,,,,,
,,,,,,,,,63cd760c18f08aa16c2c8a8a,001,2024-06-30_04h01.06.051,empathy_intonation_perc,2024.1.4,Win32,60.97560976,147.8167,149.1974,0,0,0.8406,,149.1976,150.1965,0,5,5,5,1,0,sacapuntas,1,REAL,FALSA,,,,,,,,,,,,,,,,,
,,,,,,,,,63cd760c18f08aa16c2c8a8a,001,2024-06-30_04h01.06.051,empathy_intonation_perc,2024.1.4,Win32,60.97560976,150.198,153.444,0,1,2.7095,,153.4444,154.443,0,6,6,6,1,0,priba,0,REAL,FALSA,,,,,,,,,,,,,,,,,
,,,,,,,,,63cd760c18f08aa16c2c8a8a,001,2024-06-30_04h01.06.051,empathy_intonation_perc,2024.1.4,Win32,60.97560976,154.4439,156.1584,1,0,1.1784,,156.1587,157.1579,0,7,7,7,1,0,pelasula,0,REAL,FALSA,,,,,,,,,,,,,,,,,
,,,,,,,,,63cd760c18f08aa16c2c8a8a,001,2024-06-30_04h01.06.051,empathy_intonation_perc,2024.1.4,Win32,60.97560976,157.1595,158.1733,1,1,0.4768,,158.1737,159.1726,0,8,8,8,1,0,bien,1,REAL,FALSA,,,,,,,,,,,,,,,,,
,,,,,,,,,63cd760c18f08aa16c2c8a8a,001,2024-06-30_04h01.06.051,empathy_intonation_perc,2024.1.4,Win32,60.97560976,159.1735,160.2549,1,1,0.5487,,160.255,161.2547,0,9,9,9,1,0,casa,1,REAL,FALSA,,,,,,,,,,,,,,,,,
,,,,,,,,,63cd760c18f08aa16c2c8a8a,001,2024-06-30_04h01.06.051,empathy_intonation_perc,2024.1.4,Win32,60.97560976,161.2563,161.8699,0,1,0.0733,,161.87,162.8695,0,10,10,10,1,0,lejo,0,REAL,FALSA,,,,,,,,,,,,,,,,,
,,,,,,,,,63cd760c18f08aa16c2c8a8a,001,2024-06-30_04h01.06.051,empathy_intonation_perc,2024.1.4,Win32,60.97560976,162.8705,163.7029,0,1,0.2952,,163.7031,164.7015,0,11,11,11,1,0,pretantas,0,REAL,FALSA,,,,,,,,,,,,,,,,,
,,,,,,,,,63cd760c18f08aa16c2c8a8a,001,2024-06-30_04h01.06.051,empathy_intonation_perc,2024.1.4,Win32,60.97560976,,,,,,,,,,,,,,,,,,,164.7029,169.6802,,,,,,,,,,,,,,,
,,,,,,,,,63cd760c18f08aa16c2c8a8a,001,2024-06-30_04h01.06.051,empathy_intonation_perc,2024.1.4,Win32,60.97560976,,,,,,,,,,,,,,86,cuenco,,,,,,169.7102,172.0453,0,1,1.8136,,0,0,0,85,1,non_cognate,1,REAL,FALSA
,,,,,,,,,63cd760c18f08aa16c2c8a8a,001,2024-06-30_04h01.06.051,empathy_intonation_perc,2024.1.4,Win32,60.97560976,,,,,,,,,,,,,,53,punta,,,,,,172.0466,173.1101,1,0,0.5277,,0,1,1,52,1,non_cognate,1,REAL,FALSA
,,,,,,,,,63cd760c18f08aa16c2c8a8a,001,2024-06-30_04h01.06.051,empathy_intonation_perc,2024.1.4,Win32,60.97560976,,,,,,,,,,,,,,22,mango,,,,,,173.1109,174.0928,1,0,0.4521,,0,2,2,21,1,three_way_cognate,1,REAL,FALSA
,,,,,,,,,63cd760c18f08aa16c2c8a8a,001,2024-06-30_04h01.06.051,empathy_intonation_perc,2024.1.4,Win32,60.97560976,,,,,,,,,,,,,,12,dogma,,,,,,174.0939,175.7419,0,1,1.1125,,0,3,3,11,1,three_way_cognate,1,REAL,FALSA
,,,,,,,,,63cd760c18f08aa16c2c8a8a,001,2024-06-30_04h01.06.051,empathy_intonation_perc,2024.1.4,Win32,60.97560976,,,,,,,,,,,,,,130,dubo,,,,,,175.7433,177.7404,0,1,1.4629,,0,4,4,129,1,pseudoword,0,REAL,FALSA
,,,,,,,,,63cd760c18f08aa16c2c8a8a,001,2024-06-30_04h01.06.051,empathy_intonation_perc,2024.1.4,Win32,60.97560976,,,,,,,,,,,,,,173,mibro,,,,,,177.7418,178.9624,1,0,0.6886,,0,5,5,172,1,pseudoword,0,REAL,FALSA
,,,,,,,,,63cd760c18f08aa16c2c8a8a,001,2024-06-30_04h01.06.051,empathy_intonation_perc,2024.1.4,Win32,60.97560976,,,,,,,,,,,,,,152,prave,,,,,,178.9641,180.4883,0,1,0.9984,,0,6,6,151,1,pseudoword,0,REAL,FALSA
,,,,,,,,,63cd760c18f08aa16c2c8a8a,001,2024-06-30_04h01.06.051,empathy_intonation_perc,2024.1.4,Win32,60.97560976,,,,,,,,,,,,,,146,gió,,,,,,180.4921,181.9536,0,1,0.9301,,0,7,7,145,1,pseudoword,0,REAL,FALSA
,,,,,,,,,63cd760c18f08aa16c2c8a8a,001,2024-06-30_04h01.06.051,empathy_intonation_perc,2024.1.4,Win32,60.97560976,,,,,,,,,,,,,,131,fuar,,,,,,181.9554,183.0194,1,0,0.5295,,0,8,8,130,1,pseudoword,0,REAL,FALSA
,,,,,,,,,63cd760c18f08aa16c2c8a8a,001,2024-06-30_04h01.06.051,empathy_intonation_perc,2024.1.4,Win32,60.97560976,,,,,,,,,,,,,,150,cricó,,,,,,183.0207,184.0685,1,0,0.5154,,0,9,9,149,1,pseudoword,0,REAL,FALSA
,,,,,,,,,63cd760c18f08aa16c2c8a8a,001,2024-06-30_04h01.06.051,empathy_intonation_perc,2024.1.4,Win32,60.97560976,,,,,,,,,,,,,,135,panté,,,,,,184.0698,185.0843,0,1,0.48,,0,10,10,134,1,pseudoword,0,REAL,FALSA
,,,,,,,,,63cd760c18f08aa16c2c8a8a,001,2024-06-30_04h01.06.051,empathy_intonation_perc,2024.1.4,Win32,60.97560976,,,,,,,,,,,,,,69,tiza,,,,,,185.0876,186.1167,0,1,0.4955,,0,11,11,68,1,non_cognate,1,REAL,FALSA
,,,,,,,,,63cd760c18f08aa16c2c8a8a,001,2024-06-30_04h01.06.051,empathy_intonation_perc,2024.1.4,Win32,60.97560976,,,,,,,,,,,,,,92,flecha,,,,,,186.1177,187.085,0,1,0.4347,,0,12,12,91,1,non_cognate,1,REAL,FALSA
,,,,,,,,,63cd760c18f08aa16c2c8a8a,001,2024-06-30_04h01.06.051,empathy_intonation_perc,2024.1.4,Win32,60.97560976,,,,,,,,,,,,,,87,muleta,,,,,,187.0867,188.1154,0,1,0.4973,,0,13,13,86,1,non_cognate,1,REAL,FALSA
,,,,,,,,,63cd760c18f08aa16c2c8a8a,001,2024-06-30_04h01.06.051,empathy_intonation_perc,2024.1.4,Win32,60.97560976,,,,,,,,,,,,,,67,llamar,,,,,,188.1172,189,1,0,0.3475,,0,14,14,66,1,non_cognate,1,REAL,FALSA
,,,,,,,,,63cd760c18f08aa16c2c8a8a,001,2024-06-30_04h01.06.051,empathy_intonation_perc,2024.1.4,Win32,60.97560976,,,,,,,,,,,,,,138,tator,,,,,,189.0017,189.9647,1,0,0.4256,,0,15,15,137,1,pseudoword,0,REAL,FALSA
,,,,,,,,,63cd760c18f08aa16c2c8a8a,001,2024-06-30_04h01.06.051,empathy_intonation_perc,2024.1.4,Win32,60.97560976,,,,,,,,,,,,,,46,mortal,,,,,,189.9673,190.8968,1,0,0.3952,,0,16,16,45,1,two_way_cognate,1,REAL,FALSA
,,,,,,,,,63cd760c18f08aa16c2c8a8a,001,2024-06-30_04h01.06.051,empathy_intonation_perc,2024.1.4,Win32,60.97560976,,,,,,,,,,,,,,43,honor,,,,,,190.8986,191.8793,0,1,0.4447,,0,17,17,42,1,two_way_cognate,1,REAL,FALSA
,,,,,,,,,63cd760c18f08aa16c2c8a8a,001,2024-06-30_04h01.06.051,empathy_intonation_perc,2024.1.4,Win32,60.97560976,,,,,,,,,,,,,,149,emén,,,,,,191.881,193.0113,1,0,0.5929,,0,18,18,148,1,pseudoword,0,REAL,FALSA
,,,,,,,,,63cd760c18f08aa16c2c8a8a,001,2024-06-30_04h01.06.051,empathy_intonation_perc,2024.1.4,Win32,60.97560976,,,,,,,,,,,,,,28,ardor,,,,,,193.0127,193.9441,0,1,0.3911,,0,19,19,27,1,two_way_cognate,1,REAL,FALSA
,,,,,,,,,63cd760c18f08aa16c2c8a8a,001,2024-06-30_04h01.06.051,empathy_intonation_perc,2024.1.4,Win32,60.97560976,,,,,,,,,,,,,,113,nasce,,,,,,193.9454,194.9264,1,0,0.4371,,0,20,20,112,1,pseudoword,0,REAL,FALSA
,,,,,,,,,63cd760c18f08aa16c2c8a8a,001,2024-06-30_04h01.06.051,empathy_intonation_perc,2024.1.4,Win32,60.97560976,,,,,,,,,,,,,,122,boñaz,,,,,,194.9279,195.8257,0,1,0.3595,,0,21,21,121,1,pseudoword,0,REAL,FALSA
,,,,,,,,,63cd760c18f08aa16c2c8a8a,001,2024-06-30_04h01.06.051,empathy_intonation_perc,2024.1.4,Win32,60.97560976,,,,,,,,,,,,,,71,torta,,,,,,195.8273,196.7917,0,1,0.4296,,0,22,22,70,1,non_cognate,1,REAL,FALSA
,,,,,,,,,63cd760c18f08aa16c2c8a8a,001,2024-06-30_04h01.06.051,empathy_intonation_perc,2024.1.4,Win32,60.97560976,,,,,,,,,,,,,,19,mafia,,,,,,196.7933,197.6413,1,0,0.3129,,0,23,23,18,1,three_way_cognate,1,REAL,FALSA
,,,,,,,,,63cd760c18f08aa16c2c8a8a,001,2024-06-30_04h01.06.051,empathy_intonation_perc,2024.1.4,Win32,60.97560976,,,,,,,,,,,,,,177,entodo,,,,,,197.6432,198.6071,1,0,0.4291,,0,24,24,176,1,pseudoword,0,REAL,FALSA
,,,,,,,,,63cd760c18f08aa16c2c8a8a,001,2024-06-30_04h01.06.051,empathy_intonation_perc,2024.1.4,Win32,60.97560976,,,,,,,,,,,,,,90,venado,,,,,,198.6088,199.6229,1,0,0.4787,,0,25,25,89,1,non_cognate,1,REAL,FALSA
,,,,,,,,,63cd760c18f08aa16c2c8a8a,001,2024-06-30_04h01.06.051,empathy_intonation_perc,2024.1.4,Win32,60.97560976,,,,,,,,,,,,,,118,bará,,,,,,199.6256,200.7386,1,0,0.5789,,0,26,26,117,1,pseudoword,0,REAL,FALSA
,,,,,,,,,63cd760c18f08aa16c2c8a8a,001,2024-06-30_04h01.06.051,empathy_intonation_perc,2024.1.4,Win32,60.97560976,,,,,,,,,,,,,,74,ala,,,,,,200.7407,201.8043,0,1,0.5285,,0,27,27,73,1,non_cognate,1,REAL,FALSA
,,,,,,,,,63cd760c18f08aa16c2c8a8a,001,2024-06-30_04h01.06.051,empathy_intonation_perc,2024.1.4,Win32,60.97560976,,,,,,,,,,,,,,83,hálito,,,,,,201.8068,202.7881,1,0,0.4489,,0,28,28,82,1,non_cognate,1,REAL,FALSA
,,,,,,,,,63cd760c18f08aa16c2c8a8a,001,2024-06-30_04h01.06.051,empathy_intonation_perc,2024.1.4,Win32,60.97560976,,,,,,,,,,,,,,183,edioso,,,,,,202.7904,203.9025,1,0,0.5785,,0,29,29,182,1,pseudoword,0,REAL,FALSA
,,,,,,,,,63cd760c18f08aa16c2c8a8a,001,2024-06-30_04h01.06.051,empathy_intonation_perc,2024.1.4,Win32,60.97560976,,,,,,,,,,,,,,127,vien,,,,,,203.9044,204.9515,0,1,0.5131,,0,30,30,126,1,pseudoword,0,REAL,FALSA
,,,,,,,,,63cd760c18f08aa16c2c8a8a,001,2024-06-30_04h01.06.051,empathy_intonation_perc,2024.1.4,Win32,60.97560976,,,,,,,,,,,,,,49,teñir,,,,,,204.9529,206.4371,1,0,0.9505,,0,31,31,48,1,non_cognate,1,REAL,FALSA
,,,,,,,,,63cd760c18f08aa16c2c8a8a,001,2024-06-30_04h01.06.051,empathy_intonation_perc,2024.1.4,Win32,60.97560976,,,,,,,,,,,,,,96,caro,,,,,,206.439,207.433,1,0,0.4628,,0,32,32,95,1,non_cognate,1,REAL,FALSA
,,,,,,,,,63cd760c18f08aa16c2c8a8a,001,2024-06-30_04h01.06.051,empathy_intonation_perc,2024.1.4,Win32,60.97560976,,,,,,,,,,,,,,141,virios,,,,,,207.4343,208.4155,1,0,0.447,,0,33,33,140,1,pseudoword,0,REAL,FALSA
,,,,,,,,,63cd760c18f08aa16c2c8a8a,001,2024-06-30_04h01.06.051,empathy_intonation_perc,2024.1.4,Win32,60.97560976,,,,,,,,,,,,,,116,grigir,,,,,,208.4171,209.3636,1,0,0.4114,,0,34,34,115,1,pseudoword,0,REAL,FALSA
,,,,,,,,,63cd760c18f08aa16c2c8a8a,001,2024-06-30_04h01.06.051,empathy_intonation_perc,2024.1.4,Win32,60.97560976,,,,,,,,,,,,,,174,pabea,,,,,,209.3641,210.6466,1,0,0.7479,,0,35,35,173,1,pseudoword,0,REAL,FALSA
,,,,,,,,,63cd760c18f08aa16c2c8a8a,001,2024-06-30_04h01.06.051,empathy_intonation_perc,2024.1.4,Win32,60.97560976,,,,,,,,,,,,,,61,aduana,,,,,,210.648,211.5819,0,1,0.4045,,0,36,36,60,1,non_cognate,1,REAL,FALSA
,,,,,,,,,63cd760c18f08aa16c2c8a8a,001,2024-06-30_04h01.06.051,empathy_intonation_perc,2024.1.4,Win32,60.97560976,,,,,,,,,,,,,,93,tapa,,,,,,211.5841,212.7117,1,0,0.5969,,0,37,37,92,1,non_cognate,1,REAL,FALSA
,,,,,,,,,63cd760c18f08aa16c2c8a8a,001,2024-06-30_04h01.06.051,empathy_intonation_perc,2024.1.4,Win32,60.97560976,,,,,,,,,,,,,,144,diroco,,,,,,212.7131,213.86,1,0,0.6062,,0,38,38,143,1,pseudoword,0,REAL,FALSA
,,,,,,,,,63cd760c18f08aa16c2c8a8a,001,2024-06-30_04h01.06.051,empathy_intonation_perc,2024.1.4,Win32,60.97560976,,,,,,,,,,,,,,166,anfia,,,,,,213.861,214.9129,0,1,0.5207,,0,39,39,165,1,pseudoword,0,REAL,FALSA
,,,,,,,,,63cd760c18f08aa16c2c8a8a,001,2024-06-30_04h01.06.051,empathy_intonation_perc,2024.1.4,Win32,60.97560976,,,,,,,,,,,,,,111,monue,,,,,,214.9145,216.011,1,0,0.5617,,0,40,40,110,1,pseudoword,0,REAL,FALSA
,,,,,,,,,63cd760c18f08aa16c2c8a8a,001,2024-06-30_04h01.06.051,empathy_intonation_perc,2024.1.4,Win32,60.97560976,,,,,,,,,,,,,,161,civas,,,,,,216.0132,217.1083,1,0,0.5633,,0,41,41,160,1,pseudoword,0,REAL,FALSA
,,,,,,,,,63cd760c18f08aa16c2c8a8a,001,2024-06-30_04h01.06.051,empathy_intonation_perc,2024.1.4,Win32,60.97560976,,,,,,,,,,,,,,129,vinzó,,,,,,217.1103,218.3075,1,0,0.6617,,0,42,42,128,1,pseudoword,0,REAL,FALSA
,,,,,,,,,63cd760c18f08aa16c2c8a8a,001,2024-06-30_04h01.06.051,empathy_intonation_perc,2024.1.4,Win32,60.97560976,,,,,,,,,,,,,,108,jauda,,,,,,218.3095,219.525,1,0,0.6839,,0,43,43,107,1,pseudoword,0,REAL,FALSA
,,,,,,,,,63cd760c18f08aa16c2c8a8a,001,2024-06-30_04h01.06.051,empathy_intonation_perc,2024.1.4,Win32,60.97560976,,,,,,,,,,,,,,186,rizate,,,,,,219.5279,220.6393,1,0,0.5822,,0,44,44,185,1,pseudoword,0,REAL,FALSA
,,,,,,,,,63cd760c18f08aa16c2c8a8a,001,2024-06-30_04h01.06.051,empathy_intonation_perc,2024.1.4,Win32,60.97560976,,,,,,,,,,,,,,143,hurcos,,,,,,220.6401,221.6251,0,1,0.4569,,0,45,45,142,1,pseudoword,0,REAL,FALSA
,,,,,,,,,63cd760c18f08aa16c2c8a8a,001,2024-06-30_04h01.06.051,empathy_intonation_perc,2024.1.4,Win32,60.97560976,,,,,,,,,,,,,,190,asumie,,,,,,221.6268,222.7533,0,1,0.5976,,0,46,46,189,1,pseudoword,0,REAL,FALSA
,,,,,,,,,63cd760c18f08aa16c2c8a8a,001,2024-06-30_04h01.06.051,empathy_intonation_perc,2024.1.4,Win32,60.97560976,,,,,,,,,,,,,,76,chocar,,,,,,222.7551,223.8527,0,1,0.5635,,0,47,47,75,1,non_cognate,1,REAL,FALSA
,,,,,,,,,63cd760c18f08aa16c2c8a8a,001,2024-06-30_04h01.06.051,empathy_intonation_perc,2024.1.4,Win32,60.97560976,,,,,,,,,,,,,,99,bugor,,,,,,223.8541,224.9017,0,1,0.516,,0,48,48,98,1,pseudoword,0,REAL,FALSA
,,,,,,,,,63cd760c18f08aa16c2c8a8a,001,2024-06-30_04h01.06.051,empathy_intonation_perc,2024.1.4,Win32,60.97560976,,,,,,,,,,,,,,153,golla,,,,,,224.9032,225.8845,0,1,0.4446,,0,49,49,152,1,pseudoword,0,REAL,FALSA
,,,,,,,,,63cd760c18f08aa16c2c8a8a,001,2024-06-30_04h01.06.051,empathy_intonation_perc,2024.1.4,Win32,60.97560976,,,,,,,,,,,,,,164,tecia,,,,,,225.8862,226.8527,0,1,0.437,,0,50,50,163,1,pseudoword,0,REAL,FALSA
,,,,,,,,,63cd760c18f08aa16c2c8a8a,001,2024-06-30_04h01.06.051,empathy_intonation_perc,2024.1.4,Win32,60.97560976,,,,,,,,,,,,,,154,harvé,,,,,,226.8545,227.8331,1,0,0.4467,,0,51,51,153,1,pseudoword,0,REAL,FALSA
,,,,,,,,,63cd760c18f08aa16c2c8a8a,001,2024-06-30_04h01.06.051,empathy_intonation_perc,2024.1.4,Win32,60.97560976,,,,,,,,,,,,,,27,piano,,,,,,227.8349,228.8482,1,0,0.477,,0,52,52,26,1,two_way_cognate,1,REAL,FALSA
,,,,,,,,,63cd760c18f08aa16c2c8a8a,001,2024-06-30_04h01.06.051,empathy_intonation_perc,2024.1.4,Win32,60.97560976,,,,,,,,,,,,,,29,clamor,,,,,,228.8496,230.0146,1,0,0.6262,,0,53,53,28,1,two_way_cognate,1,REAL,FALSA
,,,,,,,,,63cd760c18f08aa16c2c8a8a,001,2024-06-30_04h01.06.051,empathy_intonation_perc,2024.1.4,Win32,60.97560976,,,,,,,,,,,,,,125,ceme,,,,,,230.0167,230.9465,1,0,0.4006,,0,54,54,124,1,pseudoword,0,REAL,FALSA
,,,,,,,,,63cd760c18f08aa16c2c8a8a,001,2024-06-30_04h01.06.051,empathy_intonation_perc,2024.1.4,Win32,60.97560976,,,,,,,,,,,,,,6,horror,,,,,,230.9479,231.9629,1,0,0.4815,,0,55,55,5,1,three_way_cognate,1,REAL,FALSA
,,,,,,,,,63cd760c18f08aa16c2c8a8a,001,2024-06-30_04h01.06.051,empathy_intonation_perc,2024.1.4,Win32,60.97560976,,,,,,,,,,,,,,114,dibrea,,,,,,231.9644,232.8619,1,0,0.3608,,0,56,56,113,1,pseudoword,0,REAL,FALSA
,,,,,,,,,63cd760c18f08aa16c2c8a8a,001,2024-06-30_04h01.06.051,empathy_intonation_perc,2024.1.4,Win32,60.97560976,,,,,,,,,,,,,,94,forro,,,,,,232.8633,233.8611,1,0,0.4613,,0,57,57,93,1,non_cognate,1,REAL,FALSA
,,,,,,,,,63cd760c18f08aa16c2c8a8a,001,2024-06-30_04h01.06.051,empathy_intonation_perc,2024.1.4,Win32,60.97560976,,,,,,,,,,,,,,109,laras,,,,,,233.8628,234.7939,1,0,0.3973,,0,58,58,108,1,pseudoword,0,REAL,FALSA
,,,,,,,,,63cd760c18f08aa16c2c8a8a,001,2024-06-30_04h01.06.051,empathy_intonation_perc,2024.1.4,Win32,60.97560976,,,,,,,,,,,,,,39,casual,,,,,,234.7958,235.7597,1,0,0.4289,,0,59,59,38,1,two_way_cognate,1,REAL,FALSA
,,,,,,,,,63cd760c18f08aa16c2c8a8a,001,2024-06-30_04h01.06.051,empathy_intonation_perc,2024.1.4,Win32,60.97560976,,,,,,,,,,,,,,115,lidena,,,,,,235.7614,236.7754,1,0,0.4783,,0,60,60,114,1,pseudoword,0,REAL,FALSA
,,,,,,,,,63cd760c18f08aa16c2c8a8a,001,2024-06-30_04h01.06.051,empathy_intonation_perc,2024.1.4,Win32,60.97560976,,,,,,,,,,,,,,2,tumor,,,,,,236.7773,237.6834,1,0,0.3708,,0,61,61,1,1,three_way_cognate,1,REAL,FALSA
,,,,,,,,,63cd760c18f08aa16c2c8a8a,001,2024-06-30_04h01.06.051,empathy_intonation_perc,2024.1.4,Win32,60.97560976,,,,,,,,,,,,,,63,hilo,,,,,,237.6849,238.5758,1,0,0.3665,,0,62,62,62,1,non_cognate,1,REAL,FALSA
,,,,,,,,,63cd760c18f08aa16c2c8a8a,001,2024-06-30_04h01.06.051,empathy_intonation_perc,2024.1.4,Win32,60.97560976,,,,,,,,,,,,,,110,densó,,,,,,238.5778,239.5057,1,0,0.3947,,0,63,63,109,1,pseudoword,0,REAL,FALSA
,,,,,,,,,63cd760c18f08aa16c2c8a8a,001,2024-06-30_04h01.06.051,empathy_intonation_perc,2024.1.4,Win32,60.97560976,,,,,,,,,,,,,,156,ozoso,,,,,,239.5064,240.8219,1,0,0.7793,,0,64,64,155,1,pseudoword,0,REAL,FALSA
,,,,,,,,,63cd760c18f08aa16c2c8a8a,001,2024-06-30_04h01.06.051,empathy_intonation_perc,2024.1.4,Win32,60.97560976,,,,,,,,,,,,,,124,lobe,,,,,,240.8234,241.7714,1,0,0.4128,,0,65,65,123,1,pseudoword,0,REAL,FALSA
,,,,,,,,,63cd760c18f08aa16c2c8a8a,001,2024-06-30_04h01.06.051,empathy_intonation_perc,2024.1.4,Win32,60.97560976,,,,,,,,,,,,,,32,animal,,,,,,241.7732,242.654,1,0,0.3454,,0,66,66,31,1,two_way_cognate,1,REAL,FALSA
,,,,,,,,,63cd760c18f08aa16c2c8a8a,001,2024-06-30_04h01.06.051,empathy_intonation_perc,2024.1.4,Win32,60.97560976,,,,,,,,,,,,,,107,plago,,,,,,242.6559,243.6532,0,1,0.4649,,0,67,67,106,1,pseudoword,0,REAL,FALSA
,,,,,,,,,63cd760c18f08aa16c2c8a8a,001,2024-06-30_04h01.06.051,empathy_intonation_perc,2024.1.4,Win32,60.97560976,,,,,,,,,,,,,,79,suelo,,,,,,243.6545,244.6363,1,0,0.4501,,0,68,68,78,1,non_cognate,1,REAL,FALSA
,,,,,,,,,63cd760c18f08aa16c2c8a8a,001,2024-06-30_04h01.06.051,empathy_intonation_perc,2024.1.4,Win32,60.97560976,,,,,,,,,,,,,,1,moral,,,,,,244.6375,245.6846,0,1,0.5115,,0,69,69,0,1,three_way_cognate,1,REAL,FALSA
,,,,,,,,,63cd760c18f08aa16c2c8a8a,001,2024-06-30_04h01.06.051,empathy_intonation_perc,2024.1.4,Win32,60.97560976,,,,,,,,,,,,,,59,feo,,,,,,245.6864,246.6672,1,0,0.4434,,0,70,70,58,1,non_cognate,1,REAL,FALSA
,,,,,,,,,63cd760c18f08aa16c2c8a8a,001,2024-06-30_04h01.06.051,empathy_intonation_perc,2024.1.4,Win32,60.97560976,,,,,,,,,,,,,,13,plan,,,,,,246.6689,247.7663,0,1,0.5659,,0,71,71,12,1,three_way_cognate,1,REAL,FALSA
,,,,,,,,,63cd760c18f08aa16c2c8a8a,001,2024-06-30_04h01.06.051,empathy_intonation_perc,2024.1.4,Win32,60.97560976,,,,,,,,,,,,,,44,editor,,,,,,247.768,248.8158,1,0,0.5119,,0,72,72,43,1,two_way_cognate,1,REAL,FALSA
,,,,,,,,,63cd760c18f08aa16c2c8a8a,001,2024-06-30_04h01.06.051,empathy_intonation_perc,2024.1.4,Win32,60.97560976,,,,,,,,,,,,,,77,suave,,,,,,248.8175,249.7977,1,0,0.4469,,0,73,73,76,1,non_cognate,1,REAL,FALSA
,,,,,,,,,63cd760c18f08aa16c2c8a8a,001,2024-06-30_04h01.06.051,empathy_intonation_perc,2024.1.4,Win32,60.97560976,,,,,,,,,,,,,,104,estulo,,,,,,249.7991,250.7807,1,0,0.4511,,0,74,74,103,1,pseudoword,0,REAL,FALSA
,,,,,,,,,63cd760c18f08aa16c2c8a8a,001,2024-06-30_04h01.06.051,empathy_intonation_perc,2024.1.4,Win32,60.97560976,,,,,,,,,,,,,,117,morrá,,,,,,250.7817,251.813,1,0,0.4979,,0,75,75,116,1,pseudoword,0,REAL,FALSA
,,,,,,,,,63cd760c18f08aa16c2c8a8a,001,2024-06-30_04h01.06.051,empathy_intonation_perc,2024.1.4,Win32,60.97560976,,,,,,,,,,,,,,102,coyo,,,,,,251.8144,252.8788,1,0,0.5328,,0,76,76,101,1,pseudoword,0,REAL,FALSA
,,,,,,,,,63cd760c18f08aa16c2c8a8a,001,2024-06-30_04h01.06.051,empathy_intonation_perc,2024.1.4,Win32,60.97560976,,,,,,,,,,,,,,112,samón,,,,,,252.8804,253.8781,1,0,0.4603,,0,77,77,111,1,pseudoword,0,REAL,FALSA
,,,,,,,,,63cd760c18f08aa16c2c8a8a,001,2024-06-30_04h01.06.051,empathy_intonation_perc,2024.1.4,Win32,60.97560976,,,,,,,,,,,,,,97,nocita,,,,,,253.8799,254.877,1,0,0.4635,,0,78,78,96,1,pseudoword,0,REAL,FALSA
,,,,,,,,,63cd760c18f08aa16c2c8a8a,001,2024-06-30_04h01.06.051,empathy_intonation_perc,2024.1.4,Win32,60.97560976,,,,,,,,,,,,,,189,medium,,,,,,254.8783,255.9431,1,0,0.5275,,0,79,79,188,1,pseudoword,0,REAL,FALSA
,,,,,,,,,63cd760c18f08aa16c2c8a8a,001,2024-06-30_04h01.06.051,empathy_intonation_perc,2024.1.4,Win32,60.97560976,,,,,,,,,,,,,,120,mauja,,,,,,255.944,257.0592,0,1,0.5814,,0,80,80,119,1,pseudoword,0,REAL,FALSA
,,,,,,,,,63cd760c18f08aa16c2c8a8a,001,2024-06-30_04h01.06.051,empathy_intonation_perc,2024.1.4,Win32,60.97560976,,,,,,,,,,,,,,187,nomata,,,,,,257.0609,258.0742,1,0,0.4811,,0,81,81,186,1,pseudoword,0,REAL,FALSA
,,,,,,,,,63cd760c18f08aa16c2c8a8a,001,2024-06-30_04h01.06.051,empathy_intonation_perc,2024.1.4,Win32,60.97560976,,,,,,,,,,,,,,52,blando,,,,,,258.0756,259.1408,0,1,0.5282,,0,82,82,51,1,non_cognate,1,REAL,FALSA
,,,,,,,,,63cd760c18f08aa16c2c8a8a,001,2024-06-30_04h01.06.051,empathy_intonation_perc,2024.1.4,Win32,60.97560976,,,,,,,,,,,,,,105,leniz,,,,,,259.1425,260.323,1,0,0.6464,,0,83,83,104,1,pseudoword,0,REAL,FALSA
,,,,,,,,,63cd760c18f08aa16c2c8a8a,001,2024-06-30_04h01.06.051,empathy_intonation_perc,2024.1.4,Win32,60.97560976,,,,,,,,,,,,,,70,ánimo,,,,,,260.3248,261.3384,1,0,0.4754,,0,84,84,69,1,non_cognate,1,REAL,FALSA
,,,,,,,,,63cd760c18f08aa16c2c8a8a,001,2024-06-30_04h01.06.051,empathy_intonation_perc,2024.1.4,Win32,60.97560976,,,,,,,,,,,,,,101,losco,,,,,,261.3398,262.4379,1,0,0.5626,,0,85,85,100,1,pseudoword,0,REAL,FALSA
,,,,,,,,,63cd760c18f08aa16c2c8a8a,001,2024-06-30_04h01.06.051,empathy_intonation_perc,2024.1.4,Win32,60.97560976,,,,,,,,,,,,,,20,trauma,,,,,,262.4395,263.5365,0,1,0.5632,,0,86,86,19,1,three_way_cognate,1,REAL,FALSA
,,,,,,,,,63cd760c18f08aa16c2c8a8a,001,2024-06-30_04h01.06.051,empathy_intonation_perc,2024.1.4,Win32,60.97560976,,,,,,,,,,,,,,176,gripar,,,,,,263.5381,267.2005,1,0,3.1282,,0,87,87,175,1,pseudoword,0,REAL,FALSA
,,,,,,,,,63cd760c18f08aa16c2c8a8a,001,2024-06-30_04h01.06.051,empathy_intonation_perc,2024.1.4,Win32,60.97560976,,,,,,,,,,,,,,162,cengo,,,,,,267.2024,268.2497,1,0,0.5085,,0,88,88,161,1,pseudoword,0,REAL,FALSA
,,,,,,,,,63cd760c18f08aa16c2c8a8a,001,2024-06-30_04h01.06.051,empathy_intonation_perc,2024.1.4,Win32,60.97560976,,,,,,,,,,,,,,64,rizado,,,,,,268.2515,269.1657,1,0,0.3792,,0,89,89,63,1,non_cognate,1,REAL,FALSA
,,,,,,,,,63cd760c18f08aa16c2c8a8a,001,2024-06-30_04h01.06.051,empathy_intonation_perc,2024.1.4,Win32,60.97560976,,,,,,,,,,,,,,9,portal,,,,,,269.1668,270.1644,1,0,0.4607,,0,90,90,8,1,three_way_cognate,1,REAL,FALSA
,,,,,,,,,63cd760c18f08aa16c2c8a8a,001,2024-06-30_04h01.06.051,empathy_intonation_perc,2024.1.4,Win32,60.97560976,,,,,,,,,,,,,,98,martir,,,,,,270.1657,271.2306,1,0,0.528,,0,91,91,97,1,pseudoword,0,REAL,FALSA
,,,,,,,,,63cd760c18f08aa16c2c8a8a,001,2024-06-30_04h01.06.051,empathy_intonation_perc,2024.1.4,Win32,60.97560976,,,,,,,,,,,,,,151,prías,,,,,,271.2324,272.2295,1,0,0.464,,0,92,92,150,1,pseudoword,0,REAL,FALSA
,,,,,,,,,63cd760c18f08aa16c2c8a8a,001,2024-06-30_04h01.06.051,empathy_intonation_perc,2024.1.4,Win32,60.97560976,,,,,,,,,,,,,,181,gravés,,,,,,272.2313,273.2952,1,0,0.5273,,0,93,93,180,1,pseudoword,0,REAL,FALSA
,,,,,,,,,63cd760c18f08aa16c2c8a8a,001,2024-06-30_04h01.06.051,empathy_intonation_perc,2024.1.4,Win32,60.97560976,,,,,,,,,,,,,,15,test,,,,,,273.297,274.3278,1,0,0.4941,,0,94,94,14,1,three_way_cognate,1,REAL,FALSA
,,,,,,,,,63cd760c18f08aa16c2c8a8a,001,2024-06-30_04h01.06.051,empathy_intonation_perc,2024.1.4,Win32,60.97560976,,,,,,,,,,,,,,179,suelet,,,,,,274.3293,275.3139,0,1,0.4548,,0,95,95,178,1,pseudoword,0,REAL,FALSA
,,,,,,,,,63cd760c18f08aa16c2c8a8a,001,2024-06-30_04h01.06.051,empathy_intonation_perc,2024.1.4,Win32,60.97560976,,,,,,,,,,,,,,40,pelvis,,,,,,275.3155,276.2099,1,0,0.3661,,0,96,96,39,1,two_way_cognate,1,REAL,FALSA
,,,,,,,,,63cd760c18f08aa16c2c8a8a,001,2024-06-30_04h01.06.051,empathy_intonation_perc,2024.1.4,Win32,60.97560976,,,,,,,,,,,,,,169,pitis,,,,,,276.2113,277.1591,1,0,0.4131,,0,97,97,168,1,pseudoword,0,REAL,FALSA
,,,,,,,,,63cd760c18f08aa16c2c8a8a,001,2024-06-30_04h01.06.051,empathy_intonation_perc,2024.1.4,Win32,60.97560976,,,,,,,,,,,,,,84,aviso,,,,,,277.1605,278.1411,1,0,0.4428,,0,98,98,83,1,non_cognate,1,REAL,FALSA
,,,,,,,,,63cd760c18f08aa16c2c8a8a,001,2024-06-30_04h01.06.051,empathy_intonation_perc,2024.1.4,Win32,60.97560976,,,,,,,,,,,,,,106,diebro,,,,,,278.1425,279.0938,1,0,0.4191,,0,99,99,105,1,pseudoword,0,REAL,FALSA
,,,,,,,,,63cd760c18f08aa16c2c8a8a,001,2024-06-30_04h01.06.051,empathy_intonation_perc,2024.1.4,Win32,60.97560976,,,,,,,,,,,,,,37,torso,,,,,,279.0955,280.1733,0,1,0.5505,,0,100,100,36,1,two_way_cognate,1,REAL,FALSA
,,,,,,,,,63cd760c18f08aa16c2c8a8a,001,2024-06-30_04h01.06.051,empathy_intonation_perc,2024.1.4,Win32,60.97560976,,,,,,,,,,,,,,184,huenos,,,,,,280.1744,281.0725,1,0,0.3636,,0,101,101,183,1,pseudoword,0,REAL,FALSA
,,,,,,,,,63cd760c18f08aa16c2c8a8a,001,2024-06-30_04h01.06.051,empathy_intonation_perc,2024.1.4,Win32,60.97560976,,,,,,,,,,,,,,91,equipo,,,,,,281.0742,281.9551,1,0,0.3431,,0,102,102,90,1,non_cognate,1,REAL,FALSA
,,,,,,,,,63cd760c18f08aa16c2c8a8a,001,2024-06-30_04h01.06.051,empathy_intonation_perc,2024.1.4,Win32,60.97560976,,,,,,,,,,,,,,80,cuenco,,,,,,281.9571,282.8207,1,0,0.333,,0,103,103,79,1,non_cognate,1,REAL,FALSA
,,,,,,,,,63cd760c18f08aa16c2c8a8a,001,2024-06-30_04h01.06.051,empathy_intonation_perc,2024.1.4,Win32,60.97560976,,,,,,,,,,,,,,56,pico,,,,,,282.822,283.7698,1,0,0.4157,,0,104,104,55,1,non_cognate,1,REAL,FALSA
,,,,,,,,,63cd760c18f08aa16c2c8a8a,001,2024-06-30_04h01.06.051,empathy_intonation_perc,2024.1.4,Win32,60.97560976,,,,,,,,,,,,,,81,sacar,,,,,,283.7713,284.653,1,0,0.3442,,0,105,105,80,1,non_cognate,1,REAL,FALSA
,,,,,,,,,63cd760c18f08aa16c2c8a8a,001,2024-06-30_04h01.06.051,empathy_intonation_perc,2024.1.4,Win32,60.97560976,,,,,,,,,,,,,,185,aljizo,,,,,,284.655,285.5539,0,1,0.3696,,0,106,106,184,1,pseudoword,0,REAL,FALSA
,,,,,,,,,63cd760c18f08aa16c2c8a8a,001,2024-06-30_04h01.06.051,empathy_intonation_perc,2024.1.4,Win32,60.97560976,,,,,,,,,,,,,,7,albino,,,,,,285.5556,286.5678,1,0,0.4788,,0,107,107,6,1,three_way_cognate,1,REAL,FALSA
,,,,,,,,,63cd760c18f08aa16c2c8a8a,001,2024-06-30_04h01.06.051,empathy_intonation_perc,2024.1.4,Win32,60.97560976,,,,,,,,,,,,,,51,listo,,,,,,286.5696,287.5503,1,0,0.4442,,0,108,108,50,1,non_cognate,1,REAL,FALSA
,,,,,,,,,63cd760c18f08aa16c2c8a8a,001,2024-06-30_04h01.06.051,empathy_intonation_perc,2024.1.4,Win32,60.97560976,,,,,,,,,,,,,,25,vigor,,,,,,287.5514,288.8658,1,0,0.7873,,0,109,109,24,1,two_way_cognate,1,REAL,FALSA
,,,,,,,,,63cd760c18f08aa16c2c8a8a,001,2024-06-30_04h01.06.051,empathy_intonation_perc,2024.1.4,Win32,60.97560976,,,,,,,,,,,,,,11,golf,,,,,,288.8676,289.7984,1,0,0.3994,,0,110,110,10,1,three_way_cognate,1,REAL,FALSA
,,,,,,,,,63cd760c18f08aa16c2c8a8a,001,2024-06-30_04h01.06.051,empathy_intonation_perc,2024.1.4,Win32,60.97560976,,,,,,,,,,,,,,85,enorme,,,,,,289.7999,290.7644,1,0,0.4315,,0,111,111,84,1,non_cognate,1,REAL,FALSA
,,,,,,,,,63cd760c18f08aa16c2c8a8a,001,2024-06-30_04h01.06.051,empathy_intonation_perc,2024.1.4,Win32,60.97560976,,,,,,,,,,,,,,24,retina,,,,,,290.7657,291.8134,1,0,0.5137,,0,112,112,23,1,three_way_cognate,1,REAL,FALSA
,,,,,,,,,63cd760c18f08aa16c2c8a8a,001,2024-06-30_04h01.06.051,empathy_intonation_perc,2024.1.4,Win32,60.97560976,,,,,,,,,,,,,,103,vueras,,,,,,291.8147,292.8457,1,0,0.4963,,0,113,113,102,1,pseudoword,0,REAL,FALSA
,,,,,,,,,63cd760c18f08aa16c2c8a8a,001,2024-06-30_04h01.06.051,empathy_intonation_perc,2024.1.4,Win32,60.97560976,,,,,,,,,,,,,,66,aleta,,,,,,292.8471,293.8285,1,0,0.4492,,0,114,114,65,1,non_cognate,1,REAL,FALSA
,,,,,,,,,63cd760c18f08aa16c2c8a8a,001,2024-06-30_04h01.06.051,empathy_intonation_perc,2024.1.4,Win32,60.97560976,,,,,,,,,,,,,,155,kugis,,,,,,293.8301,294.7775,1,0,0.4093,,0,115,115,154,1,pseudoword,0,REAL,FALSA
,,,,,,,,,63cd760c18f08aa16c2c8a8a,001,2024-06-30_04h01.06.051,empathy_intonation_perc,2024.1.4,Win32,60.97560976,,,,,,,,,,,,,,57,regalo,,,,,,294.7789,295.7123,1,0,0.3939,,0,116,116,56,1,non_cognate,1,REAL,FALSA
,,,,,,,,,63cd760c18f08aa16c2c8a8a,001,2024-06-30_04h01.06.051,empathy_intonation_perc,2024.1.4,Win32,60.97560976,,,,,,,,,,,,,,14,aura,,,,,,295.715,296.5941,1,0,0.3503,,0,117,117,13,1,three_way_cognate,1,REAL,FALSA
,,,,,,,,,63cd760c18f08aa16c2c8a8a,001,2024-06-30_04h01.06.051,empathy_intonation_perc,2024.1.4,Win32,60.97560976,,,,,,,,,,,,,,62,pegar,,,,,,296.5958,297.6762,1,0,0.546,,0,118,118,61,1,non_cognate,1,REAL,FALSA
,,,,,,,,,63cd760c18f08aa16c2c8a8a,001,2024-06-30_04h01.06.051,empathy_intonation_perc,2024.1.4,Win32,60.97560976,,,,,,,,,,,,,,133,conso,,,,,,297.6776,298.6745,1,0,0.4638,,0,119,119,132,1,pseudoword,0,REAL,FALSA
,,,,,,,,,63cd760c18f08aa16c2c8a8a,001,2024-06-30_04h01.06.051,empathy_intonation_perc,2024.1.4,Win32,60.97560976,,,,,,,,,,,,,,35,aurora,,,,,,298.676,299.8948,1,0,0.6891,,0,120,120,34,1,two_way_cognate,1,REAL,FALSA
,,,,,,,,,63cd760c18f08aa16c2c8a8a,001,2024-06-30_04h01.06.051,empathy_intonation_perc,2024.1.4,Win32,60.97560976,,,,,,,,,,,,,,100,épinas,,,,,,299.8963,300.7393,1,0,0.3132,,0,121,121,99,1,pseudoword,0,REAL,FALSA
,,,,,,,,,63cd760c18f08aa16c2c8a8a,001,2024-06-30_04h01.06.051,empathy_intonation_perc,2024.1.4,Win32,60.97560976,,,,,,,,,,,,,,4,flora,,,,,,300.7407,301.6886,1,0,0.4136,,0,122,122,3,1,three_way_cognate,1,REAL,FALSA
,,,,,,,,,63cd760c18f08aa16c2c8a8a,001,2024-06-30_04h01.06.051,empathy_intonation_perc,2024.1.4,Win32,60.97560976,,,,,,,,,,,,,,50,sierra,,,,,,301.6902,302.6879,1,0,0.4632,,0,123,123,49,1,non_cognate,1,REAL,FALSA
,,,,,,,,,63cd760c18f08aa16c2c8a8a,001,2024-06-30_04h01.06.051,empathy_intonation_perc,2024.1.4,Win32,60.97560976,,,,,,,,,,,,,,48,pelvis,,,,,,302.6891,303.6206,1,0,0.3933,,0,124,124,47,1,two_way_cognate,1,REAL,FALSA
,,,,,,,,,63cd760c18f08aa16c2c8a8a,001,2024-06-30_04h01.06.051,empathy_intonation_perc,2024.1.4,Win32,60.97560976,,,,,,,,,,,,,,123,arane,,,,,,303.6224,304.5031,1,0,0.3442,,0,125,125,122,1,pseudoword,0,REAL,FALSA
,,,,,,,,,63cd760c18f08aa16c2c8a8a,001,2024-06-30_04h01.06.051,empathy_intonation_perc,2024.1.4,Win32,60.97560976,,,,,,,,,,,,,,126,tobre,,,,,,304.5046,305.402,1,0,0.3627,,0,126,126,125,1,pseudoword,0,REAL,FALSA
,,,,,,,,,63cd760c18f08aa16c2c8a8a,001,2024-06-30_04h01.06.051,empathy_intonation_perc,2024.1.4,Win32,60.97560976,,,,,,,,,,,,,,191,frasis,,,,,,305.4038,306.3844,0,1,0.4509,,0,127,127,190,1,pseudoword,0,REAL,FALSA
,,,,,,,,,63cd760c18f08aa16c2c8a8a,001,2024-06-30_04h01.06.051,empathy_intonation_perc,2024.1.4,Win32,60.97560976,,,,,,,,,,,,,,38,halo,,,,,,306.3855,307.3496,1,0,0.428,,0,128,128,37,1,two_way_cognate,1,REAL,FALSA
,,,,,,,,,63cd760c18f08aa16c2c8a8a,001,2024-06-30_04h01.06.051,empathy_intonation_perc,2024.1.4,Win32,60.97560976,,,,,,,,,,,,,,163,olzan,,,,,,307.3501,308.3672,0,1,0.4822,,0,129,129,162,1,pseudoword,0,REAL,FALSA
,,,,,,,,,63cd760c18f08aa16c2c8a8a,001,2024-06-30_04h01.06.051,empathy_intonation_perc,2024.1.4,Win32,60.97560976,,,,,,,,,,,,,,95,listo,,,,,,308.3692,309.2657,1,0,0.3637,,0,130,130,94,1,non_cognate,1,REAL,FALSA
,,,,,,,,,63cd760c18f08aa16c2c8a8a,001,2024-06-30_04h01.06.051,empathy_intonation_perc,2024.1.4,Win32,60.97560976,,,,,,,,,,,,,,16,chat,,,,,,309.2673,310.2819,0,1,0.4798,,0,131,131,15,1,three_way_cognate,1,REAL,FALSA
,,,,,,,,,63cd760c18f08aa16c2c8a8a,001,2024-06-30_04h01.06.051,empathy_intonation_perc,2024.1.4,Win32,60.97560976,,,,,,,,,,,,,,82,brillo,,,,,,310.2832,311.2642,1,0,0.443,,0,132,132,81,1,non_cognate,1,REAL,FALSA
,,,,,,,,,63cd760c18f08aa16c2c8a8a,001,2024-06-30_04h01.06.051,empathy_intonation_perc,2024.1.4,Win32,60.97560976,,,,,,,,,,,,,,75,patada,,,,,,311.2655,312.2134,1,0,0.4098,,0,133,133,74,1,non_cognate,1,REAL,FALSA
,,,,,,,,,63cd760c18f08aa16c2c8a8a,001,2024-06-30_04h01.06.051,empathy_intonation_perc,2024.1.4,Win32,60.97560976,,,,,,,,,,,,,,68,puñal,,,,,,312.2149,313.196,1,0,0.4437,,0,134,134,67,1,non_cognate,1,REAL,FALSA
,,,,,,,,,63cd760c18f08aa16c2c8a8a,001,2024-06-30_04h01.06.051,empathy_intonation_perc,2024.1.4,Win32,60.97560976,,,,,,,,,,,,,,89,muñeca,,,,,,313.1977,314.1281,1,0,0.397,,0,135,135,88,1,non_cognate,1,REAL,FALSA
,,,,,,,,,63cd760c18f08aa16c2c8a8a,001,2024-06-30_04h01.06.051,empathy_intonation_perc,2024.1.4,Win32,60.97560976,,,,,,,,,,,,,,121,barbs,,,,,,314.1296,315.294,1,0,0.6297,,0,136,136,120,1,pseudoword,0,REAL,FALSA
,,,,,,,,,63cd760c18f08aa16c2c8a8a,001,2024-06-30_04h01.06.051,empathy_intonation_perc,2024.1.4,Win32,60.97560976,,,,,,,,,,,,,,139,sasos,,,,,,315.2954,316.21,1,0,0.3781,,0,137,137,138,1,pseudoword,0,REAL,FALSA
,,,,,,,,,63cd760c18f08aa16c2c8a8a,001,2024-06-30_04h01.06.051,empathy_intonation_perc,2024.1.4,Win32,60.97560976,,,,,,,,,,,,,,157,seled,,,,,,316.2116,317.1428,1,0,0.3927,,0,138,138,156,1,pseudoword,0,REAL,FALSA
,,,,,,,,,63cd760c18f08aa16c2c8a8a,001,2024-06-30_04h01.06.051,empathy_intonation_perc,2024.1.4,Win32,60.97560976,,,,,,,,,,,,,,42,rumor,,,,,,317.1451,317.975,1,0,0.2961,,0,139,139,41,1,two_way_cognate,1,REAL,FALSA
,,,,,,,,,63cd760c18f08aa16c2c8a8a,001,2024-06-30_04h01.06.051,empathy_intonation_perc,2024.1.4,Win32,60.97560976,,,,,,,,,,,,,,178,inichó,,,,,,317.9763,318.8085,1,0,0.2918,,0,140,140,177,1,pseudoword,0,REAL,FALSA
,,,,,,,,,63cd760c18f08aa16c2c8a8a,001,2024-06-30_04h01.06.051,empathy_intonation_perc,2024.1.4,Win32,60.97560976,,,,,,,,,,,,,,180,pupica,,,,,,318.8101,319.6906,1,0,0.3432,,0,141,141,179,1,pseudoword,0,REAL,FALSA
,,,,,,,,,63cd760c18f08aa16c2c8a8a,001,2024-06-30_04h01.06.051,empathy_intonation_perc,2024.1.4,Win32,60.97560976,,,,,,,,,,,,,,148,gino,,,,,,319.6928,320.723,1,0,0.4952,,0,142,142,147,1,pseudoword,0,REAL,FALSA
,,,,,,,,,63cd760c18f08aa16c2c8a8a,001,2024-06-30_04h01.06.051,empathy_intonation_perc,2024.1.4,Win32,60.97560976,,,,,,,,,,,,,,119,esís,,,,,,320.7248,321.6552,0,1,0.3951,,0,143,143,118,1,pseudoword,0,REAL,FALSA
,,,,,,,,,63cd760c18f08aa16c2c8a8a,001,2024-06-30_04h01.06.051,empathy_intonation_perc,2024.1.4,Win32,60.97560976,,,,,,,,,,,,,,65,guerra,,,,,,321.6567,322.4548,1,0,0.2639,,0,144,144,64,1,non_cognate,1,REAL,FALSA
,,,,,,,,,63cd760c18f08aa16c2c8a8a,001,2024-06-30_04h01.06.051,empathy_intonation_perc,2024.1.4,Win32,60.97560976,,,,,,,,,,,,,,55,maldad,,,,,,322.4562,323.5538,1,0,0.5667,,0,145,145,54,1,non_cognate,1,REAL,FALSA
,,,,,,,,,63cd760c18f08aa16c2c8a8a,001,2024-06-30_04h01.06.051,empathy_intonation_perc,2024.1.4,Win32,60.97560976,,,,,,,,,,,,,,45,total,,,,,,323.5546,324.5699,1,0,0.4779,,0,146,146,44,1,two_way_cognate,1,REAL,FALSA
,,,,,,,,,63cd760c18f08aa16c2c8a8a,001,2024-06-30_04h01.06.051,empathy_intonation_perc,2024.1.4,Win32,60.97560976,,,,,,,,,,,,,,60,siglo,,,,,,324.5715,325.5187,1,0,0.4155,,0,147,147,59,1,non_cognate,1,REAL,FALSA
,,,,,,,,,63cd760c18f08aa16c2c8a8a,001,2024-06-30_04h01.06.051,empathy_intonation_perc,2024.1.4,Win32,60.97560976,,,,,,,,,,,,,,78,rendir,,,,,,325.5196,326.4369,1,0,0.3841,,0,148,148,77,1,non_cognate,1,REAL,FALSA
,,,,,,,,,63cd760c18f08aa16c2c8a8a,001,2024-06-30_04h01.06.051,empathy_intonation_perc,2024.1.4,Win32,60.97560976,,,,,,,,,,,,,,41,pasta,,,,,,326.4378,327.334,1,0,0.3661,,0,149,149,40,1,two_way_cognate,1,REAL,FALSA
,,,,,,,,,63cd760c18f08aa16c2c8a8a,001,2024-06-30_04h01.06.051,empathy_intonation_perc,2024.1.4,Win32,60.97560976,,,,,,,,,,,,,,167,dobbo,,,,,,327.3354,328.2528,1,0,0.3866,,0,150,150,166,1,pseudoword,0,REAL,FALSA
,,,,,,,,,63cd760c18f08aa16c2c8a8a,001,2024-06-30_04h01.06.051,empathy_intonation_perc,2024.1.4,Win32,60.97560976,,,,,,,,,,,,,,17,clan,,,,,,328.2541,329.1662,1,0,0.3807,,0,151,151,16,1,three_way_cognate,1,REAL,FALSA
,,,,,,,,,63cd760c18f08aa16c2c8a8a,001,2024-06-30_04h01.06.051,empathy_intonation_perc,2024.1.4,Win32,60.97560976,,,,,,,,,,,,,,175,tradía,,,,,,329.1675,329.9866,1,0,0.2853,,0,152,152,174,1,pseudoword,0,REAL,FALSA
,,,,,,,,,63cd760c18f08aa16c2c8a8a,001,2024-06-30_04h01.06.051,empathy_intonation_perc,2024.1.4,Win32,60.97560976,,,,,,,,,,,,,,188,amplir,,,,,,329.9887,330.8815,1,0,0.3624,,0,153,153,187,1,pseudoword,0,REAL,FALSA
,,,,,,,,,63cd760c18f08aa16c2c8a8a,001,2024-06-30_04h01.06.051,empathy_intonation_perc,2024.1.4,Win32,60.97560976,,,,,,,,,,,,,,23,plural,,,,,,330.8832,331.8304,1,0,0.4091,,0,154,154,22,1,three_way_cognate,1,REAL,FALSA
,,,,,,,,,63cd760c18f08aa16c2c8a8a,001,2024-06-30_04h01.06.051,empathy_intonation_perc,2024.1.4,Win32,60.97560976,,,,,,,,,,,,,,54,tapón,,,,,,331.8318,332.7968,1,0,0.4277,,0,155,155,53,1,non_cognate,1,REAL,FALSA
,,,,,,,,,63cd760c18f08aa16c2c8a8a,001,2024-06-30_04h01.06.051,empathy_intonation_perc,2024.1.4,Win32,60.97560976,,,,,,,,,,,,,,26,enigma,,,,,,332.7984,333.746,1,0,0.4122,,0,156,156,25,1,two_way_cognate,1,REAL,FALSA
,,,,,,,,,63cd760c18f08aa16c2c8a8a,001,2024-06-30_04h01.06.051,empathy_intonation_perc,2024.1.4,Win32,60.97560976,,,,,,,,,,,,,,140,chorde,,,,,,333.7477,334.9279,0,1,0.6468,,0,157,157,139,1,pseudoword,0,REAL,FALSA
,,,,,,,,,63cd760c18f08aa16c2c8a8a,001,2024-06-30_04h01.06.051,empathy_intonation_perc,2024.1.4,Win32,60.97560976,,,,,,,,,,,,,,3,disco,,,,,,334.9293,335.8608,1,0,0.3948,,0,158,158,2,1,three_way_cognate,1,REAL,FALSA
,,,,,,,,,63cd760c18f08aa16c2c8a8a,001,2024-06-30_04h01.06.051,empathy_intonation_perc,2024.1.4,Win32,60.97560976,,,,,,,,,,,,,,136,hueas,,,,,,335.8616,337.8266,1,0,1.4327,,0,159,159,135,1,pseudoword,0,REAL,FALSA
,,,,,,,,,63cd760c18f08aa16c2c8a8a,001,2024-06-30_04h01.06.051,empathy_intonation_perc,2024.1.4,Win32,60.97560976,,,,,,,,,,,,,,147,alla,,,,,,337.8323,338.8439,1,0,0.4863,,0,160,160,146,1,pseudoword,0,REAL,FALSA
,,,,,,,,,63cd760c18f08aa16c2c8a8a,001,2024-06-30_04h01.06.051,empathy_intonation_perc,2024.1.4,Win32,60.97560976,,,,,,,,,,,,,,31,civil,,,,,,338.8446,339.724,1,0,0.3441,,0,161,161,30,1,two_way_cognate,1,REAL,FALSA
,,,,,,,,,63cd760c18f08aa16c2c8a8a,001,2024-06-30_04h01.06.051,empathy_intonation_perc,2024.1.4,Win32,60.97560976,,,,,,,,,,,,,,33,collar,,,,,,339.7254,340.6756,0,1,0.4185,,0,162,162,32,1,two_way_cognate,1,REAL,FALSA
,,,,,,,,,63cd760c18f08aa16c2c8a8a,001,2024-06-30_04h01.06.051,empathy_intonation_perc,2024.1.4,Win32,60.97560976,,,,,,,,,,,,,,8,kilo,,,,,,340.6769,341.2726,1,0,0.0615,,0,163,163,7,1,three_way_cognate,1,REAL,FALSA
,,,,,,,,,63cd760c18f08aa16c2c8a8a,001,2024-06-30_04h01.06.051,empathy_intonation_perc,2024.1.4,Win32,60.97560976,,,,,,,,,,,,,,159,trcia,,,,,,341.2741,342.3718,0,1,0.5655,,0,164,164,158,1,pseudoword,0,REAL,FALSA
,,,,,,,,,63cd760c18f08aa16c2c8a8a,001,2024-06-30_04h01.06.051,empathy_intonation_perc,2024.1.4,Win32,60.97560976,,,,,,,,,,,,,,182,desaro,,,,,,342.373,342.9226,0,1,0.0155,,0,165,165,181,1,pseudoword,0,REAL,FALSA
,,,,,,,,,63cd760c18f08aa16c2c8a8a,001,2024-06-30_04h01.06.051,empathy_intonation_perc,2024.1.4,Win32,60.97560976,,,,,,,,,,,,,,132,nocó,,,,,,342.9242,343.4878,0,1,0.0297,,0,166,166,131,1,pseudoword,0,REAL,FALSA
,,,,,,,,,63cd760c18f08aa16c2c8a8a,001,2024-06-30_04h01.06.051,empathy_intonation_perc,2024.1.4,Win32,60.97560976,,,,,,,,,,,,,,18,altar,,,,,,343.4894,352.5914,0,1,8.5705,,0,167,167,17,1,three_way_cognate,1,REAL,FALSA
,,,,,,,,,63cd760c18f08aa16c2c8a8a,001,2024-06-30_04h01.06.051,empathy_intonation_perc,2024.1.4,Win32,60.97560976,,,,,,,,,,,,,,72,rostro,,,,,,352.5929,353.2549,0,1,0.1289,,0,168,168,71,1,non_cognate,1,REAL,FALSA
,,,,,,,,,63cd760c18f08aa16c2c8a8a,001,2024-06-30_04h01.06.051,empathy_intonation_perc,2024.1.4,Win32,60.97560976,,,,,,,,,,,,,,73,llevar,,,,,,353.2621,354.1022,0,1,0.3111,,0,169,169,72,1,non_cognate,1,REAL,FALSA
,,,,,,,,,63cd760c18f08aa16c2c8a8a,001,2024-06-30_04h01.06.051,empathy_intonation_perc,2024.1.4,Win32,60.97560976,,,,,,,,,,,,,,34,actor,,,,,,354.1025,354.7694,1,0,0.1479,,0,170,170,33,1,two_way_cognate,1,REAL,FALSA
,,,,,,,,,63cd760c18f08aa16c2c8a8a,001,2024-06-30_04h01.06.051,empathy_intonation_perc,2024.1.4,Win32,60.97560976,,,,,,,,,,,,,,5,extra,,,,,,354.7707,355.7519,0,1,0.4465,,0,171,171,4,1,three_way_cognate,1,REAL,FALSA
,,,,,,,,,63cd760c18f08aa16c2c8a8a,001,2024-06-30_04h01.06.051,empathy_intonation_perc,2024.1.4,Win32,60.97560976,,,,,,,,,,,,,,10,drama,,,,,,355.7532,356.5182,1,0,0.2302,,0,172,172,9,1,three_way_cognate,1,REAL,FALSA
,,,,,,,,,63cd760c18f08aa16c2c8a8a,001,2024-06-30_04h01.06.051,empathy_intonation_perc,2024.1.4,Win32,60.97560976,,,,,,,,,,,,,,145,rúo,,,,,,356.5194,357.6004,0,1,0.5442,,0,173,173,144,1,pseudoword,0,REAL,FALSA
,,,,,,,,,63cd760c18f08aa16c2c8a8a,001,2024-06-30_04h01.06.051,empathy_intonation_perc,2024.1.4,Win32,60.97560976,,,,,,,,,,,,,,36,viable,,,,,,357.6019,358.5494,0,1,0.4106,,0,174,174,35,1,two_way_cognate,1,REAL,FALSA
,,,,,,,,,63cd760c18f08aa16c2c8a8a,001,2024-06-30_04h01.06.051,empathy_intonation_perc,2024.1.4,Win32,60.97560976,,,,,,,,,,,,,,137,trugo,,,,,,358.5507,359.3323,0,1,0.2465,,0,175,175,136,1,pseudoword,0,REAL,FALSA
,,,,,,,,,63cd760c18f08aa16c2c8a8a,001,2024-06-30_04h01.06.051,empathy_intonation_perc,2024.1.4,Win32,60.97560976,,,,,,,,,,,,,,170,diabo,,,,,,359.334,360.2812,0,1,0.4123,,0,176,176,169,1,pseudoword,0,REAL,FALSA
,,,,,,,,,63cd760c18f08aa16c2c8a8a,001,2024-06-30_04h01.06.051,empathy_intonation_perc,2024.1.4,Win32,60.97560976,,,,,,,,,,,,,,88,percha,,,,,,360.2825,362.4456,1,0,1.6325,,0,177,177,87,1,non_cognate,1,REAL,FALSA
,,,,,,,,,63cd760c18f08aa16c2c8a8a,001,2024-06-30_04h01.06.051,empathy_intonation_perc,2024.1.4,Win32,60.97560976,,,,,,,,,,,,,,47,color,,,,,,362.4462,364.1447,1,0,1.1602,,0,178,178,46,1,two_way_cognate,1,REAL,FALSA
,,,,,,,,,63cd760c18f08aa16c2c8a8a,001,2024-06-30_04h01.06.051,empathy_intonation_perc,2024.1.4,Win32,60.97560976,,,,,,,,,,,,,,21,hotel,,,,,,364.1459,366.7091,1,0,2.0284,,0,179,179,20,1,three_way_cognate,1,REAL,FALSA
,,,,,,,,,63cd760c18f08aa16c2c8a8a,001,2024-06-30_04h01.06.051,empathy_intonation_perc,2024.1.4,Win32,60.97560976,,,,,,,,,,,,,,171,gotro,,,,,,366.7103,367.8076,0,1,0.5651,,0,180,180,170,1,pseudoword,0,REAL,FALSA
,,,,,,,,,63cd760c18f08aa16c2c8a8a,001,2024-06-30_04h01.06.051,empathy_intonation_perc,2024.1.4,Win32,60.97560976,,,,,,,,,,,,,,30,fiscal,,,,,,367.8081,368.7245,1,0,0.382,,0,181,181,29,1,two_way_cognate,1,REAL,FALSA
,,,,,,,,,63cd760c18f08aa16c2c8a8a,001,2024-06-30_04h01.06.051,empathy_intonation_perc,2024.1.4,Win32,60.97560976,,,,,,,,,,,,,,172,dogue,,,,,,368.7258,369.4235,1,0,0.1583,,0,182,182,171,1,pseudoword,0,REAL,FALSA
,,,,,,,,,63cd760c18f08aa16c2c8a8a,001,2024-06-30_04h01.06.051,empathy_intonation_perc,2024.1.4,Win32,60.97560976,,,,,,,,,,,,,,128,pelí,,,,,,369.4245,370.1732,1,0,0.213,,0,183,183,127,1,pseudoword,0,REAL,FALSA
,,,,,,,,,63cd760c18f08aa16c2c8a8a,001,2024-06-30_04h01.06.051,empathy_intonation_perc,2024.1.4,Win32,60.97560976,,,,,,,,,,,,,,168,cobén,,,,,,370.1744,370.9893,1,0,0.2809,,0,184,184,167,1,pseudoword,0,REAL,FALSA
,,,,,,,,,63cd760c18f08aa16c2c8a8a,001,2024-06-30_04h01.06.051,empathy_intonation_perc,2024.1.4,Win32,60.97560976,,,,,,,,,,,,,,165,chote,,,,,,370.9907,371.8887,1,0,0.3655,,0,185,185,164,1,pseudoword,0,REAL,FALSA
,,,,,,,,,63cd760c18f08aa16c2c8a8a,001,2024-06-30_04h01.06.051,empathy_intonation_perc,2024.1.4,Win32,60.97560976,,,,,,,,,,,,,,192,próces,,,,,,371.8903,372.9379,1,0,0.5106,,0,186,186,191,1,pseudoword,0,REAL,FALSA
,,,,,,,,,63cd760c18f08aa16c2c8a8a,001,2024-06-30_04h01.06.051,empathy_intonation_perc,2024.1.4,Win32,60.97560976,,,,,,,,,,,,,,160,fomeó,,,,,,372.9392,374.204,1,0,0.7294,,0,187,187,159,1,pseudoword,0,REAL,FALSA
,,,,,,,,,63cd760c18f08aa16c2c8a8a,001,2024-06-30_04h01.06.051,empathy_intonation_perc,2024.1.4,Win32,60.97560976,,,,,,,,,,,,,,58,colcha,,,,,,374.2051,375.0525,1,0,0.3127,,0,188,188,57,1,non_cognate,1,REAL,FALSA
,,,,,,,,,63cd760c18f08aa16c2c8a8a,001,2024-06-30_04h01.06.051,empathy_intonation_perc,2024.1.4,Win32,60.97560976,,,,,,,,,,,,,,158,babrá,,,,,,375.0539,375.985,0,1,0.3942,,0,189,189,157,1,pseudoword,0,REAL,FALSA
,,,,,,,,,63cd760c18f08aa16c2c8a8a,001,2024-06-30_04h01.06.051,empathy_intonation_perc,2024.1.4,Win32,60.97560976,,,,,,,,,,,,,,142,parre,,,,,,375.9862,376.8676,1,0,0.3487,,0,190,190,141,1,pseudoword,0,REAL,FALSA
,,,,,,,,,63cd760c18f08aa16c2c8a8a,001,2024-06-30_04h01.06.051,empathy_intonation_perc,2024.1.4,Win32,60.97560976,,,,,,,,,,,,,,134,molor,,,,,,376.8699,378.5669,0,1,1.1617,,0,191,191,133,1,pseudoword,0,REAL,FALSA
