lextale_instructions.started,lextale_instructions.stopped,lextale_instructions_loop.thisRepN,lextale_instructions_loop.thisTrialN,lextale_instructions_loop.thisN,lextale_instructions_loop.thisIndex,lextale_instructions_loop.ran,instructions_text,continue_text,participant,session,date,expName,psychopyVersion,OS,frameRate,lextale_practice.started,lextale_practice.stopped,key_resp_lextale_practice.keys,key_resp_lextale_practice.corr,key_resp_lextale_practice.rt,key_resp_lextale_practice.duration,lextale_practice_feedback.started,lextale_practice_feedback.stopped,lextale_practice_trials.thisRepN,lextale_practice_trials.thisTrialN,lextale_practice_trials.thisN,lextale_practice_trials.thisIndex,lextale_practice_trials.ran,stim,word,correct_response,prac_button_real,prac_button_false,lextale_check.started,lextale_check.stopped,lextale_trial.started,lextale_trial.stopped,key_resp_lextale_trial.keys,key_resp_lextale_trial.corr,key_resp_lextale_trial.rt,key_resp_lextale_trial.duration,lextail_trials.thisRepN,lextail_trials.thisTrialN,lextail_trials.thisN,lextail_trials.thisIndex,lextail_trials.ran,type,correct_reponse,button_real,button_false
0.0049,6.6296,0,0,0,0,1,"Este es un test de vocabulario en español. 
  
  A continuación vas a ver 90 secuencias de letras que parecen 'españolas'.
  
  Solo algunas de ellas son palabras de verdad.",(presiona la barra espaciadora para continuar),6445b89361755459d55f2ee2,001,2024-06-30_06h04.47.937,empathy_intonation_perc,2024.1.4,Win32,59.88023952,,,,,,,,,,,,,,,,,,,,,,,,,,,,,,,,,,,
6.6302,12.6762,0,1,1,1,1,"Por favor, señala las palabras que tú conoces (aquellas que estás convencido que son palabras españolas, incluso aunque no seas capaz de dar el significado preciso).",(presiona la barra espaciadora para continuar),6445b89361755459d55f2ee2,001,2024-06-30_06h04.47.937,empathy_intonation_perc,2024.1.4,Win32,59.88023952,,,,,,,,,,,,,,,,,,,,,,,,,,,,,,,,,,,
12.6767,18.7901,0,2,2,2,1,Pero cuidado: los errores se penalizan. Por eso no tiene sentido tratar de incrementar tu puntuación marcando como reales palabras que nunca has visto.,(presiona la barra espaciadora para continuar),6445b89361755459d55f2ee2,001,2024-06-30_06h04.47.937,empathy_intonation_perc,2024.1.4,Win32,59.88023952,,,,,,,,,,,,,,,,,,,,,,,,,,,,,,,,,,,
18.7906,24.3368,0,3,3,3,1,"Presiona la tecla 1 si piensas que es una palabra real y la tecla 
  0 si piensas que es una palabra falsa. 
  
  Vamos a practicar un poco...",(presiona la barra espaciadora para continuar),6445b89361755459d55f2ee2,001,2024-06-30_06h04.47.937,empathy_intonation_perc,2024.1.4,Win32,59.88023952,,,,,,,,,,,,,,,,,,,,,,,,,,,,,,,,,,,
,,,,,,,,,6445b89361755459d55f2ee2,001,2024-06-30_06h04.47.937,empathy_intonation_perc,2024.1.4,Win32,59.88023952,24.3403,26.9035,0,1,2.0178,,26.904,27.9027,0,0,0,0,1,0,depiste,0,REAL,FALSA,,,,,,,,,,,,,,,,,
,,,,,,,,,6445b89361755459d55f2ee2,001,2024-06-30_06h04.47.937,empathy_intonation_perc,2024.1.4,Win32,59.88023952,27.9038,29.6681,1,1,1.2183,,29.6683,30.6671,0,1,1,1,1,0,sí,1,REAL,FALSA,,,,,,,,,,,,,,,,,
,,,,,,,,,6445b89361755459d55f2ee2,001,2024-06-30_06h04.47.937,empathy_intonation_perc,2024.1.4,Win32,59.88023952,30.6676,32.8665,0,1,1.6556,,32.8665,33.8658,0,2,2,2,1,0,coné,0,REAL,FALSA,,,,,,,,,,,,,,,,,
,,,,,,,,,6445b89361755459d55f2ee2,001,2024-06-30_06h04.47.937,empathy_intonation_perc,2024.1.4,Win32,59.88023952,33.8665,35.482,0,1,1.071,,35.4821,36.4813,0,3,3,3,1,0,calpar,0,REAL,FALSA,,,,,,,,,,,,,,,,,
,,,,,,,,,6445b89361755459d55f2ee2,001,2024-06-30_06h04.47.937,empathy_intonation_perc,2024.1.4,Win32,59.88023952,36.4819,38.1971,0,1,1.1682,,38.1972,39.1968,0,4,4,4,1,0,joten,0,REAL,FALSA,,,,,,,,,,,,,,,,,
,,,,,,,,,6445b89361755459d55f2ee2,001,2024-06-30_06h04.47.937,empathy_intonation_perc,2024.1.4,Win32,59.88023952,39.1974,40.9628,1,1,1.2178,,40.9629,41.9619,0,5,5,5,1,0,sacapuntas,1,REAL,FALSA,,,,,,,,,,,,,,,,,
,,,,,,,,,6445b89361755459d55f2ee2,001,2024-06-30_06h04.47.937,empathy_intonation_perc,2024.1.4,Win32,59.88023952,41.9625,43.678,0,1,1.1679,,43.6781,44.6774,0,6,6,6,1,0,priba,0,REAL,FALSA,,,,,,,,,,,,,,,,,
,,,,,,,,,6445b89361755459d55f2ee2,001,2024-06-30_06h04.47.937,empathy_intonation_perc,2024.1.4,Win32,59.88023952,44.6783,46.6098,0,1,1.3843,,46.6099,47.6091,0,7,7,7,1,0,pelasula,0,REAL,FALSA,,,,,,,,,,,,,,,,,
,,,,,,,,,6445b89361755459d55f2ee2,001,2024-06-30_06h04.47.937,empathy_intonation_perc,2024.1.4,Win32,59.88023952,47.6098,49.1591,1,1,1.0038,,49.1592,50.1578,0,8,8,8,1,0,bien,1,REAL,FALSA,,,,,,,,,,,,,,,,,
,,,,,,,,,6445b89361755459d55f2ee2,001,2024-06-30_06h04.47.937,empathy_intonation_perc,2024.1.4,Win32,59.88023952,50.1584,51.69,1,1,0.9911,,51.6901,52.6895,0,9,9,9,1,0,casa,1,REAL,FALSA,,,,,,,,,,,,,,,,,
,,,,,,,,,6445b89361755459d55f2ee2,001,2024-06-30_06h04.47.937,empathy_intonation_perc,2024.1.4,Win32,59.88023952,52.6898,55.5715,1,0,2.3327,,55.5715,56.5716,0,10,10,10,1,0,lejo,0,REAL,FALSA,,,,,,,,,,,,,,,,,
,,,,,,,,,6445b89361755459d55f2ee2,001,2024-06-30_06h04.47.937,empathy_intonation_perc,2024.1.4,Win32,59.88023952,56.5996,58.504,0,1,1.3835,,58.5042,59.5032,0,11,11,11,1,0,pretantas,0,REAL,FALSA,,,,,,,,,,,,,,,,,
,,,,,,,,,6445b89361755459d55f2ee2,001,2024-06-30_06h04.47.937,empathy_intonation_perc,2024.1.4,Win32,59.88023952,,,,,,,,,,,,,,,,,,,59.5044,61.3862,,,,,,,,,,,,,,,
,,,,,,,,,6445b89361755459d55f2ee2,001,2024-06-30_06h04.47.937,empathy_intonation_perc,2024.1.4,Win32,59.88023952,,,,,,,,,,,,,,21,hotel,,,,,,61.4251,63.9851,1,0,2.0172,,0,0,0,20,1,three_way_cognate,1,REAL,FALSA
,,,,,,,,,6445b89361755459d55f2ee2,001,2024-06-30_06h04.47.937,empathy_intonation_perc,2024.1.4,Win32,59.88023952,,,,,,,,,,,,,,52,blando,,,,,,63.9861,65.8171,0,1,1.2889,,0,1,1,51,1,non_cognate,1,REAL,FALSA
,,,,,,,,,6445b89361755459d55f2ee2,001,2024-06-30_06h04.47.937,empathy_intonation_perc,2024.1.4,Win32,59.88023952,,,,,,,,,,,,,,149,emén,,,,,,65.8178,68.3153,0,1,1.9488,,0,2,2,148,1,pseudoword,0,REAL,FALSA
,,,,,,,,,6445b89361755459d55f2ee2,001,2024-06-30_06h04.47.937,empathy_intonation_perc,2024.1.4,Win32,59.88023952,,,,,,,,,,,,,,143,hurcos,,,,,,68.3365,69.7316,0,1,0.8499,,0,3,3,142,1,pseudoword,0,REAL,FALSA
,,,,,,,,,6445b89361755459d55f2ee2,001,2024-06-30_06h04.47.937,empathy_intonation_perc,2024.1.4,Win32,59.88023952,,,,,,,,,,,,,,4,flora,,,,,,69.732,71.4475,1,0,1.1745,,0,4,4,3,1,three_way_cognate,1,REAL,FALSA
,,,,,,,,,6445b89361755459d55f2ee2,001,2024-06-30_06h04.47.937,empathy_intonation_perc,2024.1.4,Win32,59.88023952,,,,,,,,,,,,,,182,desaro,,,,,,71.4482,72.797,0,1,0.8053,,0,5,5,181,1,pseudoword,0,REAL,FALSA
,,,,,,,,,6445b89361755459d55f2ee2,001,2024-06-30_06h04.47.937,empathy_intonation_perc,2024.1.4,Win32,59.88023952,,,,,,,,,,,,,,102,coyo,,,,,,72.7978,75.1291,0,1,1.7848,,0,6,6,101,1,pseudoword,0,REAL,FALSA
,,,,,,,,,6445b89361755459d55f2ee2,001,2024-06-30_06h04.47.937,empathy_intonation_perc,2024.1.4,Win32,59.88023952,,,,,,,,,,,,,,67,llamar,,,,,,75.1297,76.3944,1,0,0.7227,,0,7,7,66,1,non_cognate,1,REAL,FALSA
,,,,,,,,,6445b89361755459d55f2ee2,001,2024-06-30_06h04.47.937,empathy_intonation_perc,2024.1.4,Win32,59.88023952,,,,,,,,,,,,,,168,cobén,,,,,,76.3948,77.6276,0,1,0.6934,,0,8,8,167,1,pseudoword,0,REAL,FALSA
,,,,,,,,,6445b89361755459d55f2ee2,001,2024-06-30_06h04.47.937,empathy_intonation_perc,2024.1.4,Win32,59.88023952,,,,,,,,,,,,,,45,total,,,,,,77.6282,78.9604,1,0,0.7848,,0,9,9,44,1,two_way_cognate,1,REAL,FALSA
,,,,,,,,,6445b89361755459d55f2ee2,001,2024-06-30_06h04.47.937,empathy_intonation_perc,2024.1.4,Win32,59.88023952,,,,,,,,,,,,,,136,hueas,,,,,,78.961,80.293,0,1,0.793,,0,10,10,135,1,pseudoword,0,REAL,FALSA
,,,,,,,,,6445b89361755459d55f2ee2,001,2024-06-30_06h04.47.937,empathy_intonation_perc,2024.1.4,Win32,59.88023952,,,,,,,,,,,,,,55,maldad,,,,,,80.2936,81.9587,1,0,1.1178,,0,11,11,54,1,non_cognate,1,REAL,FALSA
,,,,,,,,,6445b89361755459d55f2ee2,001,2024-06-30_06h04.47.937,empathy_intonation_perc,2024.1.4,Win32,59.88023952,,,,,,,,,,,,,,180,pupica,,,,,,81.9593,83.325,0,1,0.8164,,0,12,12,179,1,pseudoword,0,REAL,FALSA
,,,,,,,,,6445b89361755459d55f2ee2,001,2024-06-30_06h04.47.937,empathy_intonation_perc,2024.1.4,Win32,59.88023952,,,,,,,,,,,,,,155,kugis,,,,,,83.3256,84.5911,0,1,0.7182,,0,13,13,154,1,pseudoword,0,REAL,FALSA
,,,,,,,,,6445b89361755459d55f2ee2,001,2024-06-30_06h04.47.937,empathy_intonation_perc,2024.1.4,Win32,59.88023952,,,,,,,,,,,,,,72,rostro,,,,,,84.5919,86.5228,1,0,1.3892,,0,14,14,71,1,non_cognate,1,REAL,FALSA
,,,,,,,,,6445b89361755459d55f2ee2,001,2024-06-30_06h04.47.937,empathy_intonation_perc,2024.1.4,Win32,59.88023952,,,,,,,,,,,,,,183,edioso,,,,,,86.5232,87.9898,0,1,0.928,,0,15,15,182,1,pseudoword,0,REAL,FALSA
,,,,,,,,,6445b89361755459d55f2ee2,001,2024-06-30_06h04.47.937,empathy_intonation_perc,2024.1.4,Win32,59.88023952,,,,,,,,,,,,,,68,puñal,,,,,,87.9907,91.5543,1,0,3.018,,0,16,16,67,1,non_cognate,1,REAL,FALSA
,,,,,,,,,6445b89361755459d55f2ee2,001,2024-06-30_06h04.47.937,empathy_intonation_perc,2024.1.4,Win32,59.88023952,,,,,,,,,,,,,,186,rizate,,,,,,91.5883,92.8204,0,1,0.6899,,0,17,17,185,1,pseudoword,0,REAL,FALSA
,,,,,,,,,6445b89361755459d55f2ee2,001,2024-06-30_06h04.47.937,empathy_intonation_perc,2024.1.4,Win32,59.88023952,,,,,,,,,,,,,,167,dobbo,,,,,,92.8211,94.0197,0,1,0.6557,,0,18,18,166,1,pseudoword,0,REAL,FALSA
,,,,,,,,,6445b89361755459d55f2ee2,001,2024-06-30_06h04.47.937,empathy_intonation_perc,2024.1.4,Win32,59.88023952,,,,,,,,,,,,,,23,plural,,,,,,94.0203,95.3687,1,0,0.8095,,0,19,19,22,1,three_way_cognate,1,REAL,FALSA
,,,,,,,,,6445b89361755459d55f2ee2,001,2024-06-30_06h04.47.937,empathy_intonation_perc,2024.1.4,Win32,59.88023952,,,,,,,,,,,,,,123,arane,,,,,,95.3693,96.5519,0,1,0.6412,,0,20,20,122,1,pseudoword,0,REAL,FALSA
,,,,,,,,,6445b89361755459d55f2ee2,001,2024-06-30_06h04.47.937,empathy_intonation_perc,2024.1.4,Win32,59.88023952,,,,,,,,,,,,,,172,dogue,,,,,,96.5526,97.751,0,1,0.6521,,0,21,21,171,1,pseudoword,0,REAL,FALSA
,,,,,,,,,6445b89361755459d55f2ee2,001,2024-06-30_06h04.47.937,empathy_intonation_perc,2024.1.4,Win32,59.88023952,,,,,,,,,,,,,,161,civas,,,,,,97.7517,99.0174,0,1,0.7228,,0,22,22,160,1,pseudoword,0,REAL,FALSA
,,,,,,,,,6445b89361755459d55f2ee2,001,2024-06-30_06h04.47.937,empathy_intonation_perc,2024.1.4,Win32,59.88023952,,,,,,,,,,,,,,150,cricó,,,,,,99.018,100.5496,0,1,0.9895,,0,23,23,149,1,pseudoword,0,REAL,FALSA
,,,,,,,,,6445b89361755459d55f2ee2,001,2024-06-30_06h04.47.937,empathy_intonation_perc,2024.1.4,Win32,59.88023952,,,,,,,,,,,,,,108,jauda,,,,,,100.5502,102.2491,0,1,1.1533,,0,24,24,107,1,pseudoword,0,REAL,FALSA
,,,,,,,,,6445b89361755459d55f2ee2,001,2024-06-30_06h04.47.937,empathy_intonation_perc,2024.1.4,Win32,59.88023952,,,,,,,,,,,,,,75,patada,,,,,,102.2498,104.7305,1,0,1.9366,,0,25,25,74,1,non_cognate,1,REAL,FALSA
,,,,,,,,,6445b89361755459d55f2ee2,001,2024-06-30_06h04.47.937,empathy_intonation_perc,2024.1.4,Win32,59.88023952,,,,,,,,,,,,,,119,esís,,,,,,104.7307,105.9304,0,1,0.6761,,0,26,26,118,1,pseudoword,0,REAL,FALSA
,,,,,,,,,6445b89361755459d55f2ee2,001,2024-06-30_06h04.47.937,empathy_intonation_perc,2024.1.4,Win32,59.88023952,,,,,,,,,,,,,,64,rizado,,,,,,105.9311,108.3792,1,0,1.9064,,0,27,27,63,1,non_cognate,1,REAL,FALSA
,,,,,,,,,6445b89361755459d55f2ee2,001,2024-06-30_06h04.47.937,empathy_intonation_perc,2024.1.4,Win32,59.88023952,,,,,,,,,,,,,,163,olzan,,,,,,108.4042,109.5948,0,1,0.6584,,0,28,28,162,1,pseudoword,0,REAL,FALSA
,,,,,,,,,6445b89361755459d55f2ee2,001,2024-06-30_06h04.47.937,empathy_intonation_perc,2024.1.4,Win32,59.88023952,,,,,,,,,,,,,,131,fuar,,,,,,109.5959,110.8775,0,1,0.7339,,0,29,29,130,1,pseudoword,0,REAL,FALSA
,,,,,,,,,6445b89361755459d55f2ee2,001,2024-06-30_06h04.47.937,empathy_intonation_perc,2024.1.4,Win32,59.88023952,,,,,,,,,,,,,,42,rumor,,,,,,110.878,112.1774,1,0,0.7534,,0,30,30,41,1,two_way_cognate,1,REAL,FALSA
,,,,,,,,,6445b89361755459d55f2ee2,001,2024-06-30_06h04.47.937,empathy_intonation_perc,2024.1.4,Win32,59.88023952,,,,,,,,,,,,,,63,hilo,,,,,,112.1782,113.6601,1,0,0.9363,,0,31,31,62,1,non_cognate,1,REAL,FALSA
,,,,,,,,,6445b89361755459d55f2ee2,001,2024-06-30_06h04.47.937,empathy_intonation_perc,2024.1.4,Win32,59.88023952,,,,,,,,,,,,,,104,estulo,,,,,,113.6608,115.026,0,1,0.8257,,0,32,32,103,1,pseudoword,0,REAL,FALSA
,,,,,,,,,6445b89361755459d55f2ee2,001,2024-06-30_06h04.47.937,empathy_intonation_perc,2024.1.4,Win32,59.88023952,,,,,,,,,,,,,,83,hálito,,,,,,115.0266,116.4754,0,1,0.9019,,0,33,33,82,1,non_cognate,1,REAL,FALSA
,,,,,,,,,6445b89361755459d55f2ee2,001,2024-06-30_06h04.47.937,empathy_intonation_perc,2024.1.4,Win32,59.88023952,,,,,,,,,,,,,,121,barbs,,,,,,116.4761,117.9245,0,1,0.9019,,0,34,34,120,1,pseudoword,0,REAL,FALSA
,,,,,,,,,6445b89361755459d55f2ee2,001,2024-06-30_06h04.47.937,empathy_intonation_perc,2024.1.4,Win32,59.88023952,,,,,,,,,,,,,,139,sasos,,,,,,117.9251,119.3737,0,1,0.9077,,0,35,35,138,1,pseudoword,0,REAL,FALSA
,,,,,,,,,6445b89361755459d55f2ee2,001,2024-06-30_06h04.47.937,empathy_intonation_perc,2024.1.4,Win32,59.88023952,,,,,,,,,,,,,,15,test,,,,,,119.3744,120.7902,0,1,0.8779,,0,36,36,14,1,three_way_cognate,1,REAL,FALSA
,,,,,,,,,6445b89361755459d55f2ee2,001,2024-06-30_06h04.47.937,empathy_intonation_perc,2024.1.4,Win32,59.88023952,,,,,,,,,,,,,,56,pico,,,,,,120.791,122.6888,1,0,1.3595,,0,37,37,55,1,non_cognate,1,REAL,FALSA
,,,,,,,,,6445b89361755459d55f2ee2,001,2024-06-30_06h04.47.937,empathy_intonation_perc,2024.1.4,Win32,59.88023952,,,,,,,,,,,,,,158,babrá,,,,,,122.6893,123.8882,0,1,0.6601,,0,38,38,157,1,pseudoword,0,REAL,FALSA
,,,,,,,,,6445b89361755459d55f2ee2,001,2024-06-30_06h04.47.937,empathy_intonation_perc,2024.1.4,Win32,59.88023952,,,,,,,,,,,,,,57,regalo,,,,,,123.8887,125.1541,1,0,0.7248,,0,39,39,56,1,non_cognate,1,REAL,FALSA
,,,,,,,,,6445b89361755459d55f2ee2,001,2024-06-30_06h04.47.937,empathy_intonation_perc,2024.1.4,Win32,59.88023952,,,,,,,,,,,,,,53,punta,,,,,,125.1545,128.2527,1,0,2.557,,0,40,40,52,1,non_cognate,1,REAL,FALSA
,,,,,,,,,6445b89361755459d55f2ee2,001,2024-06-30_06h04.47.937,empathy_intonation_perc,2024.1.4,Win32,59.88023952,,,,,,,,,,,,,,6,horror,,,,,,128.2805,129.4521,1,0,0.6483,,0,41,41,5,1,three_way_cognate,1,REAL,FALSA
,,,,,,,,,6445b89361755459d55f2ee2,001,2024-06-30_06h04.47.937,empathy_intonation_perc,2024.1.4,Win32,59.88023952,,,,,,,,,,,,,,177,entodo,,,,,,129.4527,131.2183,0,1,1.2289,,0,42,42,176,1,pseudoword,0,REAL,FALSA
,,,,,,,,,6445b89361755459d55f2ee2,001,2024-06-30_06h04.47.937,empathy_intonation_perc,2024.1.4,Win32,59.88023952,,,,,,,,,,,,,,74,ala,,,,,,131.2189,132.3846,0,1,0.629,,0,43,43,73,1,non_cognate,1,REAL,FALSA
,,,,,,,,,6445b89361755459d55f2ee2,001,2024-06-30_06h04.47.937,empathy_intonation_perc,2024.1.4,Win32,59.88023952,,,,,,,,,,,,,,62,pegar,,,,,,132.3852,133.6835,1,0,0.7616,,0,44,44,61,1,non_cognate,1,REAL,FALSA
,,,,,,,,,6445b89361755459d55f2ee2,001,2024-06-30_06h04.47.937,empathy_intonation_perc,2024.1.4,Win32,59.88023952,,,,,,,,,,,,,,5,extra,,,,,,133.6842,134.9829,1,0,0.7655,,0,45,45,4,1,three_way_cognate,1,REAL,FALSA
,,,,,,,,,6445b89361755459d55f2ee2,001,2024-06-30_06h04.47.937,empathy_intonation_perc,2024.1.4,Win32,59.88023952,,,,,,,,,,,,,,38,halo,,,,,,134.9838,136.9488,0,1,1.4293,,0,46,46,37,1,two_way_cognate,1,REAL,FALSA
,,,,,,,,,6445b89361755459d55f2ee2,001,2024-06-30_06h04.47.937,empathy_intonation_perc,2024.1.4,Win32,59.88023952,,,,,,,,,,,,,,116,grigir,,,,,,136.9494,138.3649,0,1,0.877,,0,47,47,115,1,pseudoword,0,REAL,FALSA
,,,,,,,,,6445b89361755459d55f2ee2,001,2024-06-30_06h04.47.937,empathy_intonation_perc,2024.1.4,Win32,59.88023952,,,,,,,,,,,,,,107,plago,,,,,,138.3656,139.5633,0,1,0.6707,,0,48,48,106,1,pseudoword,0,REAL,FALSA
,,,,,,,,,6445b89361755459d55f2ee2,001,2024-06-30_06h04.47.937,empathy_intonation_perc,2024.1.4,Win32,59.88023952,,,,,,,,,,,,,,147,alla,,,,,,139.5638,143.712,0,1,3.6106,,0,49,49,146,1,pseudoword,0,REAL,FALSA
,,,,,,,,,6445b89361755459d55f2ee2,001,2024-06-30_06h04.47.937,empathy_intonation_perc,2024.1.4,Win32,59.88023952,,,,,,,,,,,,,,95,listo,,,,,,143.7394,144.9782,1,0,0.7033,,0,50,50,94,1,non_cognate,1,REAL,FALSA
,,,,,,,,,6445b89361755459d55f2ee2,001,2024-06-30_06h04.47.937,empathy_intonation_perc,2024.1.4,Win32,59.88023952,,,,,,,,,,,,,,97,nocita,,,,,,144.9789,146.4608,0,1,0.9349,,0,51,51,96,1,pseudoword,0,REAL,FALSA
,,,,,,,,,6445b89361755459d55f2ee2,001,2024-06-30_06h04.47.937,empathy_intonation_perc,2024.1.4,Win32,59.88023952,,,,,,,,,,,,,,90,venado,,,,,,146.4613,148.1765,1,0,1.1683,,0,52,52,89,1,non_cognate,1,REAL,FALSA
,,,,,,,,,6445b89361755459d55f2ee2,001,2024-06-30_06h04.47.937,empathy_intonation_perc,2024.1.4,Win32,59.88023952,,,,,,,,,,,,,,14,aura,,,,,,148.1771,149.9258,0,1,1.2111,,0,53,53,13,1,three_way_cognate,1,REAL,FALSA
,,,,,,,,,6445b89361755459d55f2ee2,001,2024-06-30_06h04.47.937,empathy_intonation_perc,2024.1.4,Win32,59.88023952,,,,,,,,,,,,,,165,chote,,,,,,149.9266,151.2583,0,1,0.7864,,0,54,54,164,1,pseudoword,0,REAL,FALSA
,,,,,,,,,6445b89361755459d55f2ee2,001,2024-06-30_06h04.47.937,empathy_intonation_perc,2024.1.4,Win32,59.88023952,,,,,,,,,,,,,,154,harvé,,,,,,151.2591,152.6739,0,1,0.8711,,0,55,55,153,1,pseudoword,0,REAL,FALSA
,,,,,,,,,6445b89361755459d55f2ee2,001,2024-06-30_06h04.47.937,empathy_intonation_perc,2024.1.4,Win32,59.88023952,,,,,,,,,,,,,,35,aurora,,,,,,152.6743,153.957,0,1,0.738,,0,56,56,34,1,two_way_cognate,1,REAL,FALSA
,,,,,,,,,6445b89361755459d55f2ee2,001,2024-06-30_06h04.47.937,empathy_intonation_perc,2024.1.4,Win32,59.88023952,,,,,,,,,,,,,,164,tecia,,,,,,153.9576,155.1891,0,1,0.6832,,0,57,57,163,1,pseudoword,0,REAL,FALSA
,,,,,,,,,6445b89361755459d55f2ee2,001,2024-06-30_06h04.47.937,empathy_intonation_perc,2024.1.4,Win32,59.88023952,,,,,,,,,,,,,,128,pelí,,,,,,155.1894,156.7222,0,1,0.9897,,0,58,58,127,1,pseudoword,0,REAL,FALSA
,,,,,,,,,6445b89361755459d55f2ee2,001,2024-06-30_06h04.47.937,empathy_intonation_perc,2024.1.4,Win32,59.88023952,,,,,,,,,,,,,,73,llevar,,,,,,156.7227,157.9882,1,0,0.7206,,0,59,59,72,1,non_cognate,1,REAL,FALSA
,,,,,,,,,6445b89361755459d55f2ee2,001,2024-06-30_06h04.47.937,empathy_intonation_perc,2024.1.4,Win32,59.88023952,,,,,,,,,,,,,,17,clan,,,,,,157.9888,159.2413,0,1,0.7015,,0,60,60,16,1,three_way_cognate,1,REAL,FALSA
,,,,,,,,,6445b89361755459d55f2ee2,001,2024-06-30_06h04.47.937,empathy_intonation_perc,2024.1.4,Win32,59.88023952,,,,,,,,,,,,,,89,muñeca,,,,,,159.242,160.5703,1,0,0.7858,,0,61,61,88,1,non_cognate,1,REAL,FALSA
,,,,,,,,,6445b89361755459d55f2ee2,001,2024-06-30_06h04.47.937,empathy_intonation_perc,2024.1.4,Win32,59.88023952,,,,,,,,,,,,,,187,nomata,,,,,,160.5709,161.8697,0,1,0.7562,,0,62,62,186,1,pseudoword,0,REAL,FALSA
,,,,,,,,,6445b89361755459d55f2ee2,001,2024-06-30_06h04.47.937,empathy_intonation_perc,2024.1.4,Win32,59.88023952,,,,,,,,,,,,,,1,moral,,,,,,161.8704,165.7675,0,1,3.35,,0,63,63,0,1,three_way_cognate,1,REAL,FALSA
,,,,,,,,,6445b89361755459d55f2ee2,001,2024-06-30_06h04.47.937,empathy_intonation_perc,2024.1.4,Win32,59.88023952,,,,,,,,,,,,,,144,diroco,,,,,,165.7987,167.0336,0,1,0.7197,,0,64,64,143,1,pseudoword,0,REAL,FALSA
,,,,,,,,,6445b89361755459d55f2ee2,001,2024-06-30_06h04.47.937,empathy_intonation_perc,2024.1.4,Win32,59.88023952,,,,,,,,,,,,,,145,rúo,,,,,,167.0343,168.2165,0,1,0.6489,,0,65,65,144,1,pseudoword,0,REAL,FALSA
,,,,,,,,,6445b89361755459d55f2ee2,001,2024-06-30_06h04.47.937,empathy_intonation_perc,2024.1.4,Win32,59.88023952,,,,,,,,,,,,,,51,listo,,,,,,168.2171,169.4154,1,0,0.6655,,0,66,66,50,1,non_cognate,1,REAL,FALSA
,,,,,,,,,6445b89361755459d55f2ee2,001,2024-06-30_06h04.47.937,empathy_intonation_perc,2024.1.4,Win32,59.88023952,,,,,,,,,,,,,,174,pabea,,,,,,169.4158,170.7482,0,1,0.8086,,0,67,67,173,1,pseudoword,0,REAL,FALSA
,,,,,,,,,6445b89361755459d55f2ee2,001,2024-06-30_06h04.47.937,empathy_intonation_perc,2024.1.4,Win32,59.88023952,,,,,,,,,,,,,,70,ánimo,,,,,,170.7486,172.1145,1,0,0.84,,0,68,68,69,1,non_cognate,1,REAL,FALSA
,,,,,,,,,6445b89361755459d55f2ee2,001,2024-06-30_06h04.47.937,empathy_intonation_perc,2024.1.4,Win32,59.88023952,,,,,,,,,,,,,,100,épinas,,,,,,172.1151,173.4475,0,1,0.7987,,0,69,69,99,1,pseudoword,0,REAL,FALSA
,,,,,,,,,6445b89361755459d55f2ee2,001,2024-06-30_06h04.47.937,empathy_intonation_perc,2024.1.4,Win32,59.88023952,,,,,,,,,,,,,,160,fomeó,,,,,,173.4481,174.8798,0,1,0.9042,,0,70,70,159,1,pseudoword,0,REAL,FALSA
,,,,,,,,,6445b89361755459d55f2ee2,001,2024-06-30_06h04.47.937,empathy_intonation_perc,2024.1.4,Win32,59.88023952,,,,,,,,,,,,,,170,diabo,,,,,,174.8804,176.3124,0,1,0.9051,,0,71,71,169,1,pseudoword,0,REAL,FALSA
,,,,,,,,,6445b89361755459d55f2ee2,001,2024-06-30_06h04.47.937,empathy_intonation_perc,2024.1.4,Win32,59.88023952,,,,,,,,,,,,,,113,nasce,,,,,,176.313,177.5291,0,1,0.6843,,0,72,72,112,1,pseudoword,0,REAL,FALSA
,,,,,,,,,6445b89361755459d55f2ee2,001,2024-06-30_06h04.47.937,empathy_intonation_perc,2024.1.4,Win32,59.88023952,,,,,,,,,,,,,,179,suelet,,,,,,177.5297,178.9279,0,1,0.8747,,0,73,73,178,1,pseudoword,0,REAL,FALSA
,,,,,,,,,6445b89361755459d55f2ee2,001,2024-06-30_06h04.47.937,empathy_intonation_perc,2024.1.4,Win32,59.88023952,,,,,,,,,,,,,,148,gino,,,,,,178.9287,181.2435,0,1,1.7806,,0,74,74,147,1,pseudoword,0,REAL,FALSA
,,,,,,,,,6445b89361755459d55f2ee2,001,2024-06-30_06h04.47.937,empathy_intonation_perc,2024.1.4,Win32,59.88023952,,,,,,,,,,,,,,2,tumor,,,,,,181.2441,183.0921,1,0,1.3122,,0,75,75,1,1,three_way_cognate,1,REAL,FALSA
,,,,,,,,,6445b89361755459d55f2ee2,001,2024-06-30_06h04.47.937,empathy_intonation_perc,2024.1.4,Win32,59.88023952,,,,,,,,,,,,,,140,chorde,,,,,,183.0924,184.3086,0,1,0.6846,,0,76,76,139,1,pseudoword,0,REAL,FALSA
,,,,,,,,,6445b89361755459d55f2ee2,001,2024-06-30_06h04.47.937,empathy_intonation_perc,2024.1.4,Win32,59.88023952,,,,,,,,,,,,,,81,sacar,,,,,,184.3092,185.7913,1,0,0.9441,,0,77,77,80,1,non_cognate,1,REAL,FALSA
,,,,,,,,,6445b89361755459d55f2ee2,001,2024-06-30_06h04.47.937,empathy_intonation_perc,2024.1.4,Win32,59.88023952,,,,,,,,,,,,,,92,flecha,,,,,,185.792,187.0238,1,0,0.7041,,0,78,78,91,1,non_cognate,1,REAL,FALSA
,,,,,,,,,6445b89361755459d55f2ee2,001,2024-06-30_06h04.47.937,empathy_intonation_perc,2024.1.4,Win32,59.88023952,,,,,,,,,,,,,,176,gripar,,,,,,187.0244,188.8062,0,1,1.2348,,0,79,79,175,1,pseudoword,0,REAL,FALSA
,,,,,,,,,6445b89361755459d55f2ee2,001,2024-06-30_06h04.47.937,empathy_intonation_perc,2024.1.4,Win32,59.88023952,,,,,,,,,,,,,,41,pasta,,,,,,188.8068,193.4375,1,0,4.0838,,0,80,80,40,1,two_way_cognate,1,REAL,FALSA
,,,,,,,,,6445b89361755459d55f2ee2,001,2024-06-30_06h04.47.937,empathy_intonation_perc,2024.1.4,Win32,59.88023952,,,,,,,,,,,,,,109,laras,,,,,,193.4665,194.7537,0,1,0.7706,,0,81,81,108,1,pseudoword,0,REAL,FALSA
,,,,,,,,,6445b89361755459d55f2ee2,001,2024-06-30_06h04.47.937,empathy_intonation_perc,2024.1.4,Win32,59.88023952,,,,,,,,,,,,,,54,tapón,,,,,,194.7544,197.0189,1,0,1.7312,,0,82,82,53,1,non_cognate,1,REAL,FALSA
,,,,,,,,,6445b89361755459d55f2ee2,001,2024-06-30_06h04.47.937,empathy_intonation_perc,2024.1.4,Win32,59.88023952,,,,,,,,,,,,,,22,mango,,,,,,197.0196,198.3183,1,0,0.7614,,0,83,83,21,1,three_way_cognate,1,REAL,FALSA
,,,,,,,,,6445b89361755459d55f2ee2,001,2024-06-30_06h04.47.937,empathy_intonation_perc,2024.1.4,Win32,59.88023952,,,,,,,,,,,,,,151,prías,,,,,,198.3193,199.5676,0,1,0.7204,,0,84,84,150,1,pseudoword,0,REAL,FALSA
,,,,,,,,,6445b89361755459d55f2ee2,001,2024-06-30_06h04.47.937,empathy_intonation_perc,2024.1.4,Win32,59.88023952,,,,,,,,,,,,,,88,percha,,,,,,199.5681,200.8838,1,0,0.7847,,0,85,85,87,1,non_cognate,1,REAL,FALSA
,,,,,,,,,6445b89361755459d55f2ee2,001,2024-06-30_06h04.47.937,empathy_intonation_perc,2024.1.4,Win32,59.88023952,,,,,,,,,,,,,,162,cengo,,,,,,200.8844,202.2497,0,1,0.8295,,0,86,86,161,1,pseudoword,0,REAL,FALSA
,,,,,,,,,6445b89361755459d55f2ee2,001,2024-06-30_06h04.47.937,empathy_intonation_perc,2024.1.4,Win32,59.88023952,,,,,,,,,,,,,,60,siglo,,,,,,202.2506,203.5659,1,0,0.7871,,0,87,87,59,1,non_cognate,1,REAL,FALSA
,,,,,,,,,6445b89361755459d55f2ee2,001,2024-06-30_06h04.47.937,empathy_intonation_perc,2024.1.4,Win32,59.88023952,,,,,,,,,,,,,,44,editor,,,,,,203.5665,207.7805,0,1,3.6773,,0,88,88,43,1,two_way_cognate,1,REAL,FALSA
,,,,,,,,,6445b89361755459d55f2ee2,001,2024-06-30_06h04.47.937,empathy_intonation_perc,2024.1.4,Win32,59.88023952,,,,,,,,,,,,,,103,vueras,,,,,,207.8101,209.1458,0,1,0.8106,,0,89,89,102,1,pseudoword,0,REAL,FALSA
,,,,,,,,,6445b89361755459d55f2ee2,001,2024-06-30_06h04.47.937,empathy_intonation_perc,2024.1.4,Win32,59.88023952,,,,,,,,,,,,,,19,mafia,,,,,,209.1461,210.3625,0,1,0.685,,0,90,90,18,1,three_way_cognate,1,REAL,FALSA
,,,,,,,,,6445b89361755459d55f2ee2,001,2024-06-30_06h04.47.937,empathy_intonation_perc,2024.1.4,Win32,59.88023952,,,,,,,,,,,,,,125,ceme,,,,,,210.3631,211.6616,0,1,0.771,,0,91,91,124,1,pseudoword,0,REAL,FALSA
,,,,,,,,,6445b89361755459d55f2ee2,001,2024-06-30_06h04.47.937,empathy_intonation_perc,2024.1.4,Win32,59.88023952,,,,,,,,,,,,,,11,golf,,,,,,211.6622,212.9281,1,0,0.7343,,0,92,92,10,1,three_way_cognate,1,REAL,FALSA
,,,,,,,,,6445b89361755459d55f2ee2,001,2024-06-30_06h04.47.937,empathy_intonation_perc,2024.1.4,Win32,59.88023952,,,,,,,,,,,,,,65,guerra,,,,,,212.9288,214.1442,1,0,0.6811,,0,93,93,64,1,non_cognate,1,REAL,FALSA
,,,,,,,,,6445b89361755459d55f2ee2,001,2024-06-30_06h04.47.937,empathy_intonation_perc,2024.1.4,Win32,59.88023952,,,,,,,,,,,,,,24,retina,,,,,,214.1448,216.0432,0,1,1.3659,,0,94,94,23,1,three_way_cognate,1,REAL,FALSA
,,,,,,,,,6445b89361755459d55f2ee2,001,2024-06-30_06h04.47.937,empathy_intonation_perc,2024.1.4,Win32,59.88023952,,,,,,,,,,,,,,12,dogma,,,,,,216.0438,217.4425,0,1,0.8682,,0,95,95,11,1,three_way_cognate,1,REAL,FALSA
,,,,,,,,,6445b89361755459d55f2ee2,001,2024-06-30_06h04.47.937,empathy_intonation_perc,2024.1.4,Win32,59.88023952,,,,,,,,,,,,,,184,huenos,,,,,,217.4432,218.7578,0,1,0.7837,,0,96,96,183,1,pseudoword,0,REAL,FALSA
,,,,,,,,,6445b89361755459d55f2ee2,001,2024-06-30_06h04.47.937,empathy_intonation_perc,2024.1.4,Win32,59.88023952,,,,,,,,,,,,,,115,lidena,,,,,,218.758,220.0575,0,1,0.7802,,0,97,97,114,1,pseudoword,0,REAL,FALSA
,,,,,,,,,6445b89361755459d55f2ee2,001,2024-06-30_06h04.47.937,empathy_intonation_perc,2024.1.4,Win32,59.88023952,,,,,,,,,,,,,,159,trcia,,,,,,220.0585,221.54,0,1,0.9435,,0,98,98,158,1,pseudoword,0,REAL,FALSA
,,,,,,,,,6445b89361755459d55f2ee2,001,2024-06-30_06h04.47.937,empathy_intonation_perc,2024.1.4,Win32,59.88023952,,,,,,,,,,,,,,135,panté,,,,,,221.5408,222.7896,0,1,0.718,,0,99,99,134,1,pseudoword,0,REAL,FALSA
,,,,,,,,,6445b89361755459d55f2ee2,001,2024-06-30_06h04.47.937,empathy_intonation_perc,2024.1.4,Win32,59.88023952,,,,,,,,,,,,,,3,disco,,,,,,222.7902,224.4384,1,0,1.1212,,0,100,100,2,1,three_way_cognate,1,REAL,FALSA
,,,,,,,,,6445b89361755459d55f2ee2,001,2024-06-30_06h04.47.937,empathy_intonation_perc,2024.1.4,Win32,59.88023952,,,,,,,,,,,,,,171,gotro,,,,,,224.4387,225.688,0,1,0.7352,,0,101,101,170,1,pseudoword,0,REAL,FALSA
,,,,,,,,,6445b89361755459d55f2ee2,001,2024-06-30_06h04.47.937,empathy_intonation_perc,2024.1.4,Win32,59.88023952,,,,,,,,,,,,,,101,losco,,,,,,225.6886,226.9379,0,1,0.722,,0,102,102,100,1,pseudoword,0,REAL,FALSA
,,,,,,,,,6445b89361755459d55f2ee2,001,2024-06-30_06h04.47.937,empathy_intonation_perc,2024.1.4,Win32,59.88023952,,,,,,,,,,,,,,77,suave,,,,,,226.9386,228.2539,1,0,0.7791,,0,103,103,76,1,non_cognate,1,REAL,FALSA
,,,,,,,,,6445b89361755459d55f2ee2,001,2024-06-30_06h04.47.937,empathy_intonation_perc,2024.1.4,Win32,59.88023952,,,,,,,,,,,,,,43,honor,,,,,,228.2545,229.6189,1,0,0.8408,,0,104,104,42,1,two_way_cognate,1,REAL,FALSA
,,,,,,,,,6445b89361755459d55f2ee2,001,2024-06-30_06h04.47.937,empathy_intonation_perc,2024.1.4,Win32,59.88023952,,,,,,,,,,,,,,112,samón,,,,,,229.6193,231.1686,0,1,1.025,,0,105,105,111,1,pseudoword,0,REAL,FALSA
,,,,,,,,,6445b89361755459d55f2ee2,001,2024-06-30_06h04.47.937,empathy_intonation_perc,2024.1.4,Win32,59.88023952,,,,,,,,,,,,,,93,tapa,,,,,,231.1691,234.9339,1,0,3.239,,0,106,106,92,1,non_cognate,1,REAL,FALSA
,,,,,,,,,6445b89361755459d55f2ee2,001,2024-06-30_06h04.47.937,empathy_intonation_perc,2024.1.4,Win32,59.88023952,,,,,,,,,,,,,,110,densó,,,,,,234.9608,236.633,0,1,1.1481,,0,107,107,109,1,pseudoword,0,REAL,FALSA
,,,,,,,,,6445b89361755459d55f2ee2,001,2024-06-30_06h04.47.937,empathy_intonation_perc,2024.1.4,Win32,59.88023952,,,,,,,,,,,,,,34,actor,,,,,,236.6339,237.7985,1,0,0.6324,,0,108,108,33,1,two_way_cognate,1,REAL,FALSA
,,,,,,,,,6445b89361755459d55f2ee2,001,2024-06-30_06h04.47.937,empathy_intonation_perc,2024.1.4,Win32,59.88023952,,,,,,,,,,,,,,61,aduana,,,,,,237.7988,239.1482,1,0,0.8138,,0,109,109,60,1,non_cognate,1,REAL,FALSA
,,,,,,,,,6445b89361755459d55f2ee2,001,2024-06-30_06h04.47.937,empathy_intonation_perc,2024.1.4,Win32,59.88023952,,,,,,,,,,,,,,13,plan,,,,,,239.1489,240.4478,1,0,0.7596,,0,110,110,12,1,three_way_cognate,1,REAL,FALSA
,,,,,,,,,6445b89361755459d55f2ee2,001,2024-06-30_06h04.47.937,empathy_intonation_perc,2024.1.4,Win32,59.88023952,,,,,,,,,,,,,,16,chat,,,,,,240.4484,244.5617,0,1,3.5837,,0,111,111,15,1,three_way_cognate,1,REAL,FALSA
,,,,,,,,,6445b89361755459d55f2ee2,001,2024-06-30_06h04.47.937,empathy_intonation_perc,2024.1.4,Win32,59.88023952,,,,,,,,,,,,,,71,torta,,,,,,244.5778,245.9451,1,0,0.8432,,0,112,112,70,1,non_cognate,1,REAL,FALSA
,,,,,,,,,6445b89361755459d55f2ee2,001,2024-06-30_06h04.47.937,empathy_intonation_perc,2024.1.4,Win32,59.88023952,,,,,,,,,,,,,,39,casual,,,,,,245.9457,247.361,1,0,0.8864,,0,113,113,38,1,two_way_cognate,1,REAL,FALSA
,,,,,,,,,6445b89361755459d55f2ee2,001,2024-06-30_06h04.47.937,empathy_intonation_perc,2024.1.4,Win32,59.88023952,,,,,,,,,,,,,,31,civil,,,,,,247.3616,248.7436,1,0,0.8488,,0,114,114,30,1,two_way_cognate,1,REAL,FALSA
,,,,,,,,,6445b89361755459d55f2ee2,001,2024-06-30_06h04.47.937,empathy_intonation_perc,2024.1.4,Win32,59.88023952,,,,,,,,,,,,,,8,kilo,,,,,,248.7442,250.3594,1,0,1.0911,,0,115,115,7,1,three_way_cognate,1,REAL,FALSA
,,,,,,,,,6445b89361755459d55f2ee2,001,2024-06-30_06h04.47.937,empathy_intonation_perc,2024.1.4,Win32,59.88023952,,,,,,,,,,,,,,191,frasis,,,,,,250.3602,251.8916,0,1,1.0037,,0,116,116,190,1,pseudoword,0,REAL,FALSA
,,,,,,,,,6445b89361755459d55f2ee2,001,2024-06-30_06h04.47.937,empathy_intonation_perc,2024.1.4,Win32,59.88023952,,,,,,,,,,,,,,126,tobre,,,,,,251.8924,253.1083,0,1,0.6679,,0,117,117,125,1,pseudoword,0,REAL,FALSA
,,,,,,,,,6445b89361755459d55f2ee2,001,2024-06-30_06h04.47.937,empathy_intonation_perc,2024.1.4,Win32,59.88023952,,,,,,,,,,,,,,122,boñaz,,,,,,253.109,254.3742,0,1,0.7182,,0,118,118,121,1,pseudoword,0,REAL,FALSA
,,,,,,,,,6445b89361755459d55f2ee2,001,2024-06-30_06h04.47.937,empathy_intonation_perc,2024.1.4,Win32,59.88023952,,,,,,,,,,,,,,132,nocó,,,,,,254.3749,255.5567,0,1,0.6345,,0,119,119,131,1,pseudoword,0,REAL,FALSA
,,,,,,,,,6445b89361755459d55f2ee2,001,2024-06-30_06h04.47.937,empathy_intonation_perc,2024.1.4,Win32,59.88023952,,,,,,,,,,,,,,105,leniz,,,,,,255.5573,257.0227,0,1,0.9181,,0,120,120,104,1,pseudoword,0,REAL,FALSA
,,,,,,,,,6445b89361755459d55f2ee2,001,2024-06-30_06h04.47.937,empathy_intonation_perc,2024.1.4,Win32,59.88023952,,,,,,,,,,,,,,36,viable,,,,,,257.0233,258.3721,0,1,0.8113,,0,121,121,35,1,two_way_cognate,1,REAL,FALSA
,,,,,,,,,6445b89361755459d55f2ee2,001,2024-06-30_06h04.47.937,empathy_intonation_perc,2024.1.4,Win32,59.88023952,,,,,,,,,,,,,,124,lobe,,,,,,258.3729,259.5051,0,1,0.5888,,0,122,122,123,1,pseudoword,0,REAL,FALSA
,,,,,,,,,6445b89361755459d55f2ee2,001,2024-06-30_06h04.47.937,empathy_intonation_perc,2024.1.4,Win32,59.88023952,,,,,,,,,,,,,,25,vigor,,,,,,259.5057,261.3374,0,1,1.2904,,0,123,123,24,1,two_way_cognate,1,REAL,FALSA
,,,,,,,,,6445b89361755459d55f2ee2,001,2024-06-30_06h04.47.937,empathy_intonation_perc,2024.1.4,Win32,59.88023952,,,,,,,,,,,,,,84,aviso,,,,,,261.338,262.6864,1,0,0.8025,,0,124,124,83,1,non_cognate,1,REAL,FALSA
,,,,,,,,,6445b89361755459d55f2ee2,001,2024-06-30_06h04.47.937,empathy_intonation_perc,2024.1.4,Win32,59.88023952,,,,,,,,,,,,,,99,bugor,,,,,,262.6868,263.8694,0,1,0.6378,,0,125,125,98,1,pseudoword,0,REAL,FALSA
,,,,,,,,,6445b89361755459d55f2ee2,001,2024-06-30_06h04.47.937,empathy_intonation_perc,2024.1.4,Win32,59.88023952,,,,,,,,,,,,,,30,fiscal,,,,,,263.87,265.6185,0,1,1.2044,,0,126,126,29,1,two_way_cognate,1,REAL,FALSA
,,,,,,,,,6445b89361755459d55f2ee2,001,2024-06-30_06h04.47.937,empathy_intonation_perc,2024.1.4,Win32,59.88023952,,,,,,,,,,,,,,169,pitis,,,,,,265.6191,266.7848,0,1,0.6171,,0,127,127,168,1,pseudoword,0,REAL,FALSA
,,,,,,,,,6445b89361755459d55f2ee2,001,2024-06-30_06h04.47.937,empathy_intonation_perc,2024.1.4,Win32,59.88023952,,,,,,,,,,,,,,156,ozoso,,,,,,266.7854,267.9511,0,1,0.6206,,0,128,128,155,1,pseudoword,0,REAL,FALSA
,,,,,,,,,6445b89361755459d55f2ee2,001,2024-06-30_06h04.47.937,empathy_intonation_perc,2024.1.4,Win32,59.88023952,,,,,,,,,,,,,,20,trauma,,,,,,267.9517,269.4665,1,0,0.9703,,0,129,129,19,1,three_way_cognate,1,REAL,FALSA
,,,,,,,,,6445b89361755459d55f2ee2,001,2024-06-30_06h04.47.937,empathy_intonation_perc,2024.1.4,Win32,59.88023952,,,,,,,,,,,,,,138,tator,,,,,,269.4671,270.7991,0,1,0.7886,,0,130,130,137,1,pseudoword,0,REAL,FALSA
,,,,,,,,,6445b89361755459d55f2ee2,001,2024-06-30_06h04.47.937,empathy_intonation_perc,2024.1.4,Win32,59.88023952,,,,,,,,,,,,,,152,prave,,,,,,270.7995,271.9158,0,1,0.5712,,0,131,131,151,1,pseudoword,0,REAL,FALSA
,,,,,,,,,6445b89361755459d55f2ee2,001,2024-06-30_06h04.47.937,empathy_intonation_perc,2024.1.4,Win32,59.88023952,,,,,,,,,,,,,,94,forro,,,,,,271.9163,275.4304,1,0,2.9708,,0,132,132,93,1,non_cognate,1,REAL,FALSA
,,,,,,,,,6445b89361755459d55f2ee2,001,2024-06-30_06h04.47.937,empathy_intonation_perc,2024.1.4,Win32,59.88023952,,,,,,,,,,,,,,82,brillo,,,,,,275.4588,276.7796,0,1,0.8019,,0,133,133,81,1,non_cognate,1,REAL,FALSA
,,,,,,,,,6445b89361755459d55f2ee2,001,2024-06-30_06h04.47.937,empathy_intonation_perc,2024.1.4,Win32,59.88023952,,,,,,,,,,,,,,40,pelvis,,,,,,276.7804,278.0792,0,1,0.7676,,0,134,134,39,1,two_way_cognate,1,REAL,FALSA
,,,,,,,,,6445b89361755459d55f2ee2,001,2024-06-30_06h04.47.937,empathy_intonation_perc,2024.1.4,Win32,59.88023952,,,,,,,,,,,,,,28,ardor,,,,,,278.0798,279.3946,1,0,0.7759,,0,135,135,27,1,two_way_cognate,1,REAL,FALSA
,,,,,,,,,6445b89361755459d55f2ee2,001,2024-06-30_06h04.47.937,empathy_intonation_perc,2024.1.4,Win32,59.88023952,,,,,,,,,,,,,,181,gravés,,,,,,279.3949,281.0113,0,1,1.0782,,0,136,136,180,1,pseudoword,0,REAL,FALSA
,,,,,,,,,6445b89361755459d55f2ee2,001,2024-06-30_06h04.47.937,empathy_intonation_perc,2024.1.4,Win32,59.88023952,,,,,,,,,,,,,,173,mibro,,,,,,281.0119,282.227,0,1,0.6679,,0,137,137,172,1,pseudoword,0,REAL,FALSA
,,,,,,,,,6445b89361755459d55f2ee2,001,2024-06-30_06h04.47.937,empathy_intonation_perc,2024.1.4,Win32,59.88023952,,,,,,,,,,,,,,185,aljizo,,,,,,282.2277,283.9765,0,1,1.2066,,0,138,138,184,1,pseudoword,0,REAL,FALSA
,,,,,,,,,6445b89361755459d55f2ee2,001,2024-06-30_06h04.47.937,empathy_intonation_perc,2024.1.4,Win32,59.88023952,,,,,,,,,,,,,,175,tradía,,,,,,283.9771,285.2588,0,1,0.7354,,0,139,139,174,1,pseudoword,0,REAL,FALSA
,,,,,,,,,6445b89361755459d55f2ee2,001,2024-06-30_06h04.47.937,empathy_intonation_perc,2024.1.4,Win32,59.88023952,,,,,,,,,,,,,,26,enigma,,,,,,285.2594,287.2414,0,1,1.4368,,0,140,140,25,1,two_way_cognate,1,REAL,FALSA
,,,,,,,,,6445b89361755459d55f2ee2,001,2024-06-30_06h04.47.937,empathy_intonation_perc,2024.1.4,Win32,59.88023952,,,,,,,,,,,,,,91,equipo,,,,,,287.242,288.4906,1,0,0.7013,,0,141,141,90,1,non_cognate,1,REAL,FALSA
,,,,,,,,,6445b89361755459d55f2ee2,001,2024-06-30_06h04.47.937,empathy_intonation_perc,2024.1.4,Win32,59.88023952,,,,,,,,,,,,,,78,rendir,,,,,,288.4912,290.0224,1,0,0.9845,,0,142,142,77,1,non_cognate,1,REAL,FALSA
,,,,,,,,,6445b89361755459d55f2ee2,001,2024-06-30_06h04.47.937,empathy_intonation_perc,2024.1.4,Win32,59.88023952,,,,,,,,,,,,,,134,molor,,,,,,290.0227,292.9881,0,1,2.4222,,0,143,143,133,1,pseudoword,0,REAL,FALSA
,,,,,,,,,6445b89361755459d55f2ee2,001,2024-06-30_06h04.47.937,empathy_intonation_perc,2024.1.4,Win32,59.88023952,,,,,,,,,,,,,,10,drama,,,,,,293.0087,294.3211,1,0,0.7691,,0,144,144,9,1,three_way_cognate,1,REAL,FALSA
,,,,,,,,,6445b89361755459d55f2ee2,001,2024-06-30_06h04.47.937,empathy_intonation_perc,2024.1.4,Win32,59.88023952,,,,,,,,,,,,,,37,torso,,,,,,294.3217,297.5364,0,1,2.6673,,0,145,145,36,1,two_way_cognate,1,REAL,FALSA
,,,,,,,,,6445b89361755459d55f2ee2,001,2024-06-30_06h04.47.937,empathy_intonation_perc,2024.1.4,Win32,59.88023952,,,,,,,,,,,,,,153,golla,,,,,,297.5661,298.7016,0,1,0.6198,,0,146,146,152,1,pseudoword,0,REAL,FALSA
,,,,,,,,,6445b89361755459d55f2ee2,001,2024-06-30_06h04.47.937,empathy_intonation_perc,2024.1.4,Win32,59.88023952,,,,,,,,,,,,,,27,piano,,,,,,298.7018,301.0509,1,0,1.8154,,0,147,147,26,1,two_way_cognate,1,REAL,FALSA
,,,,,,,,,6445b89361755459d55f2ee2,001,2024-06-30_06h04.47.937,empathy_intonation_perc,2024.1.4,Win32,59.88023952,,,,,,,,,,,,,,59,feo,,,,,,301.0513,302.5165,1,0,0.9399,,0,148,148,58,1,non_cognate,1,REAL,FALSA
,,,,,,,,,6445b89361755459d55f2ee2,001,2024-06-30_06h04.47.937,empathy_intonation_perc,2024.1.4,Win32,59.88023952,,,,,,,,,,,,,,146,gió,,,,,,302.5167,303.7993,0,1,0.7543,,0,149,149,145,1,pseudoword,0,REAL,FALSA
,,,,,,,,,6445b89361755459d55f2ee2,001,2024-06-30_06h04.47.937,empathy_intonation_perc,2024.1.4,Win32,59.88023952,,,,,,,,,,,,,,48,pelvis,,,,,,303.7995,305.0986,0,1,0.7637,,0,150,150,47,1,two_way_cognate,1,REAL,FALSA
,,,,,,,,,6445b89361755459d55f2ee2,001,2024-06-30_06h04.47.937,empathy_intonation_perc,2024.1.4,Win32,59.88023952,,,,,,,,,,,,,,130,dubo,,,,,,305.0991,306.2148,0,1,0.5801,,0,151,151,129,1,pseudoword,0,REAL,FALSA
,,,,,,,,,6445b89361755459d55f2ee2,001,2024-06-30_06h04.47.937,empathy_intonation_perc,2024.1.4,Win32,59.88023952,,,,,,,,,,,,,,106,diebro,,,,,,306.2151,307.3475,0,1,0.6061,,0,152,152,105,1,pseudoword,0,REAL,FALSA
,,,,,,,,,6445b89361755459d55f2ee2,001,2024-06-30_06h04.47.937,empathy_intonation_perc,2024.1.4,Win32,59.88023952,,,,,,,,,,,,,,120,mauja,,,,,,307.3478,308.5802,0,1,0.6982,,0,153,153,119,1,pseudoword,0,REAL,FALSA
,,,,,,,,,6445b89361755459d55f2ee2,001,2024-06-30_06h04.47.937,empathy_intonation_perc,2024.1.4,Win32,59.88023952,,,,,,,,,,,,,,69,tiza,,,,,,308.5805,310.163,1,0,1.0492,,0,154,154,68,1,non_cognate,1,REAL,FALSA
,,,,,,,,,6445b89361755459d55f2ee2,001,2024-06-30_06h04.47.937,empathy_intonation_perc,2024.1.4,Win32,59.88023952,,,,,,,,,,,,,,192,próces,,,,,,310.1635,311.3627,0,1,0.6612,,0,155,155,191,1,pseudoword,0,REAL,FALSA
,,,,,,,,,6445b89361755459d55f2ee2,001,2024-06-30_06h04.47.937,empathy_intonation_perc,2024.1.4,Win32,59.88023952,,,,,,,,,,,,,,118,bará,,,,,,311.3633,312.6619,0,1,0.7704,,0,156,156,117,1,pseudoword,0,REAL,FALSA
,,,,,,,,,6445b89361755459d55f2ee2,001,2024-06-30_06h04.47.937,empathy_intonation_perc,2024.1.4,Win32,59.88023952,,,,,,,,,,,,,,117,morrá,,,,,,312.6626,314.0615,0,1,0.8659,,0,157,157,116,1,pseudoword,0,REAL,FALSA
,,,,,,,,,6445b89361755459d55f2ee2,001,2024-06-30_06h04.47.937,empathy_intonation_perc,2024.1.4,Win32,59.88023952,,,,,,,,,,,,,,18,altar,,,,,,314.0622,315.444,1,0,0.8491,,0,158,158,17,1,three_way_cognate,1,REAL,FALSA
,,,,,,,,,6445b89361755459d55f2ee2,001,2024-06-30_06h04.47.937,empathy_intonation_perc,2024.1.4,Win32,59.88023952,,,,,,,,,,,,,,87,muleta,,,,,,315.4447,316.6434,1,0,0.6686,,0,159,159,86,1,non_cognate,1,REAL,FALSA
,,,,,,,,,6445b89361755459d55f2ee2,001,2024-06-30_06h04.47.937,empathy_intonation_perc,2024.1.4,Win32,59.88023952,,,,,,,,,,,,,,47,color,,,,,,316.6441,317.8428,1,0,0.6709,,0,160,160,46,1,two_way_cognate,1,REAL,FALSA
,,,,,,,,,6445b89361755459d55f2ee2,001,2024-06-30_06h04.47.937,empathy_intonation_perc,2024.1.4,Win32,59.88023952,,,,,,,,,,,,,,76,chocar,,,,,,317.8435,319.092,1,0,0.7173,,0,161,161,75,1,non_cognate,1,REAL,FALSA
,,,,,,,,,6445b89361755459d55f2ee2,001,2024-06-30_06h04.47.937,empathy_intonation_perc,2024.1.4,Win32,59.88023952,,,,,,,,,,,,,,188,amplir,,,,,,319.0925,320.4251,0,1,0.7954,,0,162,162,187,1,pseudoword,0,REAL,FALSA
,,,,,,,,,6445b89361755459d55f2ee2,001,2024-06-30_06h04.47.937,empathy_intonation_perc,2024.1.4,Win32,59.88023952,,,,,,,,,,,,,,80,cuenco,,,,,,320.4258,321.9911,1,0,1.0309,,0,163,163,79,1,non_cognate,1,REAL,FALSA
,,,,,,,,,6445b89361755459d55f2ee2,001,2024-06-30_06h04.47.937,empathy_intonation_perc,2024.1.4,Win32,59.88023952,,,,,,,,,,,,,,98,martir,,,,,,321.9917,323.3897,0,1,0.8645,,0,164,164,97,1,pseudoword,0,REAL,FALSA
,,,,,,,,,6445b89361755459d55f2ee2,001,2024-06-30_06h04.47.937,empathy_intonation_perc,2024.1.4,Win32,59.88023952,,,,,,,,,,,,,,142,parre,,,,,,323.39,324.7232,0,1,0.8144,,0,165,165,141,1,pseudoword,0,REAL,FALSA
,,,,,,,,,6445b89361755459d55f2ee2,001,2024-06-30_06h04.47.937,empathy_intonation_perc,2024.1.4,Win32,59.88023952,,,,,,,,,,,,,,46,mortal,,,,,,324.724,326.8718,0,1,1.6142,,0,166,166,45,1,two_way_cognate,1,REAL,FALSA
,,,,,,,,,6445b89361755459d55f2ee2,001,2024-06-30_06h04.47.937,empathy_intonation_perc,2024.1.4,Win32,59.88023952,,,,,,,,,,,,,,33,collar,,,,,,326.8725,328.1212,1,0,0.7096,,0,167,167,32,1,two_way_cognate,1,REAL,FALSA
,,,,,,,,,6445b89361755459d55f2ee2,001,2024-06-30_06h04.47.937,empathy_intonation_perc,2024.1.4,Win32,59.88023952,,,,,,,,,,,,,,141,virios,,,,,,328.1217,329.5037,0,1,0.8349,,0,168,168,140,1,pseudoword,0,REAL,FALSA
,,,,,,,,,6445b89361755459d55f2ee2,001,2024-06-30_06h04.47.937,empathy_intonation_perc,2024.1.4,Win32,59.88023952,,,,,,,,,,,,,,114,dibrea,,,,,,329.5043,330.7199,0,1,0.6679,,0,169,169,113,1,pseudoword,0,REAL,FALSA
,,,,,,,,,6445b89361755459d55f2ee2,001,2024-06-30_06h04.47.937,empathy_intonation_perc,2024.1.4,Win32,59.88023952,,,,,,,,,,,,,,166,anfia,,,,,,330.7206,332.6358,0,1,1.3679,,0,170,170,165,1,pseudoword,0,REAL,FALSA
,,,,,,,,,6445b89361755459d55f2ee2,001,2024-06-30_06h04.47.937,empathy_intonation_perc,2024.1.4,Win32,59.88023952,,,,,,,,,,,,,,32,animal,,,,,,332.6365,333.8516,1,0,0.6684,,0,171,171,31,1,two_way_cognate,1,REAL,FALSA
,,,,,,,,,6445b89361755459d55f2ee2,001,2024-06-30_06h04.47.937,empathy_intonation_perc,2024.1.4,Win32,59.88023952,,,,,,,,,,,,,,86,cuenco,,,,,,333.8523,335.2344,1,0,0.8351,,0,172,172,85,1,non_cognate,1,REAL,FALSA
,,,,,,,,,6445b89361755459d55f2ee2,001,2024-06-30_06h04.47.937,empathy_intonation_perc,2024.1.4,Win32,59.88023952,,,,,,,,,,,,,,96,caro,,,,,,335.235,336.5668,1,0,0.7918,,0,173,173,95,1,non_cognate,1,REAL,FALSA
,,,,,,,,,6445b89361755459d55f2ee2,001,2024-06-30_06h04.47.937,empathy_intonation_perc,2024.1.4,Win32,59.88023952,,,,,,,,,,,,,,189,medium,,,,,,336.5674,338.0327,0,1,0.9276,,0,174,174,188,1,pseudoword,0,REAL,FALSA
,,,,,,,,,6445b89361755459d55f2ee2,001,2024-06-30_06h04.47.937,empathy_intonation_perc,2024.1.4,Win32,59.88023952,,,,,,,,,,,,,,7,albino,,,,,,338.0337,343.5464,1,0,4.9674,,0,175,175,6,1,three_way_cognate,1,REAL,FALSA
,,,,,,,,,6445b89361755459d55f2ee2,001,2024-06-30_06h04.47.937,empathy_intonation_perc,2024.1.4,Win32,59.88023952,,,,,,,,,,,,,,79,suelo,,,,,,343.5623,344.7128,1,0,0.6173,,0,176,176,78,1,non_cognate,1,REAL,FALSA
,,,,,,,,,6445b89361755459d55f2ee2,001,2024-06-30_06h04.47.937,empathy_intonation_perc,2024.1.4,Win32,59.88023952,,,,,,,,,,,,,,58,colcha,,,,,,344.7133,350.7313,0,1,5.4805,,0,177,177,57,1,non_cognate,1,REAL,FALSA
,,,,,,,,,6445b89361755459d55f2ee2,001,2024-06-30_06h04.47.937,empathy_intonation_perc,2024.1.4,Win32,59.88023952,,,,,,,,,,,,,,190,asumie,,,,,,350.7479,351.9759,0,1,0.6875,,0,178,178,189,1,pseudoword,0,REAL,FALSA
,,,,,,,,,6445b89361755459d55f2ee2,001,2024-06-30_06h04.47.937,empathy_intonation_perc,2024.1.4,Win32,59.88023952,,,,,,,,,,,,,,9,portal,,,,,,351.9765,353.7928,1,0,1.2784,,0,179,179,8,1,three_way_cognate,1,REAL,FALSA
,,,,,,,,,6445b89361755459d55f2ee2,001,2024-06-30_06h04.47.937,empathy_intonation_perc,2024.1.4,Win32,59.88023952,,,,,,,,,,,,,,157,seled,,,,,,353.7938,354.9411,0,1,0.6022,,0,180,180,156,1,pseudoword,0,REAL,FALSA
,,,,,,,,,6445b89361755459d55f2ee2,001,2024-06-30_06h04.47.937,empathy_intonation_perc,2024.1.4,Win32,59.88023952,,,,,,,,,,,,,,133,conso,,,,,,354.9424,356.1739,0,1,0.6852,,0,181,181,132,1,pseudoword,0,REAL,FALSA
,,,,,,,,,6445b89361755459d55f2ee2,001,2024-06-30_06h04.47.937,empathy_intonation_perc,2024.1.4,Win32,59.88023952,,,,,,,,,,,,,,66,aleta,,,,,,356.1745,358.0063,0,1,1.2907,,0,182,182,65,1,non_cognate,1,REAL,FALSA
,,,,,,,,,6445b89361755459d55f2ee2,001,2024-06-30_06h04.47.937,empathy_intonation_perc,2024.1.4,Win32,59.88023952,,,,,,,,,,,,,,50,sierra,,,,,,358.0069,359.5722,1,0,1.0263,,0,183,183,49,1,non_cognate,1,REAL,FALSA
,,,,,,,,,6445b89361755459d55f2ee2,001,2024-06-30_06h04.47.937,empathy_intonation_perc,2024.1.4,Win32,59.88023952,,,,,,,,,,,,,,85,enorme,,,,,,359.5729,360.8381,1,0,0.7161,,0,184,184,84,1,non_cognate,1,REAL,FALSA
,,,,,,,,,6445b89361755459d55f2ee2,001,2024-06-30_06h04.47.937,empathy_intonation_perc,2024.1.4,Win32,59.88023952,,,,,,,,,,,,,,127,vien,,,,,,360.8384,362.5875,0,1,1.202,,0,185,185,126,1,pseudoword,0,REAL,FALSA
,,,,,,,,,6445b89361755459d55f2ee2,001,2024-06-30_06h04.47.937,empathy_intonation_perc,2024.1.4,Win32,59.88023952,,,,,,,,,,,,,,111,monue,,,,,,362.5882,364.0536,0,1,0.9281,,0,186,186,110,1,pseudoword,0,REAL,FALSA
,,,,,,,,,6445b89361755459d55f2ee2,001,2024-06-30_06h04.47.937,empathy_intonation_perc,2024.1.4,Win32,59.88023952,,,,,,,,,,,,,,29,clamor,,,,,,364.0544,365.2861,0,1,0.6847,,0,187,187,28,1,two_way_cognate,1,REAL,FALSA
,,,,,,,,,6445b89361755459d55f2ee2,001,2024-06-30_06h04.47.937,empathy_intonation_perc,2024.1.4,Win32,59.88023952,,,,,,,,,,,,,,49,teñir,,,,,,365.2867,369.3008,1,0,3.4742,,0,188,188,48,1,non_cognate,1,REAL,FALSA
,,,,,,,,,6445b89361755459d55f2ee2,001,2024-06-30_06h04.47.937,empathy_intonation_perc,2024.1.4,Win32,59.88023952,,,,,,,,,,,,,,129,vinzó,,,,,,369.3285,370.5003,0,1,0.6439,,0,189,189,128,1,pseudoword,0,REAL,FALSA
,,,,,,,,,6445b89361755459d55f2ee2,001,2024-06-30_06h04.47.937,empathy_intonation_perc,2024.1.4,Win32,59.88023952,,,,,,,,,,,,,,137,trugo,,,,,,370.501,372.949,0,1,1.9148,,0,190,190,136,1,pseudoword,0,REAL,FALSA
,,,,,,,,,6445b89361755459d55f2ee2,001,2024-06-30_06h04.47.937,empathy_intonation_perc,2024.1.4,Win32,59.88023952,,,,,,,,,,,,,,178,inichó,,,,,,372.9724,374.265,0,1,0.7523,,0,191,191,177,1,pseudoword,0,REAL,FALSA
