lextale_instructions.started,lextale_instructions.stopped,lextale_instructions_loop.thisRepN,lextale_instructions_loop.thisTrialN,lextale_instructions_loop.thisN,lextale_instructions_loop.thisIndex,lextale_instructions_loop.ran,instructions_text,continue_text,participant,session,date,expName,psychopyVersion,OS,frameRate,lextale_practice.started,lextale_practice.stopped,key_resp_lextale_practice.keys,key_resp_lextale_practice.corr,key_resp_lextale_practice.rt,key_resp_lextale_practice.duration,lextale_practice_feedback.started,lextale_practice_feedback.stopped,lextale_practice_trials.thisRepN,lextale_practice_trials.thisTrialN,lextale_practice_trials.thisN,lextale_practice_trials.thisIndex,lextale_practice_trials.ran,stim,word,correct_response,prac_button_real,prac_button_false,lextale_check.started,lextale_check.stopped,lextale_trial.started,lextale_trial.stopped,key_resp_lextale_trial.keys,key_resp_lextale_trial.corr,key_resp_lextale_trial.rt,key_resp_lextale_trial.duration,lextail_trials.thisRepN,lextail_trials.thisTrialN,lextail_trials.thisN,lextail_trials.thisIndex,lextail_trials.ran,type,correct_reponse,button_real,button_false
0.0049,2.3324,0,0,0,0,1,"Este es un test de vocabulario en español. 
  
  A continuación vas a ver 90 secuencias de letras que parecen 'españolas'.
  
  Solo algunas de ellas son palabras de verdad.",(presiona la barra espaciadora para continuar),65695a10b3ea933621416f25,001,2024-06-30_07h28.26.957,empathy_intonation_perc,2024.1.4,Win32,60.24096386,,,,,,,,,,,,,,,,,,,,,,,,,,,,,,,,,,,
2.3335,3.0315,0,1,1,1,1,"Por favor, señala las palabras que tú conoces (aquellas que estás convencido que son palabras españolas, incluso aunque no seas capaz de dar el significado preciso).",(presiona la barra espaciadora para continuar),65695a10b3ea933621416f25,001,2024-06-30_07h28.26.957,empathy_intonation_perc,2024.1.4,Win32,60.24096386,,,,,,,,,,,,,,,,,,,,,,,,,,,,,,,,,,,
3.0321,3.3816,0,2,2,2,1,Pero cuidado: los errores se penalizan. Por eso no tiene sentido tratar de incrementar tu puntuación marcando como reales palabras que nunca has visto.,(presiona la barra espaciadora para continuar),65695a10b3ea933621416f25,001,2024-06-30_07h28.26.957,empathy_intonation_perc,2024.1.4,Win32,60.24096386,,,,,,,,,,,,,,,,,,,,,,,,,,,,,,,,,,,
3.3827,3.6477,0,3,3,3,1,"Presiona la tecla 1 si piensas que es una palabra real y la tecla 
  0 si piensas que es una palabra falsa. 
  
  Vamos a practicar un poco...",(presiona la barra espaciadora para continuar),65695a10b3ea933621416f25,001,2024-06-30_07h28.26.957,empathy_intonation_perc,2024.1.4,Win32,60.24096386,,,,,,,,,,,,,,,,,,,,,,,,,,,,,,,,,,,
,,,,,,,,,65695a10b3ea933621416f25,001,2024-06-30_07h28.26.957,empathy_intonation_perc,2024.1.4,Win32,60.24096386,3.6535,30.3769,1,0,26.1948,,30.3903,31.375,0,0,0,0,1,0,depiste,0,REAL,FALSA,,,,,,,,,,,,,,,,,
,,,,,,,,,65695a10b3ea933621416f25,001,2024-06-30_07h28.26.957,empathy_intonation_perc,2024.1.4,Win32,60.24096386,31.3761,44.9477,0,0,13.0378,,44.9479,45.9468,0,1,1,1,1,0,sí,1,REAL,FALSA,,,,,,,,,,,,,,,,,
,,,,,,,,,65695a10b3ea933621416f25,001,2024-06-30_07h28.26.957,empathy_intonation_perc,2024.1.4,Win32,60.24096386,45.9749,46.7124,1,0,0.221,,46.7125,47.7115,0,2,2,2,1,0,coné,0,REAL,FALSA,,,,,,,,,,,,,,,,,
,,,,,,,,,65695a10b3ea933621416f25,001,2024-06-30_07h28.26.957,empathy_intonation_perc,2024.1.4,Win32,60.24096386,47.7123,48.6277,1,0,0.3851,,48.6277,49.6264,0,3,3,3,1,0,calpar,0,REAL,FALSA,,,,,,,,,,,,,,,,,
,,,,,,,,,65695a10b3ea933621416f25,001,2024-06-30_07h28.26.957,empathy_intonation_perc,2024.1.4,Win32,60.24096386,49.6268,50.2762,0,1,0.117,,50.2764,51.2755,0,4,4,4,1,0,joten,0,REAL,FALSA,,,,,,,,,,,,,,,,,
,,,,,,,,,65695a10b3ea933621416f25,001,2024-06-30_07h28.26.957,empathy_intonation_perc,2024.1.4,Win32,60.24096386,51.2766,52.0579,1,1,0.2475,,52.058,53.0575,0,5,5,5,1,0,sacapuntas,1,REAL,FALSA,,,,,,,,,,,,,,,,,
,,,,,,,,,65695a10b3ea933621416f25,001,2024-06-30_07h28.26.957,empathy_intonation_perc,2024.1.4,Win32,60.24096386,53.0585,53.6733,0,1,0.082,,53.6734,54.6736,0,6,6,6,1,0,priba,0,REAL,FALSA,,,,,,,,,,,,,,,,,
,,,,,,,,,65695a10b3ea933621416f25,001,2024-06-30_07h28.26.957,empathy_intonation_perc,2024.1.4,Win32,60.24096386,54.6748,55.3889,0,1,0.1831,,55.389,56.388,0,7,7,7,1,0,pelasula,0,REAL,FALSA,,,,,,,,,,,,,,,,,
,,,,,,,,,65695a10b3ea933621416f25,001,2024-06-30_07h28.26.957,empathy_intonation_perc,2024.1.4,Win32,60.24096386,56.3888,57.1871,0,0,0.2666,,57.1871,58.1861,0,8,8,8,1,0,bien,1,REAL,FALSA,,,,,,,,,,,,,,,,,
,,,,,,,,,65695a10b3ea933621416f25,001,2024-06-30_07h28.26.957,empathy_intonation_perc,2024.1.4,Win32,60.24096386,58.1864,90.8261,0,0,32.1042,,90.8261,91.8252,0,9,9,9,1,0,casa,1,REAL,FALSA,,,,,,,,,,,,,,,,,
,,,,,,,,,65695a10b3ea933621416f25,001,2024-06-30_07h28.26.957,empathy_intonation_perc,2024.1.4,Win32,60.24096386,91.8451,93.1406,0,1,0.7682,,93.1407,94.1399,0,10,10,10,1,0,lejo,0,REAL,FALSA,,,,,,,,,,,,,,,,,
,,,,,,,,,65695a10b3ea933621416f25,001,2024-06-30_07h28.26.957,empathy_intonation_perc,2024.1.4,Win32,60.24096386,94.1404,94.7397,0,1,0.0662,,94.7397,95.7388,0,11,11,11,1,0,pretantas,0,REAL,FALSA,,,,,,,,,,,,,,,,,
,,,,,,,,,65695a10b3ea933621416f25,001,2024-06-30_07h28.26.957,empathy_intonation_perc,2024.1.4,Win32,60.24096386,,,,,,,,,,,,,,,,,,,95.7409,97.9551,,,,,,,,,,,,,,,
,,,,,,,,,65695a10b3ea933621416f25,001,2024-06-30_07h28.26.957,empathy_intonation_perc,2024.1.4,Win32,60.24096386,,,,,,,,,,,,,,14,aura,,,,,,97.988,98.8036,0,1,0.2796,,0,0,0,13,1,three_way_cognate,1,REAL,FALSA
,,,,,,,,,65695a10b3ea933621416f25,001,2024-06-30_07h28.26.957,empathy_intonation_perc,2024.1.4,Win32,60.24096386,,,,,,,,,,,,,,18,altar,,,,,,98.8054,99.4521,0,1,0.1138,,0,1,1,17,1,three_way_cognate,1,REAL,FALSA
,,,,,,,,,65695a10b3ea933621416f25,001,2024-06-30_07h28.26.957,empathy_intonation_perc,2024.1.4,Win32,60.24096386,,,,,,,,,,,,,,49,teñir,,,,,,99.4526,100.4016,0,1,0.4138,,0,2,2,48,1,non_cognate,1,REAL,FALSA
,,,,,,,,,65695a10b3ea933621416f25,001,2024-06-30_07h28.26.957,empathy_intonation_perc,2024.1.4,Win32,60.24096386,,,,,,,,,,,,,,23,plural,,,,,,100.4026,100.9344,1,0,0.0008,,0,3,3,22,1,three_way_cognate,1,REAL,FALSA
,,,,,,,,,65695a10b3ea933621416f25,001,2024-06-30_07h28.26.957,empathy_intonation_perc,2024.1.4,Win32,60.24096386,,,,,,,,,,,,,,182,desaro,,,,,,100.9352,101.4837,0,1,0.015,,0,4,4,181,1,pseudoword,0,REAL,FALSA
,,,,,,,,,65695a10b3ea933621416f25,001,2024-06-30_07h28.26.957,empathy_intonation_perc,2024.1.4,Win32,60.24096386,,,,,,,,,,,,,,157,seled,,,,,,101.4842,102.3498,0,1,0.3314,,0,5,5,156,1,pseudoword,0,REAL,FALSA
,,,,,,,,,65695a10b3ea933621416f25,001,2024-06-30_07h28.26.957,empathy_intonation_perc,2024.1.4,Win32,60.24096386,,,,,,,,,,,,,,33,collar,,,,,,102.3507,102.9329,1,0,0.0472,,0,6,6,32,1,two_way_cognate,1,REAL,FALSA
,,,,,,,,,65695a10b3ea933621416f25,001,2024-06-30_07h28.26.957,empathy_intonation_perc,2024.1.4,Win32,60.24096386,,,,,,,,,,,,,,151,prías,,,,,,102.9338,103.7655,1,0,0.3049,,0,7,7,150,1,pseudoword,0,REAL,FALSA
,,,,,,,,,65695a10b3ea933621416f25,001,2024-06-30_07h28.26.957,empathy_intonation_perc,2024.1.4,Win32,60.24096386,,,,,,,,,,,,,,81,sacar,,,,,,103.7664,104.5146,0,1,0.2174,,0,8,8,80,1,non_cognate,1,REAL,FALSA
,,,,,,,,,65695a10b3ea933621416f25,001,2024-06-30_07h28.26.957,empathy_intonation_perc,2024.1.4,Win32,60.24096386,,,,,,,,,,,,,,139,sasos,,,,,,104.5149,105.0477,0,1,0.0006,,0,9,9,138,1,pseudoword,0,REAL,FALSA
,,,,,,,,,65695a10b3ea933621416f25,001,2024-06-30_07h28.26.957,empathy_intonation_perc,2024.1.4,Win32,60.24096386,,,,,,,,,,,,,,7,albino,,,,,,105.0488,105.9138,1,0,0.3301,,0,10,10,6,1,three_way_cognate,1,REAL,FALSA
,,,,,,,,,65695a10b3ea933621416f25,001,2024-06-30_07h28.26.957,empathy_intonation_perc,2024.1.4,Win32,60.24096386,,,,,,,,,,,,,,26,enigma,,,,,,105.9147,106.4967,0,1,0.0472,,0,11,11,25,1,two_way_cognate,1,REAL,FALSA
,,,,,,,,,65695a10b3ea933621416f25,001,2024-06-30_07h28.26.957,empathy_intonation_perc,2024.1.4,Win32,60.24096386,,,,,,,,,,,,,,144,diroco,,,,,,106.4977,107.3957,0,1,0.3625,,0,12,12,143,1,pseudoword,0,REAL,FALSA
,,,,,,,,,65695a10b3ea933621416f25,001,2024-06-30_07h28.26.957,empathy_intonation_perc,2024.1.4,Win32,60.24096386,,,,,,,,,,,,,,140,chorde,,,,,,107.3963,108.2449,1,0,0.3105,,0,13,13,139,1,pseudoword,0,REAL,FALSA
,,,,,,,,,65695a10b3ea933621416f25,001,2024-06-30_07h28.26.957,empathy_intonation_perc,2024.1.4,Win32,60.24096386,,,,,,,,,,,,,,78,rendir,,,,,,108.2453,108.8277,1,0,0.0488,,0,14,14,77,1,non_cognate,1,REAL,FALSA
,,,,,,,,,65695a10b3ea933621416f25,001,2024-06-30_07h28.26.957,empathy_intonation_perc,2024.1.4,Win32,60.24096386,,,,,,,,,,,,,,180,pupica,,,,,,108.8281,109.4276,1,0,0.068,,0,15,15,179,1,pseudoword,0,REAL,FALSA
,,,,,,,,,65695a10b3ea933621416f25,001,2024-06-30_07h28.26.957,empathy_intonation_perc,2024.1.4,Win32,60.24096386,,,,,,,,,,,,,,132,nocó,,,,,,109.4283,109.9767,0,1,0.014,,0,16,16,131,1,pseudoword,0,REAL,FALSA
,,,,,,,,,65695a10b3ea933621416f25,001,2024-06-30_07h28.26.957,empathy_intonation_perc,2024.1.4,Win32,60.24096386,,,,,,,,,,,,,,70,ánimo,,,,,,109.9772,110.5098,0,1,0.002,,0,17,17,69,1,non_cognate,1,REAL,FALSA
,,,,,,,,,65695a10b3ea933621416f25,001,2024-06-30_07h28.26.957,empathy_intonation_perc,2024.1.4,Win32,60.24096386,,,,,,,,,,,,,,153,golla,,,,,,110.5109,111.1425,0,1,0.0998,,0,18,18,152,1,pseudoword,0,REAL,FALSA
,,,,,,,,,65695a10b3ea933621416f25,001,2024-06-30_07h28.26.957,empathy_intonation_perc,2024.1.4,Win32,60.24096386,,,,,,,,,,,,,,40,pelvis,,,,,,111.1429,111.7586,0,1,0.0827,,0,19,19,39,1,two_way_cognate,1,REAL,FALSA
,,,,,,,,,65695a10b3ea933621416f25,001,2024-06-30_07h28.26.957,empathy_intonation_perc,2024.1.4,Win32,60.24096386,,,,,,,,,,,,,,118,bará,,,,,,111.759,112.375,0,1,0.0812,,0,20,20,117,1,pseudoword,0,REAL,FALSA
,,,,,,,,,65695a10b3ea933621416f25,001,2024-06-30_07h28.26.957,empathy_intonation_perc,2024.1.4,Win32,60.24096386,,,,,,,,,,,,,,99,bugor,,,,,,112.3758,113.0247,0,1,0.1206,,0,21,21,98,1,pseudoword,0,REAL,FALSA
,,,,,,,,,65695a10b3ea933621416f25,001,2024-06-30_07h28.26.957,empathy_intonation_perc,2024.1.4,Win32,60.24096386,,,,,,,,,,,,,,103,vueras,,,,,,113.026,113.5575,1,0,0.0018,,0,22,22,102,1,pseudoword,0,REAL,FALSA
,,,,,,,,,65695a10b3ea933621416f25,001,2024-06-30_07h28.26.957,empathy_intonation_perc,2024.1.4,Win32,60.24096386,,,,,,,,,,,,,,189,medium,,,,,,113.5583,114.4402,1,0,0.3477,,0,23,23,188,1,pseudoword,0,REAL,FALSA
,,,,,,,,,65695a10b3ea933621416f25,001,2024-06-30_07h28.26.957,empathy_intonation_perc,2024.1.4,Win32,60.24096386,,,,,,,,,,,,,,53,punta,,,,,,114.4414,115.0563,0,1,0.0806,,0,24,24,52,1,non_cognate,1,REAL,FALSA
,,,,,,,,,65695a10b3ea933621416f25,001,2024-06-30_07h28.26.957,empathy_intonation_perc,2024.1.4,Win32,60.24096386,,,,,,,,,,,,,,113,nasce,,,,,,115.0572,115.6226,0,1,0.0354,,0,25,25,112,1,pseudoword,0,REAL,FALSA
,,,,,,,,,65695a10b3ea933621416f25,001,2024-06-30_07h28.26.957,empathy_intonation_perc,2024.1.4,Win32,60.24096386,,,,,,,,,,,,,,112,samón,,,,,,115.6236,116.4717,1,0,0.3193,,0,26,26,111,1,pseudoword,0,REAL,FALSA
,,,,,,,,,65695a10b3ea933621416f25,001,2024-06-30_07h28.26.957,empathy_intonation_perc,2024.1.4,Win32,60.24096386,,,,,,,,,,,,,,48,pelvis,,,,,,116.4727,117.0379,1,0,0.0305,,0,27,27,47,1,two_way_cognate,1,REAL,FALSA
,,,,,,,,,65695a10b3ea933621416f25,001,2024-06-30_07h28.26.957,empathy_intonation_perc,2024.1.4,Win32,60.24096386,,,,,,,,,,,,,,116,grigir,,,,,,117.0389,117.9536,0,1,0.3828,,0,28,28,115,1,pseudoword,0,REAL,FALSA
,,,,,,,,,65695a10b3ea933621416f25,001,2024-06-30_07h28.26.957,empathy_intonation_perc,2024.1.4,Win32,60.24096386,,,,,,,,,,,,,,16,chat,,,,,,117.9548,118.6697,0,1,0.1802,,0,29,29,15,1,three_way_cognate,1,REAL,FALSA
,,,,,,,,,65695a10b3ea933621416f25,001,2024-06-30_07h28.26.957,empathy_intonation_perc,2024.1.4,Win32,60.24096386,,,,,,,,,,,,,,159,trcia,,,,,,118.6702,119.2694,1,0,0.0643,,0,30,30,158,1,pseudoword,0,REAL,FALSA
,,,,,,,,,65695a10b3ea933621416f25,001,2024-06-30_07h28.26.957,empathy_intonation_perc,2024.1.4,Win32,60.24096386,,,,,,,,,,,,,,115,lidena,,,,,,119.2705,120.1518,1,0,0.3479,,0,31,31,114,1,pseudoword,0,REAL,FALSA
,,,,,,,,,65695a10b3ea933621416f25,001,2024-06-30_07h28.26.957,empathy_intonation_perc,2024.1.4,Win32,60.24096386,,,,,,,,,,,,,,148,gino,,,,,,120.1522,120.6846,0,1,0.0005,,0,32,32,147,1,pseudoword,0,REAL,FALSA
,,,,,,,,,65695a10b3ea933621416f25,001,2024-06-30_07h28.26.957,empathy_intonation_perc,2024.1.4,Win32,60.24096386,,,,,,,,,,,,,,88,percha,,,,,,120.685,121.9504,0,1,0.733,,0,33,33,87,1,non_cognate,1,REAL,FALSA
,,,,,,,,,65695a10b3ea933621416f25,001,2024-06-30_07h28.26.957,empathy_intonation_perc,2024.1.4,Win32,60.24096386,,,,,,,,,,,,,,92,flecha,,,,,,121.951,122.6666,0,1,0.1805,,0,34,34,91,1,non_cognate,1,REAL,FALSA
,,,,,,,,,65695a10b3ea933621416f25,001,2024-06-30_07h28.26.957,empathy_intonation_perc,2024.1.4,Win32,60.24096386,,,,,,,,,,,,,,120,mauja,,,,,,122.6675,123.2826,0,1,0.0888,,0,35,35,119,1,pseudoword,0,REAL,FALSA
,,,,,,,,,65695a10b3ea933621416f25,001,2024-06-30_07h28.26.957,empathy_intonation_perc,2024.1.4,Win32,60.24096386,,,,,,,,,,,,,,84,aviso,,,,,,123.2831,124.1488,1,0,0.3356,,0,36,36,83,1,non_cognate,1,REAL,FALSA
,,,,,,,,,65695a10b3ea933621416f25,001,2024-06-30_07h28.26.957,empathy_intonation_perc,2024.1.4,Win32,60.24096386,,,,,,,,,,,,,,136,hueas,,,,,,124.1499,124.8814,1,0,0.1976,,0,37,37,135,1,pseudoword,0,REAL,FALSA
,,,,,,,,,65695a10b3ea933621416f25,001,2024-06-30_07h28.26.957,empathy_intonation_perc,2024.1.4,Win32,60.24096386,,,,,,,,,,,,,,131,fuar,,,,,,124.8821,125.5474,1,0,0.1322,,0,38,38,130,1,pseudoword,0,REAL,FALSA
,,,,,,,,,65695a10b3ea933621416f25,001,2024-06-30_07h28.26.957,empathy_intonation_perc,2024.1.4,Win32,60.24096386,,,,,,,,,,,,,,52,blando,,,,,,125.5478,126.7298,1,0,0.648,,0,39,39,51,1,non_cognate,1,REAL,FALSA
,,,,,,,,,65695a10b3ea933621416f25,001,2024-06-30_07h28.26.957,empathy_intonation_perc,2024.1.4,Win32,60.24096386,,,,,,,,,,,,,,124,lobe,,,,,,126.7304,127.7792,0,1,0.5135,,0,40,40,123,1,pseudoword,0,REAL,FALSA
,,,,,,,,,65695a10b3ea933621416f25,001,2024-06-30_07h28.26.957,empathy_intonation_perc,2024.1.4,Win32,60.24096386,,,,,,,,,,,,,,187,nomata,,,,,,127.7802,128.6617,0,1,0.3494,,0,41,41,186,1,pseudoword,0,REAL,FALSA
,,,,,,,,,65695a10b3ea933621416f25,001,2024-06-30_07h28.26.957,empathy_intonation_perc,2024.1.4,Win32,60.24096386,,,,,,,,,,,,,,68,puñal,,,,,,128.6626,129.7443,0,1,0.5471,,0,42,42,67,1,non_cognate,1,REAL,FALSA
,,,,,,,,,65695a10b3ea933621416f25,001,2024-06-30_07h28.26.957,empathy_intonation_perc,2024.1.4,Win32,60.24096386,,,,,,,,,,,,,,29,clamor,,,,,,129.7454,130.3101,0,1,0.0364,,0,43,43,28,1,two_way_cognate,1,REAL,FALSA
,,,,,,,,,65695a10b3ea933621416f25,001,2024-06-30_07h28.26.957,empathy_intonation_perc,2024.1.4,Win32,60.24096386,,,,,,,,,,,,,,32,animal,,,,,,130.3106,131.2927,0,1,0.4456,,0,44,44,31,1,two_way_cognate,1,REAL,FALSA
,,,,,,,,,65695a10b3ea933621416f25,001,2024-06-30_07h28.26.957,empathy_intonation_perc,2024.1.4,Win32,60.24096386,,,,,,,,,,,,,,79,suelo,,,,,,131.2933,131.8259,1,0,0.0016,,0,45,45,78,1,non_cognate,1,REAL,FALSA
,,,,,,,,,65695a10b3ea933621416f25,001,2024-06-30_07h28.26.957,empathy_intonation_perc,2024.1.4,Win32,60.24096386,,,,,,,,,,,,,,36,viable,,,,,,131.8269,132.4084,1,0,0.0469,,0,46,46,35,1,two_way_cognate,1,REAL,FALSA
,,,,,,,,,65695a10b3ea933621416f25,001,2024-06-30_07h28.26.957,empathy_intonation_perc,2024.1.4,Win32,60.24096386,,,,,,,,,,,,,,27,piano,,,,,,132.4088,133.4578,0,1,0.5152,,0,47,47,26,1,two_way_cognate,1,REAL,FALSA
,,,,,,,,,65695a10b3ea933621416f25,001,2024-06-30_07h28.26.957,empathy_intonation_perc,2024.1.4,Win32,60.24096386,,,,,,,,,,,,,,134,molor,,,,,,133.4588,134.0737,1,0,0.0789,,0,48,48,133,1,pseudoword,0,REAL,FALSA
,,,,,,,,,65695a10b3ea933621416f25,001,2024-06-30_07h28.26.957,empathy_intonation_perc,2024.1.4,Win32,60.24096386,,,,,,,,,,,,,,161,civas,,,,,,134.074,134.6568,0,1,0.0475,,0,49,49,160,1,pseudoword,0,REAL,FALSA
,,,,,,,,,65695a10b3ea933621416f25,001,2024-06-30_07h28.26.957,empathy_intonation_perc,2024.1.4,Win32,60.24096386,,,,,,,,,,,,,,183,edioso,,,,,,134.6582,135.2894,0,1,0.0986,,0,50,50,182,1,pseudoword,0,REAL,FALSA
,,,,,,,,,65695a10b3ea933621416f25,001,2024-06-30_07h28.26.957,empathy_intonation_perc,2024.1.4,Win32,60.24096386,,,,,,,,,,,,,,57,regalo,,,,,,135.2904,136.4221,0,1,0.5986,,0,51,51,56,1,non_cognate,1,REAL,FALSA
,,,,,,,,,65695a10b3ea933621416f25,001,2024-06-30_07h28.26.957,empathy_intonation_perc,2024.1.4,Win32,60.24096386,,,,,,,,,,,,,,171,gotro,,,,,,136.4228,137.3051,1,0,0.3542,,0,52,52,170,1,pseudoword,0,REAL,FALSA
,,,,,,,,,65695a10b3ea933621416f25,001,2024-06-30_07h28.26.957,empathy_intonation_perc,2024.1.4,Win32,60.24096386,,,,,,,,,,,,,,107,plago,,,,,,137.3059,137.9038,0,1,0.0646,,0,53,53,106,1,pseudoword,0,REAL,FALSA
,,,,,,,,,65695a10b3ea933621416f25,001,2024-06-30_07h28.26.957,empathy_intonation_perc,2024.1.4,Win32,60.24096386,,,,,,,,,,,,,,117,morrá,,,,,,137.9047,138.7698,0,1,0.3366,,0,54,54,116,1,pseudoword,0,REAL,FALSA
,,,,,,,,,65695a10b3ea933621416f25,001,2024-06-30_07h28.26.957,empathy_intonation_perc,2024.1.4,Win32,60.24096386,,,,,,,,,,,,,,76,chocar,,,,,,138.7703,139.4358,1,0,0.1318,,0,55,55,75,1,non_cognate,1,REAL,FALSA
,,,,,,,,,65695a10b3ea933621416f25,001,2024-06-30_07h28.26.957,empathy_intonation_perc,2024.1.4,Win32,60.24096386,,,,,,,,,,,,,,174,pabea,,,,,,139.4362,139.9691,0,1,0.0006,,0,56,56,173,1,pseudoword,0,REAL,FALSA
,,,,,,,,,65695a10b3ea933621416f25,001,2024-06-30_07h28.26.957,empathy_intonation_perc,2024.1.4,Win32,60.24096386,,,,,,,,,,,,,,96,caro,,,,,,139.97,140.9683,0,1,0.4696,,0,57,57,95,1,non_cognate,1,REAL,FALSA
,,,,,,,,,65695a10b3ea933621416f25,001,2024-06-30_07h28.26.957,empathy_intonation_perc,2024.1.4,Win32,60.24096386,,,,,,,,,,,,,,175,tradía,,,,,,140.9692,141.5343,0,1,0.0333,,0,58,58,174,1,pseudoword,0,REAL,FALSA
,,,,,,,,,65695a10b3ea933621416f25,001,2024-06-30_07h28.26.957,empathy_intonation_perc,2024.1.4,Win32,60.24096386,,,,,,,,,,,,,,184,huenos,,,,,,141.5348,142.4339,0,1,0.3652,,0,59,59,183,1,pseudoword,0,REAL,FALSA
,,,,,,,,,65695a10b3ea933621416f25,001,2024-06-30_07h28.26.957,empathy_intonation_perc,2024.1.4,Win32,60.24096386,,,,,,,,,,,,,,85,enorme,,,,,,142.4348,143.4327,0,1,0.4664,,0,60,60,84,1,non_cognate,1,REAL,FALSA
,,,,,,,,,65695a10b3ea933621416f25,001,2024-06-30_07h28.26.957,empathy_intonation_perc,2024.1.4,Win32,60.24096386,,,,,,,,,,,,,,69,tiza,,,,,,143.4332,144.3657,1,0,0.3967,,0,61,61,68,1,non_cognate,1,REAL,FALSA
,,,,,,,,,65695a10b3ea933621416f25,001,2024-06-30_07h28.26.957,empathy_intonation_perc,2024.1.4,Win32,60.24096386,,,,,,,,,,,,,,5,extra,,,,,,144.3667,144.9319,1,0,0.0331,,0,62,62,4,1,three_way_cognate,1,REAL,FALSA
,,,,,,,,,65695a10b3ea933621416f25,001,2024-06-30_07h28.26.957,empathy_intonation_perc,2024.1.4,Win32,60.24096386,,,,,,,,,,,,,,135,panté,,,,,,144.9334,145.964,1,0,0.4974,,0,63,63,134,1,pseudoword,0,REAL,FALSA
,,,,,,,,,65695a10b3ea933621416f25,001,2024-06-30_07h28.26.957,empathy_intonation_perc,2024.1.4,Win32,60.24096386,,,,,,,,,,,,,,38,halo,,,,,,145.9649,146.5137,1,0,0.017,,0,64,64,37,1,two_way_cognate,1,REAL,FALSA
,,,,,,,,,65695a10b3ea933621416f25,001,2024-06-30_07h28.26.957,empathy_intonation_perc,2024.1.4,Win32,60.24096386,,,,,,,,,,,,,,64,rizado,,,,,,146.5147,147.5795,0,1,0.5284,,0,65,65,63,1,non_cognate,1,REAL,FALSA
,,,,,,,,,65695a10b3ea933621416f25,001,2024-06-30_07h28.26.957,empathy_intonation_perc,2024.1.4,Win32,60.24096386,,,,,,,,,,,,,,149,emén,,,,,,147.5801,148.1288,1,0,0.0156,,0,66,66,148,1,pseudoword,0,REAL,FALSA
,,,,,,,,,65695a10b3ea933621416f25,001,2024-06-30_07h28.26.957,empathy_intonation_perc,2024.1.4,Win32,60.24096386,,,,,,,,,,,,,,56,pico,,,,,,148.1293,148.6786,1,0,0.0142,,0,67,67,55,1,non_cognate,1,REAL,FALSA
,,,,,,,,,65695a10b3ea933621416f25,001,2024-06-30_07h28.26.957,empathy_intonation_perc,2024.1.4,Win32,60.24096386,,,,,,,,,,,,,,109,laras,,,,,,148.6796,149.2947,1,0,0.0816,,0,68,68,108,1,pseudoword,0,REAL,FALSA
,,,,,,,,,65695a10b3ea933621416f25,001,2024-06-30_07h28.26.957,empathy_intonation_perc,2024.1.4,Win32,60.24096386,,,,,,,,,,,,,,19,mafia,,,,,,149.2956,150.3104,0,1,0.4809,,0,69,69,18,1,three_way_cognate,1,REAL,FALSA
,,,,,,,,,65695a10b3ea933621416f25,001,2024-06-30_07h28.26.957,empathy_intonation_perc,2024.1.4,Win32,60.24096386,,,,,,,,,,,,,,55,maldad,,,,,,150.3112,150.8769,1,0,0.0394,,0,70,70,54,1,non_cognate,1,REAL,FALSA
,,,,,,,,,65695a10b3ea933621416f25,001,2024-06-30_07h28.26.957,empathy_intonation_perc,2024.1.4,Win32,60.24096386,,,,,,,,,,,,,,156,ozoso,,,,,,150.8782,151.4429,1,0,0.0307,,0,71,71,155,1,pseudoword,0,REAL,FALSA
,,,,,,,,,65695a10b3ea933621416f25,001,2024-06-30_07h28.26.957,empathy_intonation_perc,2024.1.4,Win32,60.24096386,,,,,,,,,,,,,,3,disco,,,,,,151.4437,152.0757,1,0,0.0979,,0,72,72,2,1,three_way_cognate,1,REAL,FALSA
,,,,,,,,,65695a10b3ea933621416f25,001,2024-06-30_07h28.26.957,empathy_intonation_perc,2024.1.4,Win32,60.24096386,,,,,,,,,,,,,,106,diebro,,,,,,152.0765,152.6087,1,0,0.0007,,0,73,73,105,1,pseudoword,0,REAL,FALSA
,,,,,,,,,65695a10b3ea933621416f25,001,2024-06-30_07h28.26.957,empathy_intonation_perc,2024.1.4,Win32,60.24096386,,,,,,,,,,,,,,128,pelí,,,,,,152.6095,153.1912,1,0,0.0547,,0,74,74,127,1,pseudoword,0,REAL,FALSA
,,,,,,,,,65695a10b3ea933621416f25,001,2024-06-30_07h28.26.957,empathy_intonation_perc,2024.1.4,Win32,60.24096386,,,,,,,,,,,,,,162,cengo,,,,,,153.1916,153.941,1,0,0.214,,0,75,75,161,1,pseudoword,0,REAL,FALSA
,,,,,,,,,65695a10b3ea933621416f25,001,2024-06-30_07h28.26.957,empathy_intonation_perc,2024.1.4,Win32,60.24096386,,,,,,,,,,,,,,20,trauma,,,,,,153.9426,154.5902,1,0,0.1178,,0,76,76,19,1,three_way_cognate,1,REAL,FALSA
,,,,,,,,,65695a10b3ea933621416f25,001,2024-06-30_07h28.26.957,empathy_intonation_perc,2024.1.4,Win32,60.24096386,,,,,,,,,,,,,,75,patada,,,,,,154.5909,155.2398,1,0,0.1147,,0,77,77,74,1,non_cognate,1,REAL,FALSA
,,,,,,,,,65695a10b3ea933621416f25,001,2024-06-30_07h28.26.957,empathy_intonation_perc,2024.1.4,Win32,60.24096386,,,,,,,,,,,,,,127,vien,,,,,,155.2406,155.8893,1,0,0.1158,,0,78,78,126,1,pseudoword,0,REAL,FALSA
,,,,,,,,,65695a10b3ea933621416f25,001,2024-06-30_07h28.26.957,empathy_intonation_perc,2024.1.4,Win32,60.24096386,,,,,,,,,,,,,,15,test,,,,,,155.89,156.4888,0,1,0.069,,0,79,79,14,1,three_way_cognate,1,REAL,FALSA
,,,,,,,,,65695a10b3ea933621416f25,001,2024-06-30_07h28.26.957,empathy_intonation_perc,2024.1.4,Win32,60.24096386,,,,,,,,,,,,,,119,esís,,,,,,156.4896,157.488,0,1,0.4672,,0,80,80,118,1,pseudoword,0,REAL,FALSA
,,,,,,,,,65695a10b3ea933621416f25,001,2024-06-30_07h28.26.957,empathy_intonation_perc,2024.1.4,Win32,60.24096386,,,,,,,,,,,,,,129,vinzó,,,,,,157.4894,158.5704,1,0,0.5525,,0,81,81,128,1,pseudoword,0,REAL,FALSA
,,,,,,,,,65695a10b3ea933621416f25,001,2024-06-30_07h28.26.957,empathy_intonation_perc,2024.1.4,Win32,60.24096386,,,,,,,,,,,,,,145,rúo,,,,,,158.5712,159.2699,1,0,0.1645,,0,82,82,144,1,pseudoword,0,REAL,FALSA
,,,,,,,,,65695a10b3ea933621416f25,001,2024-06-30_07h28.26.957,empathy_intonation_perc,2024.1.4,Win32,60.24096386,,,,,,,,,,,,,,51,listo,,,,,,159.2707,159.8548,0,1,0.0556,,0,83,83,50,1,non_cognate,1,REAL,FALSA
,,,,,,,,,65695a10b3ea933621416f25,001,2024-06-30_07h28.26.957,empathy_intonation_perc,2024.1.4,Win32,60.24096386,,,,,,,,,,,,,,110,densó,,,,,,159.8556,160.4355,1,0,0.0487,,0,84,84,109,1,pseudoword,0,REAL,FALSA
,,,,,,,,,65695a10b3ea933621416f25,001,2024-06-30_07h28.26.957,empathy_intonation_perc,2024.1.4,Win32,60.24096386,,,,,,,,,,,,,,105,leniz,,,,,,160.4362,161.0516,0,1,0.0808,,0,85,85,104,1,pseudoword,0,REAL,FALSA
,,,,,,,,,65695a10b3ea933621416f25,001,2024-06-30_07h28.26.957,empathy_intonation_perc,2024.1.4,Win32,60.24096386,,,,,,,,,,,,,,73,llevar,,,,,,161.0524,162.0343,1,0,0.4497,,0,86,86,72,1,non_cognate,1,REAL,FALSA
,,,,,,,,,65695a10b3ea933621416f25,001,2024-06-30_07h28.26.957,empathy_intonation_perc,2024.1.4,Win32,60.24096386,,,,,,,,,,,,,,77,suave,,,,,,162.0352,162.617,0,1,0.0447,,0,87,87,76,1,non_cognate,1,REAL,FALSA
,,,,,,,,,65695a10b3ea933621416f25,001,2024-06-30_07h28.26.957,empathy_intonation_perc,2024.1.4,Win32,60.24096386,,,,,,,,,,,,,,94,forro,,,,,,162.6173,163.2664,0,1,0.1204,,0,88,88,93,1,non_cognate,1,REAL,FALSA
,,,,,,,,,65695a10b3ea933621416f25,001,2024-06-30_07h28.26.957,empathy_intonation_perc,2024.1.4,Win32,60.24096386,,,,,,,,,,,,,,62,pegar,,,,,,163.267,163.8328,0,1,0.0316,,0,89,89,61,1,non_cognate,1,REAL,FALSA
,,,,,,,,,65695a10b3ea933621416f25,001,2024-06-30_07h28.26.957,empathy_intonation_perc,2024.1.4,Win32,60.24096386,,,,,,,,,,,,,,190,asumie,,,,,,163.8337,164.3824,0,1,0.0146,,0,90,90,189,1,pseudoword,0,REAL,FALSA
,,,,,,,,,65695a10b3ea933621416f25,001,2024-06-30_07h28.26.957,empathy_intonation_perc,2024.1.4,Win32,60.24096386,,,,,,,,,,,,,,35,aurora,,,,,,164.3833,164.9316,0,1,0.0118,,0,91,91,34,1,two_way_cognate,1,REAL,FALSA
,,,,,,,,,65695a10b3ea933621416f25,001,2024-06-30_07h28.26.957,empathy_intonation_perc,2024.1.4,Win32,60.24096386,,,,,,,,,,,,,,164,tecia,,,,,,164.9321,166.014,1,0,0.5487,,0,92,92,163,1,pseudoword,0,REAL,FALSA
,,,,,,,,,65695a10b3ea933621416f25,001,2024-06-30_07h28.26.957,empathy_intonation_perc,2024.1.4,Win32,60.24096386,,,,,,,,,,,,,,66,aleta,,,,,,166.0144,166.8138,1,0,0.2648,,0,93,93,65,1,non_cognate,1,REAL,FALSA
,,,,,,,,,65695a10b3ea933621416f25,001,2024-06-30_07h28.26.957,empathy_intonation_perc,2024.1.4,Win32,60.24096386,,,,,,,,,,,,,,126,tobre,,,,,,166.8145,167.4794,1,0,0.1347,,0,94,94,125,1,pseudoword,0,REAL,FALSA
,,,,,,,,,65695a10b3ea933621416f25,001,2024-06-30_07h28.26.957,empathy_intonation_perc,2024.1.4,Win32,60.24096386,,,,,,,,,,,,,,30,fiscal,,,,,,167.48,168.129,1,0,0.1312,,0,95,95,29,1,two_way_cognate,1,REAL,FALSA
,,,,,,,,,65695a10b3ea933621416f25,001,2024-06-30_07h28.26.957,empathy_intonation_perc,2024.1.4,Win32,60.24096386,,,,,,,,,,,,,,186,rizate,,,,,,168.1296,168.779,1,0,0.1174,,0,96,96,185,1,pseudoword,0,REAL,FALSA
,,,,,,,,,65695a10b3ea933621416f25,001,2024-06-30_07h28.26.957,empathy_intonation_perc,2024.1.4,Win32,60.24096386,,,,,,,,,,,,,,54,tapón,,,,,,168.78,169.7946,0,1,0.4835,,0,97,97,53,1,non_cognate,1,REAL,FALSA
,,,,,,,,,65695a10b3ea933621416f25,001,2024-06-30_07h28.26.957,empathy_intonation_perc,2024.1.4,Win32,60.24096386,,,,,,,,,,,,,,100,épinas,,,,,,169.7957,170.3772,0,1,0.0486,,0,98,98,99,1,pseudoword,0,REAL,FALSA
,,,,,,,,,65695a10b3ea933621416f25,001,2024-06-30_07h28.26.957,empathy_intonation_perc,2024.1.4,Win32,60.24096386,,,,,,,,,,,,,,45,total,,,,,,170.3786,170.9434,0,1,0.0325,,0,99,99,44,1,two_way_cognate,1,REAL,FALSA
,,,,,,,,,65695a10b3ea933621416f25,001,2024-06-30_07h28.26.957,empathy_intonation_perc,2024.1.4,Win32,60.24096386,,,,,,,,,,,,,,82,brillo,,,,,,170.9441,171.6264,0,1,0.1473,,0,100,100,81,1,non_cognate,1,REAL,FALSA
,,,,,,,,,65695a10b3ea933621416f25,001,2024-06-30_07h28.26.957,empathy_intonation_perc,2024.1.4,Win32,60.24096386,,,,,,,,,,,,,,25,vigor,,,,,,171.6274,172.1923,0,1,0.0319,,0,101,101,24,1,two_way_cognate,1,REAL,FALSA
,,,,,,,,,65695a10b3ea933621416f25,001,2024-06-30_07h28.26.957,empathy_intonation_perc,2024.1.4,Win32,60.24096386,,,,,,,,,,,,,,6,horror,,,,,,172.1928,173.3248,0,1,0.5996,,0,102,102,5,1,three_way_cognate,1,REAL,FALSA
,,,,,,,,,65695a10b3ea933621416f25,001,2024-06-30_07h28.26.957,empathy_intonation_perc,2024.1.4,Win32,60.24096386,,,,,,,,,,,,,,130,dubo,,,,,,173.3253,173.8749,0,1,0.0238,,0,103,103,129,1,pseudoword,0,REAL,FALSA
,,,,,,,,,65695a10b3ea933621416f25,001,2024-06-30_07h28.26.957,empathy_intonation_perc,2024.1.4,Win32,60.24096386,,,,,,,,,,,,,,108,jauda,,,,,,173.8756,174.7422,1,0,0.3389,,0,104,104,107,1,pseudoword,0,REAL,FALSA
,,,,,,,,,65695a10b3ea933621416f25,001,2024-06-30_07h28.26.957,empathy_intonation_perc,2024.1.4,Win32,60.24096386,,,,,,,,,,,,,,28,ardor,,,,,,174.7433,175.3396,0,1,0.0706,,0,105,105,27,1,two_way_cognate,1,REAL,FALSA
,,,,,,,,,65695a10b3ea933621416f25,001,2024-06-30_07h28.26.957,empathy_intonation_perc,2024.1.4,Win32,60.24096386,,,,,,,,,,,,,,143,hurcos,,,,,,175.3401,176.2725,1,0,0.3964,,0,106,106,142,1,pseudoword,0,REAL,FALSA
,,,,,,,,,65695a10b3ea933621416f25,001,2024-06-30_07h28.26.957,empathy_intonation_perc,2024.1.4,Win32,60.24096386,,,,,,,,,,,,,,168,cobén,,,,,,176.2732,176.8553,0,1,0.0484,,0,107,107,167,1,pseudoword,0,REAL,FALSA
,,,,,,,,,65695a10b3ea933621416f25,001,2024-06-30_07h28.26.957,empathy_intonation_perc,2024.1.4,Win32,60.24096386,,,,,,,,,,,,,,176,gripar,,,,,,176.8559,177.388,0,1,0.0005,,0,108,108,175,1,pseudoword,0,REAL,FALSA
,,,,,,,,,65695a10b3ea933621416f25,001,2024-06-30_07h28.26.957,empathy_intonation_perc,2024.1.4,Win32,60.24096386,,,,,,,,,,,,,,12,dogma,,,,,,177.3884,178.3871,0,1,0.4704,,0,109,109,11,1,three_way_cognate,1,REAL,FALSA
,,,,,,,,,65695a10b3ea933621416f25,001,2024-06-30_07h28.26.957,empathy_intonation_perc,2024.1.4,Win32,60.24096386,,,,,,,,,,,,,,22,mango,,,,,,178.3879,179.2868,1,0,0.3691,,0,110,110,21,1,three_way_cognate,1,REAL,FALSA
,,,,,,,,,65695a10b3ea933621416f25,001,2024-06-30_07h28.26.957,empathy_intonation_perc,2024.1.4,Win32,60.24096386,,,,,,,,,,,,,,46,mortal,,,,,,179.2878,180.2524,0,1,0.4361,,0,111,111,45,1,two_way_cognate,1,REAL,FALSA
,,,,,,,,,65695a10b3ea933621416f25,001,2024-06-30_07h28.26.957,empathy_intonation_perc,2024.1.4,Win32,60.24096386,,,,,,,,,,,,,,8,kilo,,,,,,180.2531,180.8355,0,1,0.0469,,0,112,112,7,1,three_way_cognate,1,REAL,FALSA
,,,,,,,,,65695a10b3ea933621416f25,001,2024-06-30_07h28.26.957,empathy_intonation_perc,2024.1.4,Win32,60.24096386,,,,,,,,,,,,,,71,torta,,,,,,180.8363,181.385,0,1,0.0168,,0,113,113,70,1,non_cognate,1,REAL,FALSA
,,,,,,,,,65695a10b3ea933621416f25,001,2024-06-30_07h28.26.957,empathy_intonation_perc,2024.1.4,Win32,60.24096386,,,,,,,,,,,,,,37,torso,,,,,,181.3858,182.001,0,1,0.0813,,0,114,114,36,1,two_way_cognate,1,REAL,FALSA
,,,,,,,,,65695a10b3ea933621416f25,001,2024-06-30_07h28.26.957,empathy_intonation_perc,2024.1.4,Win32,60.24096386,,,,,,,,,,,,,,179,suelet,,,,,,182.0014,182.9006,1,0,0.3701,,0,115,115,178,1,pseudoword,0,REAL,FALSA
,,,,,,,,,65695a10b3ea933621416f25,001,2024-06-30_07h28.26.957,empathy_intonation_perc,2024.1.4,Win32,60.24096386,,,,,,,,,,,,,,155,kugis,,,,,,182.9013,183.5332,1,0,0.0956,,0,116,116,154,1,pseudoword,0,REAL,FALSA
,,,,,,,,,65695a10b3ea933621416f25,001,2024-06-30_07h28.26.957,empathy_intonation_perc,2024.1.4,Win32,60.24096386,,,,,,,,,,,,,,9,portal,,,,,,183.5341,184.2493,1,0,0.1811,,0,117,117,8,1,three_way_cognate,1,REAL,FALSA
,,,,,,,,,65695a10b3ea933621416f25,001,2024-06-30_07h28.26.957,empathy_intonation_perc,2024.1.4,Win32,60.24096386,,,,,,,,,,,,,,141,virios,,,,,,184.25,184.8654,1,0,0.0816,,0,118,118,140,1,pseudoword,0,REAL,FALSA
,,,,,,,,,65695a10b3ea933621416f25,001,2024-06-30_07h28.26.957,empathy_intonation_perc,2024.1.4,Win32,60.24096386,,,,,,,,,,,,,,86,cuenco,,,,,,184.8661,185.3984,0,1,0.0048,,0,119,119,85,1,non_cognate,1,REAL,FALSA
,,,,,,,,,65695a10b3ea933621416f25,001,2024-06-30_07h28.26.957,empathy_intonation_perc,2024.1.4,Win32,60.24096386,,,,,,,,,,,,,,39,casual,,,,,,185.3992,186.4474,1,0,0.5203,,0,120,120,38,1,two_way_cognate,1,REAL,FALSA
,,,,,,,,,65695a10b3ea933621416f25,001,2024-06-30_07h28.26.957,empathy_intonation_perc,2024.1.4,Win32,60.24096386,,,,,,,,,,,,,,2,tumor,,,,,,186.4482,187.0637,0,1,0.0814,,0,121,121,1,1,three_way_cognate,1,REAL,FALSA
,,,,,,,,,65695a10b3ea933621416f25,001,2024-06-30_07h28.26.957,empathy_intonation_perc,2024.1.4,Win32,60.24096386,,,,,,,,,,,,,,74,ala,,,,,,187.0645,187.6797,1,0,0.0818,,0,122,122,73,1,non_cognate,1,REAL,FALSA
,,,,,,,,,65695a10b3ea933621416f25,001,2024-06-30_07h28.26.957,empathy_intonation_perc,2024.1.4,Win32,60.24096386,,,,,,,,,,,,,,173,mibro,,,,,,187.6807,188.2795,1,0,0.0643,,0,123,123,172,1,pseudoword,0,REAL,FALSA
,,,,,,,,,65695a10b3ea933621416f25,001,2024-06-30_07h28.26.957,empathy_intonation_perc,2024.1.4,Win32,60.24096386,,,,,,,,,,,,,,59,feo,,,,,,188.2807,189.2787,1,0,0.4666,,0,124,124,58,1,non_cognate,1,REAL,FALSA
,,,,,,,,,65695a10b3ea933621416f25,001,2024-06-30_07h28.26.957,empathy_intonation_perc,2024.1.4,Win32,60.24096386,,,,,,,,,,,,,,166,anfia,,,,,,189.2794,189.9114,1,0,0.0984,,0,125,125,165,1,pseudoword,0,REAL,FALSA
,,,,,,,,,65695a10b3ea933621416f25,001,2024-06-30_07h28.26.957,empathy_intonation_perc,2024.1.4,Win32,60.24096386,,,,,,,,,,,,,,83,hálito,,,,,,189.9125,190.5274,1,0,0.0826,,0,126,126,82,1,non_cognate,1,REAL,FALSA
,,,,,,,,,65695a10b3ea933621416f25,001,2024-06-30_07h28.26.957,empathy_intonation_perc,2024.1.4,Win32,60.24096386,,,,,,,,,,,,,,91,equipo,,,,,,190.5288,191.1102,1,0,0.0474,,0,127,127,90,1,non_cognate,1,REAL,FALSA
,,,,,,,,,65695a10b3ea933621416f25,001,2024-06-30_07h28.26.957,empathy_intonation_perc,2024.1.4,Win32,60.24096386,,,,,,,,,,,,,,60,siglo,,,,,,191.1111,191.6432,0,1,0.0006,,0,128,128,59,1,non_cognate,1,REAL,FALSA
,,,,,,,,,65695a10b3ea933621416f25,001,2024-06-30_07h28.26.957,empathy_intonation_perc,2024.1.4,Win32,60.24096386,,,,,,,,,,,,,,133,conso,,,,,,191.6439,192.276,0,1,0.1008,,0,129,129,132,1,pseudoword,0,REAL,FALSA
,,,,,,,,,65695a10b3ea933621416f25,001,2024-06-30_07h28.26.957,empathy_intonation_perc,2024.1.4,Win32,60.24096386,,,,,,,,,,,,,,169,pitis,,,,,,192.2767,192.8589,0,1,0.0515,,0,130,130,168,1,pseudoword,0,REAL,FALSA
,,,,,,,,,65695a10b3ea933621416f25,001,2024-06-30_07h28.26.957,empathy_intonation_perc,2024.1.4,Win32,60.24096386,,,,,,,,,,,,,,87,muleta,,,,,,192.8595,193.3917,0,1,0.0005,,0,131,131,86,1,non_cognate,1,REAL,FALSA
,,,,,,,,,65695a10b3ea933621416f25,001,2024-06-30_07h28.26.957,empathy_intonation_perc,2024.1.4,Win32,60.24096386,,,,,,,,,,,,,,170,diabo,,,,,,193.3925,194.3408,1,0,0.4151,,0,132,132,169,1,pseudoword,0,REAL,FALSA
,,,,,,,,,65695a10b3ea933621416f25,001,2024-06-30_07h28.26.957,empathy_intonation_perc,2024.1.4,Win32,60.24096386,,,,,,,,,,,,,,163,olzan,,,,,,194.3418,194.9903,1,0,0.1191,,0,133,133,162,1,pseudoword,0,REAL,FALSA
,,,,,,,,,65695a10b3ea933621416f25,001,2024-06-30_07h28.26.957,empathy_intonation_perc,2024.1.4,Win32,60.24096386,,,,,,,,,,,,,,31,civil,,,,,,194.9908,195.5234,1,0,0.0011,,0,134,134,30,1,two_way_cognate,1,REAL,FALSA
,,,,,,,,,65695a10b3ea933621416f25,001,2024-06-30_07h28.26.957,empathy_intonation_perc,2024.1.4,Win32,60.24096386,,,,,,,,,,,,,,114,dibrea,,,,,,195.5247,196.1227,1,0,0.0658,,0,135,135,113,1,pseudoword,0,REAL,FALSA
,,,,,,,,,65695a10b3ea933621416f25,001,2024-06-30_07h28.26.957,empathy_intonation_perc,2024.1.4,Win32,60.24096386,,,,,,,,,,,,,,125,ceme,,,,,,196.1233,196.6555,1,0,0.0006,,0,136,136,124,1,pseudoword,0,REAL,FALSA
,,,,,,,,,65695a10b3ea933621416f25,001,2024-06-30_07h28.26.957,empathy_intonation_perc,2024.1.4,Win32,60.24096386,,,,,,,,,,,,,,191,frasis,,,,,,196.6562,197.2053,1,0,0.0151,,0,137,137,190,1,pseudoword,0,REAL,FALSA
,,,,,,,,,65695a10b3ea933621416f25,001,2024-06-30_07h28.26.957,empathy_intonation_perc,2024.1.4,Win32,60.24096386,,,,,,,,,,,,,,185,aljizo,,,,,,197.2062,198.3375,1,0,0.6025,,0,138,138,184,1,pseudoword,0,REAL,FALSA
,,,,,,,,,65695a10b3ea933621416f25,001,2024-06-30_07h28.26.957,empathy_intonation_perc,2024.1.4,Win32,60.24096386,,,,,,,,,,,,,,80,cuenco,,,,,,198.3379,198.8869,1,0,0.0206,,0,139,139,79,1,non_cognate,1,REAL,FALSA
,,,,,,,,,65695a10b3ea933621416f25,001,2024-06-30_07h28.26.957,empathy_intonation_perc,2024.1.4,Win32,60.24096386,,,,,,,,,,,,,,50,sierra,,,,,,198.8874,199.4539,1,0,0.0301,,0,140,140,49,1,non_cognate,1,REAL,FALSA
,,,,,,,,,65695a10b3ea933621416f25,001,2024-06-30_07h28.26.957,empathy_intonation_perc,2024.1.4,Win32,60.24096386,,,,,,,,,,,,,,188,amplir,,,,,,199.4549,200.3857,1,0,0.4018,,0,141,141,187,1,pseudoword,0,REAL,FALSA
,,,,,,,,,65695a10b3ea933621416f25,001,2024-06-30_07h28.26.957,empathy_intonation_perc,2024.1.4,Win32,60.24096386,,,,,,,,,,,,,,58,colcha,,,,,,200.3862,201.0688,1,0,0.1506,,0,142,142,57,1,non_cognate,1,REAL,FALSA
,,,,,,,,,65695a10b3ea933621416f25,001,2024-06-30_07h28.26.957,empathy_intonation_perc,2024.1.4,Win32,60.24096386,,,,,,,,,,,,,,98,martir,,,,,,201.0697,201.9012,0,1,0.3022,,0,143,143,97,1,pseudoword,0,REAL,FALSA
,,,,,,,,,65695a10b3ea933621416f25,001,2024-06-30_07h28.26.957,empathy_intonation_perc,2024.1.4,Win32,60.24096386,,,,,,,,,,,,,,160,fomeó,,,,,,201.9016,202.5506,0,1,0.1148,,0,144,144,159,1,pseudoword,0,REAL,FALSA
,,,,,,,,,65695a10b3ea933621416f25,001,2024-06-30_07h28.26.957,empathy_intonation_perc,2024.1.4,Win32,60.24096386,,,,,,,,,,,,,,43,honor,,,,,,202.551,203.1169,0,1,0.0317,,0,145,145,42,1,two_way_cognate,1,REAL,FALSA
,,,,,,,,,65695a10b3ea933621416f25,001,2024-06-30_07h28.26.957,empathy_intonation_perc,2024.1.4,Win32,60.24096386,,,,,,,,,,,,,,34,actor,,,,,,203.1173,203.7663,0,1,0.1215,,0,146,146,33,1,two_way_cognate,1,REAL,FALSA
,,,,,,,,,65695a10b3ea933621416f25,001,2024-06-30_07h28.26.957,empathy_intonation_perc,2024.1.4,Win32,60.24096386,,,,,,,,,,,,,,61,aduana,,,,,,203.7668,204.4491,0,1,0.1479,,0,147,147,60,1,non_cognate,1,REAL,FALSA
,,,,,,,,,65695a10b3ea933621416f25,001,2024-06-30_07h28.26.957,empathy_intonation_perc,2024.1.4,Win32,60.24096386,,,,,,,,,,,,,,10,drama,,,,,,204.4496,205.3321,0,1,0.3473,,0,148,148,9,1,three_way_cognate,1,REAL,FALSA
,,,,,,,,,65695a10b3ea933621416f25,001,2024-06-30_07h28.26.957,empathy_intonation_perc,2024.1.4,Win32,60.24096386,,,,,,,,,,,,,,97,nocita,,,,,,205.333,206.0146,0,1,0.1467,,0,149,149,96,1,pseudoword,0,REAL,FALSA
,,,,,,,,,65695a10b3ea933621416f25,001,2024-06-30_07h28.26.957,empathy_intonation_perc,2024.1.4,Win32,60.24096386,,,,,,,,,,,,,,4,flora,,,,,,206.0153,206.5642,0,1,0.0153,,0,150,150,3,1,three_way_cognate,1,REAL,FALSA
,,,,,,,,,65695a10b3ea933621416f25,001,2024-06-30_07h28.26.957,empathy_intonation_perc,2024.1.4,Win32,60.24096386,,,,,,,,,,,,,,111,monue,,,,,,206.5649,207.4135,0,1,0.3187,,0,151,151,110,1,pseudoword,0,REAL,FALSA
,,,,,,,,,65695a10b3ea933621416f25,001,2024-06-30_07h28.26.957,empathy_intonation_perc,2024.1.4,Win32,60.24096386,,,,,,,,,,,,,,122,boñaz,,,,,,207.414,208.063,0,1,0.117,,0,152,152,121,1,pseudoword,0,REAL,FALSA
,,,,,,,,,65695a10b3ea933621416f25,001,2024-06-30_07h28.26.957,empathy_intonation_perc,2024.1.4,Win32,60.24096386,,,,,,,,,,,,,,165,chote,,,,,,208.0637,208.929,0,1,0.3365,,0,153,153,164,1,pseudoword,0,REAL,FALSA
,,,,,,,,,65695a10b3ea933621416f25,001,2024-06-30_07h28.26.957,empathy_intonation_perc,2024.1.4,Win32,60.24096386,,,,,,,,,,,,,,104,estulo,,,,,,208.9299,209.9612,1,0,0.4977,,0,154,154,103,1,pseudoword,0,REAL,FALSA
,,,,,,,,,65695a10b3ea933621416f25,001,2024-06-30_07h28.26.957,empathy_intonation_perc,2024.1.4,Win32,60.24096386,,,,,,,,,,,,,,42,rumor,,,,,,209.9616,210.794,0,1,0.3041,,0,155,155,41,1,two_way_cognate,1,REAL,FALSA
,,,,,,,,,65695a10b3ea933621416f25,001,2024-06-30_07h28.26.957,empathy_intonation_perc,2024.1.4,Win32,60.24096386,,,,,,,,,,,,,,142,parre,,,,,,210.7943,211.9433,0,1,0.615,,0,156,156,141,1,pseudoword,0,REAL,FALSA
,,,,,,,,,65695a10b3ea933621416f25,001,2024-06-30_07h28.26.957,empathy_intonation_perc,2024.1.4,Win32,60.24096386,,,,,,,,,,,,,,65,guerra,,,,,,211.9442,212.7426,1,0,0.2634,,0,157,157,64,1,non_cognate,1,REAL,FALSA
,,,,,,,,,65695a10b3ea933621416f25,001,2024-06-30_07h28.26.957,empathy_intonation_perc,2024.1.4,Win32,60.24096386,,,,,,,,,,,,,,17,clan,,,,,,212.7436,213.3254,1,0,0.0494,,0,158,158,16,1,three_way_cognate,1,REAL,FALSA
,,,,,,,,,65695a10b3ea933621416f25,001,2024-06-30_07h28.26.957,empathy_intonation_perc,2024.1.4,Win32,60.24096386,,,,,,,,,,,,,,146,gió,,,,,,213.3263,214.2578,1,0,0.3955,,0,159,159,145,1,pseudoword,0,REAL,FALSA
,,,,,,,,,65695a10b3ea933621416f25,001,2024-06-30_07h28.26.957,empathy_intonation_perc,2024.1.4,Win32,60.24096386,,,,,,,,,,,,,,177,entodo,,,,,,214.2584,215.0242,1,0,0.2335,,0,160,160,176,1,pseudoword,0,REAL,FALSA
,,,,,,,,,65695a10b3ea933621416f25,001,2024-06-30_07h28.26.957,empathy_intonation_perc,2024.1.4,Win32,60.24096386,,,,,,,,,,,,,,154,harvé,,,,,,215.0252,216.0397,1,0,0.4817,,0,161,161,153,1,pseudoword,0,REAL,FALSA
,,,,,,,,,65695a10b3ea933621416f25,001,2024-06-30_07h28.26.957,empathy_intonation_perc,2024.1.4,Win32,60.24096386,,,,,,,,,,,,,,147,alla,,,,,,216.0404,216.6896,1,0,0.1205,,0,162,162,146,1,pseudoword,0,REAL,FALSA
,,,,,,,,,65695a10b3ea933621416f25,001,2024-06-30_07h28.26.957,empathy_intonation_perc,2024.1.4,Win32,60.24096386,,,,,,,,,,,,,,150,cricó,,,,,,216.6911,217.3887,1,0,0.1649,,0,163,163,149,1,pseudoword,0,REAL,FALSA
,,,,,,,,,65695a10b3ea933621416f25,001,2024-06-30_07h28.26.957,empathy_intonation_perc,2024.1.4,Win32,60.24096386,,,,,,,,,,,,,,67,llamar,,,,,,217.3895,218.0047,1,0,0.0807,,0,164,164,66,1,non_cognate,1,REAL,FALSA
,,,,,,,,,65695a10b3ea933621416f25,001,2024-06-30_07h28.26.957,empathy_intonation_perc,2024.1.4,Win32,60.24096386,,,,,,,,,,,,,,178,inichó,,,,,,218.0056,219.0374,1,0,0.5127,,0,165,165,177,1,pseudoword,0,REAL,FALSA
,,,,,,,,,65695a10b3ea933621416f25,001,2024-06-30_07h28.26.957,empathy_intonation_perc,2024.1.4,Win32,60.24096386,,,,,,,,,,,,,,102,coyo,,,,,,219.0383,219.6037,1,0,0.0212,,0,166,166,101,1,pseudoword,0,REAL,FALSA
,,,,,,,,,65695a10b3ea933621416f25,001,2024-06-30_07h28.26.957,empathy_intonation_perc,2024.1.4,Win32,60.24096386,,,,,,,,,,,,,,167,dobbo,,,,,,219.6046,220.5361,1,0,0.4043,,0,167,167,166,1,pseudoword,0,REAL,FALSA
,,,,,,,,,65695a10b3ea933621416f25,001,2024-06-30_07h28.26.957,empathy_intonation_perc,2024.1.4,Win32,60.24096386,,,,,,,,,,,,,,101,losco,,,,,,220.5367,221.552,1,0,0.4822,,0,168,168,100,1,pseudoword,0,REAL,FALSA
,,,,,,,,,65695a10b3ea933621416f25,001,2024-06-30_07h28.26.957,empathy_intonation_perc,2024.1.4,Win32,60.24096386,,,,,,,,,,,,,,95,listo,,,,,,221.5529,222.2846,1,0,0.1979,,0,169,169,94,1,non_cognate,1,REAL,FALSA
,,,,,,,,,65695a10b3ea933621416f25,001,2024-06-30_07h28.26.957,empathy_intonation_perc,2024.1.4,Win32,60.24096386,,,,,,,,,,,,,,72,rostro,,,,,,222.2852,223.5005,1,0,0.681,,0,170,170,71,1,non_cognate,1,REAL,FALSA
,,,,,,,,,65695a10b3ea933621416f25,001,2024-06-30_07h28.26.957,empathy_intonation_perc,2024.1.4,Win32,60.24096386,,,,,,,,,,,,,,181,gravés,,,,,,223.5014,224.4664,1,0,0.4327,,0,171,171,180,1,pseudoword,0,REAL,FALSA
,,,,,,,,,65695a10b3ea933621416f25,001,2024-06-30_07h28.26.957,empathy_intonation_perc,2024.1.4,Win32,60.24096386,,,,,,,,,,,,,,123,arane,,,,,,224.4674,225.4152,1,0,0.4152,,0,172,172,122,1,pseudoword,0,REAL,FALSA
,,,,,,,,,65695a10b3ea933621416f25,001,2024-06-30_07h28.26.957,empathy_intonation_perc,2024.1.4,Win32,60.24096386,,,,,,,,,,,,,,89,muñeca,,,,,,225.4158,226.2813,1,0,0.3339,,0,173,173,88,1,non_cognate,1,REAL,FALSA
,,,,,,,,,65695a10b3ea933621416f25,001,2024-06-30_07h28.26.957,empathy_intonation_perc,2024.1.4,Win32,60.24096386,,,,,,,,,,,,,,47,color,,,,,,226.2821,226.8144,1,0,0.0007,,0,174,174,46,1,two_way_cognate,1,REAL,FALSA
,,,,,,,,,65695a10b3ea933621416f25,001,2024-06-30_07h28.26.957,empathy_intonation_perc,2024.1.4,Win32,60.24096386,,,,,,,,,,,,,,90,venado,,,,,,226.8153,227.4136,1,0,0.0652,,0,175,175,89,1,non_cognate,1,REAL,FALSA
,,,,,,,,,65695a10b3ea933621416f25,001,2024-06-30_07h28.26.957,empathy_intonation_perc,2024.1.4,Win32,60.24096386,,,,,,,,,,,,,,41,pasta,,,,,,227.414,228.3465,1,0,0.3979,,0,176,176,40,1,two_way_cognate,1,REAL,FALSA
,,,,,,,,,65695a10b3ea933621416f25,001,2024-06-30_07h28.26.957,empathy_intonation_perc,2024.1.4,Win32,60.24096386,,,,,,,,,,,,,,93,tapa,,,,,,228.3475,229.3456,0,1,0.4645,,0,177,177,92,1,non_cognate,1,REAL,FALSA
,,,,,,,,,65695a10b3ea933621416f25,001,2024-06-30_07h28.26.957,empathy_intonation_perc,2024.1.4,Win32,60.24096386,,,,,,,,,,,,,,121,barbs,,,,,,229.3466,230.0449,1,0,0.1661,,0,178,178,120,1,pseudoword,0,REAL,FALSA
,,,,,,,,,65695a10b3ea933621416f25,001,2024-06-30_07h28.26.957,empathy_intonation_perc,2024.1.4,Win32,60.24096386,,,,,,,,,,,,,,152,prave,,,,,,230.0453,230.9607,1,0,0.3823,,0,179,179,151,1,pseudoword,0,REAL,FALSA
,,,,,,,,,65695a10b3ea933621416f25,001,2024-06-30_07h28.26.957,empathy_intonation_perc,2024.1.4,Win32,60.24096386,,,,,,,,,,,,,,44,editor,,,,,,230.9612,231.5268,0,1,0.0318,,0,180,180,43,1,two_way_cognate,1,REAL,FALSA
,,,,,,,,,65695a10b3ea933621416f25,001,2024-06-30_07h28.26.957,empathy_intonation_perc,2024.1.4,Win32,60.24096386,,,,,,,,,,,,,,172,dogue,,,,,,231.5272,232.343,0,1,0.275,,0,181,181,171,1,pseudoword,0,REAL,FALSA
,,,,,,,,,65695a10b3ea933621416f25,001,2024-06-30_07h28.26.957,empathy_intonation_perc,2024.1.4,Win32,60.24096386,,,,,,,,,,,,,,63,hilo,,,,,,232.3436,232.8929,1,0,0.0151,,0,182,182,62,1,non_cognate,1,REAL,FALSA
,,,,,,,,,65695a10b3ea933621416f25,001,2024-06-30_07h28.26.957,empathy_intonation_perc,2024.1.4,Win32,60.24096386,,,,,,,,,,,,,,11,golf,,,,,,232.8944,233.4588,1,0,0.0309,,0,183,183,10,1,three_way_cognate,1,REAL,FALSA
,,,,,,,,,65695a10b3ea933621416f25,001,2024-06-30_07h28.26.957,empathy_intonation_perc,2024.1.4,Win32,60.24096386,,,,,,,,,,,,,,1,moral,,,,,,233.4596,234.4915,1,0,0.5042,,0,184,184,0,1,three_way_cognate,1,REAL,FALSA
,,,,,,,,,65695a10b3ea933621416f25,001,2024-06-30_07h28.26.957,empathy_intonation_perc,2024.1.4,Win32,60.24096386,,,,,,,,,,,,,,137,trugo,,,,,,234.4928,235.0574,1,0,0.0356,,0,185,185,136,1,pseudoword,0,REAL,FALSA
,,,,,,,,,65695a10b3ea933621416f25,001,2024-06-30_07h28.26.957,empathy_intonation_perc,2024.1.4,Win32,60.24096386,,,,,,,,,,,,,,21,hotel,,,,,,235.058,236.0566,1,0,0.4651,,0,186,186,20,1,three_way_cognate,1,REAL,FALSA
,,,,,,,,,65695a10b3ea933621416f25,001,2024-06-30_07h28.26.957,empathy_intonation_perc,2024.1.4,Win32,60.24096386,,,,,,,,,,,,,,192,próces,,,,,,236.0571,237.0062,0,1,0.415,,0,187,187,191,1,pseudoword,0,REAL,FALSA
,,,,,,,,,65695a10b3ea933621416f25,001,2024-06-30_07h28.26.957,empathy_intonation_perc,2024.1.4,Win32,60.24096386,,,,,,,,,,,,,,158,babrá,,,,,,237.0071,237.6053,0,1,0.0682,,0,188,188,157,1,pseudoword,0,REAL,FALSA
,,,,,,,,,65695a10b3ea933621416f25,001,2024-06-30_07h28.26.957,empathy_intonation_perc,2024.1.4,Win32,60.24096386,,,,,,,,,,,,,,24,retina,,,,,,237.6057,238.1716,0,1,0.0314,,0,189,189,23,1,three_way_cognate,1,REAL,FALSA
,,,,,,,,,65695a10b3ea933621416f25,001,2024-06-30_07h28.26.957,empathy_intonation_perc,2024.1.4,Win32,60.24096386,,,,,,,,,,,,,,138,tator,,,,,,238.1725,238.7544,0,1,0.0508,,0,190,190,137,1,pseudoword,0,REAL,FALSA
,,,,,,,,,65695a10b3ea933621416f25,001,2024-06-30_07h28.26.957,empathy_intonation_perc,2024.1.4,Win32,60.24096386,,,,,,,,,,,,,,13,plan,,,,,,238.755,239.2873,0,1,0.0043,,0,191,191,12,1,three_way_cognate,1,REAL,FALSA
