lextale_instructions.started,lextale_instructions.stopped,lextale_instructions_loop.thisRepN,lextale_instructions_loop.thisTrialN,lextale_instructions_loop.thisN,lextale_instructions_loop.thisIndex,lextale_instructions_loop.ran,instructions_text,continue_text,participant,session,date,expName,psychopyVersion,OS,frameRate,lextale_practice.started,lextale_practice.stopped,key_resp_lextale_practice.keys,key_resp_lextale_practice.corr,key_resp_lextale_practice.rt,key_resp_lextale_practice.duration,lextale_practice_feedback.started,lextale_practice_feedback.stopped,lextale_practice_trials.thisRepN,lextale_practice_trials.thisTrialN,lextale_practice_trials.thisN,lextale_practice_trials.thisIndex,lextale_practice_trials.ran,stim,word,correct_response,prac_button_real,prac_button_false,lextale_check.started,lextale_check.stopped,lextale_trial.started,lextale_trial.stopped,key_resp_lextale_trial.keys,key_resp_lextale_trial.corr,key_resp_lextale_trial.rt,key_resp_lextale_trial.duration,lextail_trials.thisRepN,lextail_trials.thisTrialN,lextail_trials.thisN,lextail_trials.thisIndex,lextail_trials.ran,type,correct_reponse,button_real,button_false
0.002,105.4806,0,0,0,0,1,"Este es un test de vocabulario en español. 
  
  A continuación vas a ver 90 secuencias de letras que parecen 'españolas'.
  
  Solo algunas de ellas son palabras de verdad.",(presiona la barra espaciadora para continuar),65c1512b51dc8b722a7fe306,001,2024-06-30_08h03.24.854,empathy_intonation_perc,2024.1.4,Win32,60.24096386,,,,,,,,,,,,,,,,,,,,,,,,,,,,,,,,,,,
105.4815,204.7162,0,1,1,1,1,"Por favor, señala las palabras que tú conoces (aquellas que estás convencido que son palabras españolas, incluso aunque no seas capaz de dar el significado preciso).",(presiona la barra espaciadora para continuar),65c1512b51dc8b722a7fe306,001,2024-06-30_08h03.24.854,empathy_intonation_perc,2024.1.4,Win32,60.24096386,,,,,,,,,,,,,,,,,,,,,,,,,,,,,,,,,,,
204.7344,277.0719,0,2,2,2,1,Pero cuidado: los errores se penalizan. Por eso no tiene sentido tratar de incrementar tu puntuación marcando como reales palabras que nunca has visto.,(presiona la barra espaciadora para continuar),65c1512b51dc8b722a7fe306,001,2024-06-30_08h03.24.854,empathy_intonation_perc,2024.1.4,Win32,60.24096386,,,,,,,,,,,,,,,,,,,,,,,,,,,,,,,,,,,
277.0854,333.6699,0,3,3,3,1,"Presiona la tecla 1 si piensas que es una palabra real y la tecla 
  0 si piensas que es una palabra falsa. 
  
  Vamos a practicar un poco...",(presiona la barra espaciadora para continuar),65c1512b51dc8b722a7fe306,001,2024-06-30_08h03.24.854,empathy_intonation_perc,2024.1.4,Win32,60.24096386,,,,,,,,,,,,,,,,,,,,,,,,,,,,,,,,,,,
,,,,,,,,,65c1512b51dc8b722a7fe306,001,2024-06-30_08h03.24.854,empathy_intonation_perc,2024.1.4,Win32,60.24096386,333.6924,346.7539,0,1,12.5339,,346.7716,347.7538,0,0,0,0,1,0,depiste,0,REAL,FALSA,,,,,,,,,,,,,,,,,
,,,,,,,,,65c1512b51dc8b722a7fe306,001,2024-06-30_08h03.24.854,empathy_intonation_perc,2024.1.4,Win32,60.24096386,347.7546,350.9704,1,1,2.6814,,350.9704,351.9699,0,1,1,1,1,0,sí,1,REAL,FALSA,,,,,,,,,,,,,,,,,
,,,,,,,,,65c1512b51dc8b722a7fe306,001,2024-06-30_08h03.24.854,empathy_intonation_perc,2024.1.4,Win32,60.24096386,351.9844,361.8362,0,1,9.3186,,361.8363,362.8362,0,2,2,2,1,0,coné,0,REAL,FALSA,,,,,,,,,,,,,,,,,
,,,,,,,,,65c1512b51dc8b722a7fe306,001,2024-06-30_08h03.24.854,empathy_intonation_perc,2024.1.4,Win32,60.24096386,362.8538,372.754,0,1,9.354,,372.7541,373.7531,0,3,3,3,1,0,calpar,0,REAL,FALSA,,,,,,,,,,,,,,,,,
,,,,,,,,,65c1512b51dc8b722a7fe306,001,2024-06-30_08h03.24.854,empathy_intonation_perc,2024.1.4,Win32,60.24096386,373.7686,380.4874,0,1,6.1852,,380.4874,381.4868,0,4,4,4,1,0,joten,0,REAL,FALSA,,,,,,,,,,,,,,,,,
,,,,,,,,,65c1512b51dc8b722a7fe306,001,2024-06-30_08h03.24.854,empathy_intonation_perc,2024.1.4,Win32,60.24096386,381.5116,388.6404,1,1,6.6005,,388.6407,389.6369,0,5,5,5,1,0,sacapuntas,1,REAL,FALSA,,,,,,,,,,,,,,,,,
,,,,,,,,,65c1512b51dc8b722a7fe306,001,2024-06-30_08h03.24.854,empathy_intonation_perc,2024.1.4,Win32,60.24096386,389.6524,395.4038,1,0,5.2268,,395.404,396.4039,0,6,6,6,1,0,priba,0,REAL,FALSA,,,,,,,,,,,,,,,,,
,,,,,,,,,65c1512b51dc8b722a7fe306,001,2024-06-30_08h03.24.854,empathy_intonation_perc,2024.1.4,Win32,60.24096386,396.4185,404.2384,0,1,7.286,,404.2384,405.2396,0,7,7,7,1,0,pelasula,0,REAL,FALSA,,,,,,,,,,,,,,,,,
,,,,,,,,,65c1512b51dc8b722a7fe306,001,2024-06-30_08h03.24.854,empathy_intonation_perc,2024.1.4,Win32,60.24096386,405.2555,407.6537,1,1,1.8604,,407.6538,408.6545,0,8,8,8,1,0,bien,1,REAL,FALSA,,,,,,,,,,,,,,,,,
,,,,,,,,,65c1512b51dc8b722a7fe306,001,2024-06-30_08h03.24.854,empathy_intonation_perc,2024.1.4,Win32,60.24096386,408.655,410.855,1,1,1.652,,410.8551,411.8542,0,9,9,9,1,0,casa,1,REAL,FALSA,,,,,,,,,,,,,,,,,
,,,,,,,,,65c1512b51dc8b722a7fe306,001,2024-06-30_08h03.24.854,empathy_intonation_perc,2024.1.4,Win32,60.24096386,411.8682,416.7716,1,0,4.373400001,,416.7716,417.7715,0,10,10,10,1,0,lejo,0,REAL,FALSA,,,,,,,,,,,,,,,,,
,,,,,,,,,65c1512b51dc8b722a7fe306,001,2024-06-30_08h03.24.854,empathy_intonation_perc,2024.1.4,Win32,60.24096386,417.7854,426.1878,1,0,7.8749,,426.1879,427.1881,0,11,11,11,1,0,pretantas,0,REAL,FALSA,,,,,,,,,,,,,,,,,
,,,,,,,,,65c1512b51dc8b722a7fe306,001,2024-06-30_08h03.24.854,empathy_intonation_perc,2024.1.4,Win32,60.24096386,,,,,,,,,,,,,,,,,,,427.1895,457.3242,,,,,,,,,,,,,,,
,,,,,,,,,65c1512b51dc8b722a7fe306,001,2024-06-30_08h03.24.854,empathy_intonation_perc,2024.1.4,Win32,60.24096386,,,,,,,,,,,,,,102,coyo,,,,,,457.3507,461.9273,0,1,4.0618,,0,0,0,101,1,pseudoword,0,REAL,FALSA
,,,,,,,,,65c1512b51dc8b722a7fe306,001,2024-06-30_08h03.24.854,empathy_intonation_perc,2024.1.4,Win32,60.24096386,,,,,,,,,,,,,,144,diroco,,,,,,461.9424,468.4096,0,1,5.9335,,0,1,1,143,1,pseudoword,0,REAL,FALSA
,,,,,,,,,65c1512b51dc8b722a7fe306,001,2024-06-30_08h03.24.854,empathy_intonation_perc,2024.1.4,Win32,60.24096386,,,,,,,,,,,,,,89,muñeca,,,,,,468.4271,477.609,1,0,8.649700001,,0,2,2,88,1,non_cognate,1,REAL,FALSA
,,,,,,,,,65c1512b51dc8b722a7fe306,001,2024-06-30_08h03.24.854,empathy_intonation_perc,2024.1.4,Win32,60.24096386,,,,,,,,,,,,,,95,listo,,,,,,477.6254,482.3396,1,0,4.170400001,,0,3,3,94,1,non_cognate,1,REAL,FALSA
,,,,,,,,,65c1512b51dc8b722a7fe306,001,2024-06-30_08h03.24.854,empathy_intonation_perc,2024.1.4,Win32,60.24096386,,,,,,,,,,,,,,34,actor,,,,,,482.3562,490.8102,1,0,7.9346,,0,4,4,33,1,two_way_cognate,1,REAL,FALSA
,,,,,,,,,65c1512b51dc8b722a7fe306,001,2024-06-30_08h03.24.854,empathy_intonation_perc,2024.1.4,Win32,60.24096386,,,,,,,,,,,,,,90,venado,,,,,,490.828,496.3896,1,0,5.0275,,0,5,5,89,1,non_cognate,1,REAL,FALSA
,,,,,,,,,65c1512b51dc8b722a7fe306,001,2024-06-30_08h03.24.854,empathy_intonation_perc,2024.1.4,Win32,60.24096386,,,,,,,,,,,,,,140,chorde,,,,,,496.4075,503.1069,0,1,6.1772,,0,6,6,139,1,pseudoword,0,REAL,FALSA
,,,,,,,,,65c1512b51dc8b722a7fe306,001,2024-06-30_08h03.24.854,empathy_intonation_perc,2024.1.4,Win32,60.24096386,,,,,,,,,,,,,,69,tiza,,,,,,503.1242,507.8239,1,0,4.1578,,0,7,7,68,1,non_cognate,1,REAL,FALSA
,,,,,,,,,65c1512b51dc8b722a7fe306,001,2024-06-30_08h03.24.854,empathy_intonation_perc,2024.1.4,Win32,60.24096386,,,,,,,,,,,,,,40,pelvis,,,,,,507.8397,514.8572,0,1,6.4875,,0,8,8,39,1,two_way_cognate,1,REAL,FALSA
,,,,,,,,,65c1512b51dc8b722a7fe306,001,2024-06-30_08h03.24.854,empathy_intonation_perc,2024.1.4,Win32,60.24096386,,,,,,,,,,,,,,152,prave,,,,,,514.8746,520.9736,0,1,5.578,,0,9,9,151,1,pseudoword,0,REAL,FALSA
,,,,,,,,,65c1512b51dc8b722a7fe306,001,2024-06-30_08h03.24.854,empathy_intonation_perc,2024.1.4,Win32,60.24096386,,,,,,,,,,,,,,118,bará,,,,,,520.9882,529.0904,0,1,7.579099999,,0,10,10,117,1,pseudoword,0,REAL,FALSA
,,,,,,,,,65c1512b51dc8b722a7fe306,001,2024-06-30_08h03.24.854,empathy_intonation_perc,2024.1.4,Win32,60.24096386,,,,,,,,,,,,,,139,sasos,,,,,,529.1055,547.6746,0,1,18.0397,,0,11,11,138,1,pseudoword,0,REAL,FALSA
,,,,,,,,,65c1512b51dc8b722a7fe306,001,2024-06-30_08h03.24.854,empathy_intonation_perc,2024.1.4,Win32,60.24096386,,,,,,,,,,,,,,129,vinzó,,,,,,547.6904,554.0913,0,1,5.8703,,0,12,12,128,1,pseudoword,0,REAL,FALSA
,,,,,,,,,65c1512b51dc8b722a7fe306,001,2024-06-30_08h03.24.854,empathy_intonation_perc,2024.1.4,Win32,60.24096386,,,,,,,,,,,,,,114,dibrea,,,,,,554.1065,562.0581,0,1,7.4305,,0,13,13,113,1,pseudoword,0,REAL,FALSA
,,,,,,,,,65c1512b51dc8b722a7fe306,001,2024-06-30_08h03.24.854,empathy_intonation_perc,2024.1.4,Win32,60.24096386,,,,,,,,,,,,,,81,sacar,,,,,,562.0718,570.0768,1,0,7.4826,,0,14,14,80,1,non_cognate,1,REAL,FALSA
,,,,,,,,,65c1512b51dc8b722a7fe306,001,2024-06-30_08h03.24.854,empathy_intonation_perc,2024.1.4,Win32,60.24096386,,,,,,,,,,,,,,113,nasce,,,,,,570.0873,579.0419,1,0,8.428,,0,15,15,112,1,pseudoword,0,REAL,FALSA
,,,,,,,,,65c1512b51dc8b722a7fe306,001,2024-06-30_08h03.24.854,empathy_intonation_perc,2024.1.4,Win32,60.24096386,,,,,,,,,,,,,,182,desaro,,,,,,579.0598,585.9923,0,1,6.389,,0,16,16,181,1,pseudoword,0,REAL,FALSA
,,,,,,,,,65c1512b51dc8b722a7fe306,001,2024-06-30_08h03.24.854,empathy_intonation_perc,2024.1.4,Win32,60.24096386,,,,,,,,,,,,,,84,aviso,,,,,,586.0073,591.4758,1,0,4.938799999,,0,17,17,83,1,non_cognate,1,REAL,FALSA
,,,,,,,,,65c1512b51dc8b722a7fe306,001,2024-06-30_08h03.24.854,empathy_intonation_perc,2024.1.4,Win32,60.24096386,,,,,,,,,,,,,,13,plan,,,,,,591.491,601.4594,0,1,9.4387,,0,18,18,12,1,three_way_cognate,1,REAL,FALSA
,,,,,,,,,65c1512b51dc8b722a7fe306,001,2024-06-30_08h03.24.854,empathy_intonation_perc,2024.1.4,Win32,60.24096386,,,,,,,,,,,,,,101,losco,,,,,,601.4747,606.1928,0,1,4.1858,,0,19,19,100,1,pseudoword,0,REAL,FALSA
,,,,,,,,,65c1512b51dc8b722a7fe306,001,2024-06-30_08h03.24.854,empathy_intonation_perc,2024.1.4,Win32,60.24096386,,,,,,,,,,,,,,91,equipo,,,,,,606.2081,613.996,1,0,7.2666,,0,20,20,90,1,non_cognate,1,REAL,FALSA
,,,,,,,,,65c1512b51dc8b722a7fe306,001,2024-06-30_08h03.24.854,empathy_intonation_perc,2024.1.4,Win32,60.24096386,,,,,,,,,,,,,,28,ardor,,,,,,614.0116,620.8434,1,0,6.2844,,0,21,21,27,1,two_way_cognate,1,REAL,FALSA
,,,,,,,,,65c1512b51dc8b722a7fe306,001,2024-06-30_08h03.24.854,empathy_intonation_perc,2024.1.4,Win32,60.24096386,,,,,,,,,,,,,,66,aleta,,,,,,620.8604,628.1295,1,0,6.7506,,0,22,22,65,1,non_cognate,1,REAL,FALSA
,,,,,,,,,65c1512b51dc8b722a7fe306,001,2024-06-30_08h03.24.854,empathy_intonation_perc,2024.1.4,Win32,60.24096386,,,,,,,,,,,,,,108,jauda,,,,,,628.1441,633.8765,0,1,5.192,,0,23,23,107,1,pseudoword,0,REAL,FALSA
,,,,,,,,,65c1512b51dc8b722a7fe306,001,2024-06-30_08h03.24.854,empathy_intonation_perc,2024.1.4,Win32,60.24096386,,,,,,,,,,,,,,147,alla,,,,,,633.8939,639.2434,1,0,4.8056,,0,24,24,146,1,pseudoword,0,REAL,FALSA
,,,,,,,,,65c1512b51dc8b722a7fe306,001,2024-06-30_08h03.24.854,empathy_intonation_perc,2024.1.4,Win32,60.24096386,,,,,,,,,,,,,,20,trauma,,,,,,639.2582,645.1437,1,0,5.3514,,0,25,25,19,1,three_way_cognate,1,REAL,FALSA
,,,,,,,,,65c1512b51dc8b722a7fe306,001,2024-06-30_08h03.24.854,empathy_intonation_perc,2024.1.4,Win32,60.24096386,,,,,,,,,,,,,,132,nocó,,,,,,645.1577,651.7133,0,1,6.033900001,,0,26,26,131,1,pseudoword,0,REAL,FALSA
,,,,,,,,,65c1512b51dc8b722a7fe306,001,2024-06-30_08h03.24.854,empathy_intonation_perc,2024.1.4,Win32,60.24096386,,,,,,,,,,,,,,67,llamar,,,,,,651.7303,653.3268,1,0,1.0633,,0,27,27,66,1,non_cognate,1,REAL,FALSA
,,,,,,,,,65c1512b51dc8b722a7fe306,001,2024-06-30_08h03.24.854,empathy_intonation_perc,2024.1.4,Win32,60.24096386,,,,,,,,,,,,,,168,cobén,,,,,,653.3275,660.2934,0,1,6.4458,,0,28,28,167,1,pseudoword,0,REAL,FALSA
,,,,,,,,,65c1512b51dc8b722a7fe306,001,2024-06-30_08h03.24.854,empathy_intonation_perc,2024.1.4,Win32,60.24096386,,,,,,,,,,,,,,41,pasta,,,,,,660.3082,671.1609,0,1,10.3189,,0,29,29,40,1,two_way_cognate,1,REAL,FALSA
,,,,,,,,,65c1512b51dc8b722a7fe306,001,2024-06-30_08h03.24.854,empathy_intonation_perc,2024.1.4,Win32,60.24096386,,,,,,,,,,,,,,180,pupica,,,,,,671.1773,679.8462,0,1,8.148799999,,0,30,30,179,1,pseudoword,0,REAL,FALSA
,,,,,,,,,65c1512b51dc8b722a7fe306,001,2024-06-30_08h03.24.854,empathy_intonation_perc,2024.1.4,Win32,60.24096386,,,,,,,,,,,,,,167,dobbo,,,,,,679.8632,685.1468,0,1,4.7493,,0,31,31,166,1,pseudoword,0,REAL,FALSA
,,,,,,,,,65c1512b51dc8b722a7fe306,001,2024-06-30_08h03.24.854,empathy_intonation_perc,2024.1.4,Win32,60.24096386,,,,,,,,,,,,,,37,torso,,,,,,685.1607,690.5282,1,0,4.8357,,0,32,32,36,1,two_way_cognate,1,REAL,FALSA
,,,,,,,,,65c1512b51dc8b722a7fe306,001,2024-06-30_08h03.24.854,empathy_intonation_perc,2024.1.4,Win32,60.24096386,,,,,,,,,,,,,,170,diabo,,,,,,690.5449,695.4449,1,0,4.3593,,0,33,33,169,1,pseudoword,0,REAL,FALSA
,,,,,,,,,65c1512b51dc8b722a7fe306,001,2024-06-30_08h03.24.854,empathy_intonation_perc,2024.1.4,Win32,60.24096386,,,,,,,,,,,,,,185,aljizo,,,,,,695.4617,703.3991,0,1,7.417900001,,0,34,34,184,1,pseudoword,0,REAL,FALSA
,,,,,,,,,65c1512b51dc8b722a7fe306,001,2024-06-30_08h03.24.854,empathy_intonation_perc,2024.1.4,Win32,60.24096386,,,,,,,,,,,,,,48,pelvis,,,,,,703.4159,721.6285,1,0,17.6803,,0,35,35,47,1,two_way_cognate,1,REAL,FALSA
,,,,,,,,,65c1512b51dc8b722a7fe306,001,2024-06-30_08h03.24.854,empathy_intonation_perc,2024.1.4,Win32,60.24096386,,,,,,,,,,,,,,184,huenos,,,,,,721.6447,729.2795,1,0,7.1094,,0,36,36,183,1,pseudoword,0,REAL,FALSA
,,,,,,,,,65c1512b51dc8b722a7fe306,001,2024-06-30_08h03.24.854,empathy_intonation_perc,2024.1.4,Win32,60.24096386,,,,,,,,,,,,,,188,amplir,,,,,,729.2943,735.6795,1,0,5.86,,0,37,37,187,1,pseudoword,0,REAL,FALSA
,,,,,,,,,65c1512b51dc8b722a7fe306,001,2024-06-30_08h03.24.854,empathy_intonation_perc,2024.1.4,Win32,60.24096386,,,,,,,,,,,,,,53,punta,,,,,,735.6943,741.5122,1,0,5.2875,,0,38,38,52,1,non_cognate,1,REAL,FALSA
,,,,,,,,,65c1512b51dc8b722a7fe306,001,2024-06-30_08h03.24.854,empathy_intonation_perc,2024.1.4,Win32,60.24096386,,,,,,,,,,,,,,58,colcha,,,,,,741.5251,747.2462,1,0,5.195400001,,0,39,39,57,1,non_cognate,1,REAL,FALSA
,,,,,,,,,65c1512b51dc8b722a7fe306,001,2024-06-30_08h03.24.854,empathy_intonation_perc,2024.1.4,Win32,60.24096386,,,,,,,,,,,,,,94,forro,,,,,,747.2596,753.1999,1,0,5.4175,,0,40,40,93,1,non_cognate,1,REAL,FALSA
,,,,,,,,,65c1512b51dc8b722a7fe306,001,2024-06-30_08h03.24.854,empathy_intonation_perc,2024.1.4,Win32,60.24096386,,,,,,,,,,,,,,93,tapa,,,,,,753.2161,757.2966,1,0,3.540299999,,0,41,41,92,1,non_cognate,1,REAL,FALSA
,,,,,,,,,65c1512b51dc8b722a7fe306,001,2024-06-30_08h03.24.854,empathy_intonation_perc,2024.1.4,Win32,60.24096386,,,,,,,,,,,,,,107,plago,,,,,,757.3102,762.6471,1,0,4.8026,,0,42,42,106,1,pseudoword,0,REAL,FALSA
,,,,,,,,,65c1512b51dc8b722a7fe306,001,2024-06-30_08h03.24.854,empathy_intonation_perc,2024.1.4,Win32,60.24096386,,,,,,,,,,,,,,126,tobre,,,,,,762.6646,769.5641,0,1,6.3815,,0,43,43,125,1,pseudoword,0,REAL,FALSA
,,,,,,,,,65c1512b51dc8b722a7fe306,001,2024-06-30_08h03.24.854,empathy_intonation_perc,2024.1.4,Win32,60.24096386,,,,,,,,,,,,,,45,total,,,,,,769.5812,778.0632,1,0,7.9349,,0,44,44,44,1,two_way_cognate,1,REAL,FALSA
,,,,,,,,,65c1512b51dc8b722a7fe306,001,2024-06-30_08h03.24.854,empathy_intonation_perc,2024.1.4,Win32,60.24096386,,,,,,,,,,,,,,50,sierra,,,,,,778.077,786.0636,1,0,7.459,,0,45,45,49,1,non_cognate,1,REAL,FALSA
,,,,,,,,,65c1512b51dc8b722a7fe306,001,2024-06-30_08h03.24.854,empathy_intonation_perc,2024.1.4,Win32,60.24096386,,,,,,,,,,,,,,61,aduana,,,,,,786.0801,793.4676,1,0,6.8516,,0,46,46,60,1,non_cognate,1,REAL,FALSA
,,,,,,,,,65c1512b51dc8b722a7fe306,001,2024-06-30_08h03.24.854,empathy_intonation_perc,2024.1.4,Win32,60.24096386,,,,,,,,,,,,,,4,flora,,,,,,793.4849,804.9471,1,0,10.9304,,0,47,47,3,1,three_way_cognate,1,REAL,FALSA
,,,,,,,,,65c1512b51dc8b722a7fe306,001,2024-06-30_08h03.24.854,empathy_intonation_perc,2024.1.4,Win32,60.24096386,,,,,,,,,,,,,,175,tradía,,,,,,804.9618,813.9671,0,1,8.4835,,0,48,48,174,1,pseudoword,0,REAL,FALSA
,,,,,,,,,65c1512b51dc8b722a7fe306,001,2024-06-30_08h03.24.854,empathy_intonation_perc,2024.1.4,Win32,60.24096386,,,,,,,,,,,,,,18,altar,,,,,,813.9821,823.8815,1,0,9.374,,0,49,49,17,1,three_way_cognate,1,REAL,FALSA
,,,,,,,,,65c1512b51dc8b722a7fe306,001,2024-06-30_08h03.24.854,empathy_intonation_perc,2024.1.4,Win32,60.24096386,,,,,,,,,,,,,,6,horror,,,,,,823.8988,831.9153,1,0,7.468900001,,0,50,50,5,1,three_way_cognate,1,REAL,FALSA
,,,,,,,,,65c1512b51dc8b722a7fe306,001,2024-06-30_08h03.24.854,empathy_intonation_perc,2024.1.4,Win32,60.24096386,,,,,,,,,,,,,,133,conso,,,,,,831.9302,839.5356,0,1,7.0841,,0,51,51,132,1,pseudoword,0,REAL,FALSA
,,,,,,,,,65c1512b51dc8b722a7fe306,001,2024-06-30_08h03.24.854,empathy_intonation_perc,2024.1.4,Win32,60.24096386,,,,,,,,,,,,,,105,leniz,,,,,,839.5531,845.6491,0,1,5.552,,0,52,52,104,1,pseudoword,0,REAL,FALSA
,,,,,,,,,65c1512b51dc8b722a7fe306,001,2024-06-30_08h03.24.854,empathy_intonation_perc,2024.1.4,Win32,60.24096386,,,,,,,,,,,,,,178,inichó,,,,,,845.6645,852.8653,1,0,6.679200001,,0,53,53,177,1,pseudoword,0,REAL,FALSA
,,,,,,,,,65c1512b51dc8b722a7fe306,001,2024-06-30_08h03.24.854,empathy_intonation_perc,2024.1.4,Win32,60.24096386,,,,,,,,,,,,,,151,prías,,,,,,852.88,858.8827,0,1,5.4749,,0,54,54,150,1,pseudoword,0,REAL,FALSA
,,,,,,,,,65c1512b51dc8b722a7fe306,001,2024-06-30_08h03.24.854,empathy_intonation_perc,2024.1.4,Win32,60.24096386,,,,,,,,,,,,,,150,cricó,,,,,,858.8999,864.4324,0,1,5.0053,,0,55,55,149,1,pseudoword,0,REAL,FALSA
,,,,,,,,,65c1512b51dc8b722a7fe306,001,2024-06-30_08h03.24.854,empathy_intonation_perc,2024.1.4,Win32,60.24096386,,,,,,,,,,,,,,43,honor,,,,,,864.45,872.6498,1,0,7.6577,,0,56,56,42,1,two_way_cognate,1,REAL,FALSA
,,,,,,,,,65c1512b51dc8b722a7fe306,001,2024-06-30_08h03.24.854,empathy_intonation_perc,2024.1.4,Win32,60.24096386,,,,,,,,,,,,,,22,mango,,,,,,872.6673,882.816,1,0,9.6035,,0,57,57,21,1,three_way_cognate,1,REAL,FALSA
,,,,,,,,,65c1512b51dc8b722a7fe306,001,2024-06-30_08h03.24.854,empathy_intonation_perc,2024.1.4,Win32,60.24096386,,,,,,,,,,,,,,80,cuenco,,,,,,882.8307,892.0348,1,0,8.6832,,0,58,58,79,1,non_cognate,1,REAL,FALSA
,,,,,,,,,65c1512b51dc8b722a7fe306,001,2024-06-30_08h03.24.854,empathy_intonation_perc,2024.1.4,Win32,60.24096386,,,,,,,,,,,,,,42,rumor,,,,,,892.0515,899.2832,1,0,6.6893,,0,59,59,41,1,two_way_cognate,1,REAL,FALSA
,,,,,,,,,65c1512b51dc8b722a7fe306,001,2024-06-30_08h03.24.854,empathy_intonation_perc,2024.1.4,Win32,60.24096386,,,,,,,,,,,,,,36,viable,,,,,,899.2993,905.567,0,1,5.7383,,0,60,60,35,1,two_way_cognate,1,REAL,FALSA
,,,,,,,,,65c1512b51dc8b722a7fe306,001,2024-06-30_08h03.24.854,empathy_intonation_perc,2024.1.4,Win32,60.24096386,,,,,,,,,,,,,,56,pico,,,,,,905.5808,911.4356,1,0,5.3322,,0,61,61,55,1,non_cognate,1,REAL,FALSA
,,,,,,,,,65c1512b51dc8b722a7fe306,001,2024-06-30_08h03.24.854,empathy_intonation_perc,2024.1.4,Win32,60.24096386,,,,,,,,,,,,,,97,nocita,,,,,,911.4429,917.6839,0,1,5.706700001,,0,62,62,96,1,pseudoword,0,REAL,FALSA
,,,,,,,,,65c1512b51dc8b722a7fe306,001,2024-06-30_08h03.24.854,empathy_intonation_perc,2024.1.4,Win32,60.24096386,,,,,,,,,,,,,,74,ala,,,,,,917.6989,923.2364,1,0,5.016799999,,0,63,63,73,1,non_cognate,1,REAL,FALSA
,,,,,,,,,65c1512b51dc8b722a7fe306,001,2024-06-30_08h03.24.854,empathy_intonation_perc,2024.1.4,Win32,60.24096386,,,,,,,,,,,,,,104,estulo,,,,,,923.2524,932.588,1,0,8.8011,,0,64,64,103,1,pseudoword,0,REAL,FALSA
,,,,,,,,,65c1512b51dc8b722a7fe306,001,2024-06-30_08h03.24.854,empathy_intonation_perc,2024.1.4,Win32,60.24096386,,,,,,,,,,,,,,131,fuar,,,,,,932.6048,937.5179,0,1,4.3797,,0,65,65,130,1,pseudoword,0,REAL,FALSA
,,,,,,,,,65c1512b51dc8b722a7fe306,001,2024-06-30_08h03.24.854,empathy_intonation_perc,2024.1.4,Win32,60.24096386,,,,,,,,,,,,,,172,dogue,,,,,,937.5335,944.9214,0,1,6.8673,,0,66,66,171,1,pseudoword,0,REAL,FALSA
,,,,,,,,,65c1512b51dc8b722a7fe306,001,2024-06-30_08h03.24.854,empathy_intonation_perc,2024.1.4,Win32,60.24096386,,,,,,,,,,,,,,159,trcia,,,,,,944.9395,951.2346,0,1,5.7582,,0,67,67,158,1,pseudoword,0,REAL,FALSA
,,,,,,,,,65c1512b51dc8b722a7fe306,001,2024-06-30_08h03.24.854,empathy_intonation_perc,2024.1.4,Win32,60.24096386,,,,,,,,,,,,,,173,mibro,,,,,,951.2495,956.801,0,1,5.026,,0,68,68,172,1,pseudoword,0,REAL,FALSA
,,,,,,,,,65c1512b51dc8b722a7fe306,001,2024-06-30_08h03.24.854,empathy_intonation_perc,2024.1.4,Win32,60.24096386,,,,,,,,,,,,,,19,mafia,,,,,,956.8167,962.785,1,0,5.4373,,0,69,69,18,1,three_way_cognate,1,REAL,FALSA
,,,,,,,,,65c1512b51dc8b722a7fe306,001,2024-06-30_08h03.24.854,empathy_intonation_perc,2024.1.4,Win32,60.24096386,,,,,,,,,,,,,,65,guerra,,,,,,962.7999,968.7691,1,0,5.4398,,0,70,70,64,1,non_cognate,1,REAL,FALSA
,,,,,,,,,65c1512b51dc8b722a7fe306,001,2024-06-30_08h03.24.854,empathy_intonation_perc,2024.1.4,Win32,60.24096386,,,,,,,,,,,,,,181,gravés,,,,,,968.7841,975.9849,1,0,6.6735,,0,71,71,180,1,pseudoword,0,REAL,FALSA
,,,,,,,,,65c1512b51dc8b722a7fe306,001,2024-06-30_08h03.24.854,empathy_intonation_perc,2024.1.4,Win32,60.24096386,,,,,,,,,,,,,,16,chat,,,,,,976.0033,989.769,0,1,13.2274,,0,72,72,15,1,three_way_cognate,1,REAL,FALSA
,,,,,,,,,65c1512b51dc8b722a7fe306,001,2024-06-30_08h03.24.854,empathy_intonation_perc,2024.1.4,Win32,60.24096386,,,,,,,,,,,,,,70,ánimo,,,,,,989.7829,996.2227,1,0,5.9172,,0,73,73,69,1,non_cognate,1,REAL,FALSA
,,,,,,,,,65c1512b51dc8b722a7fe306,001,2024-06-30_08h03.24.854,empathy_intonation_perc,2024.1.4,Win32,60.24096386,,,,,,,,,,,,,,31,civil,,,,,,996.2386,1005.1189,1,0,8.3448,,0,74,74,30,1,two_way_cognate,1,REAL,FALSA
,,,,,,,,,65c1512b51dc8b722a7fe306,001,2024-06-30_08h03.24.854,empathy_intonation_perc,2024.1.4,Win32,60.24096386,,,,,,,,,,,,,,128,pelí,,,,,,1005.1334,1012.1392,1,0,6.4845,,0,75,75,127,1,pseudoword,0,REAL,FALSA
,,,,,,,,,65c1512b51dc8b722a7fe306,001,2024-06-30_08h03.24.854,empathy_intonation_perc,2024.1.4,Win32,60.24096386,,,,,,,,,,,,,,119,esís,,,,,,1012.1532,1018.7383,0,1,6.0495,,0,76,76,118,1,pseudoword,0,REAL,FALSA
,,,,,,,,,65c1512b51dc8b722a7fe306,001,2024-06-30_08h03.24.854,empathy_intonation_perc,2024.1.4,Win32,60.24096386,,,,,,,,,,,,,,73,llevar,,,,,,1018.7521,1024.0863,1,0,4.8133,,0,77,77,72,1,non_cognate,1,REAL,FALSA
,,,,,,,,,65c1512b51dc8b722a7fe306,001,2024-06-30_08h03.24.854,empathy_intonation_perc,2024.1.4,Win32,60.24096386,,,,,,,,,,,,,,75,patada,,,,,,1024.0994,1030.6369,1,0,6.008599999,,0,78,78,74,1,non_cognate,1,REAL,FALSA
,,,,,,,,,65c1512b51dc8b722a7fe306,001,2024-06-30_08h03.24.854,empathy_intonation_perc,2024.1.4,Win32,60.24096386,,,,,,,,,,,,,,154,harvé,,,,,,1030.6523,1037.0537,0,1,5.8693,,0,79,79,153,1,pseudoword,0,REAL,FALSA
,,,,,,,,,65c1512b51dc8b722a7fe306,001,2024-06-30_08h03.24.854,empathy_intonation_perc,2024.1.4,Win32,60.24096386,,,,,,,,,,,,,,30,fiscal,,,,,,1037.0687,1043.5045,1,0,5.911,,0,80,80,29,1,two_way_cognate,1,REAL,FALSA
,,,,,,,,,65c1512b51dc8b722a7fe306,001,2024-06-30_08h03.24.854,empathy_intonation_perc,2024.1.4,Win32,60.24096386,,,,,,,,,,,,,,14,aura,,,,,,1043.5213,1049.6231,1,0,5.5668,,0,81,81,13,1,three_way_cognate,1,REAL,FALSA
,,,,,,,,,65c1512b51dc8b722a7fe306,001,2024-06-30_08h03.24.854,empathy_intonation_perc,2024.1.4,Win32,60.24096386,,,,,,,,,,,,,,71,torta,,,,,,1049.6378,1056.8742,1,0,6.7171,,0,82,82,70,1,non_cognate,1,REAL,FALSA
,,,,,,,,,65c1512b51dc8b722a7fe306,001,2024-06-30_08h03.24.854,empathy_intonation_perc,2024.1.4,Win32,60.24096386,,,,,,,,,,,,,,125,ceme,,,,,,1056.8909,1065.404,0,1,7.9694,,0,83,83,124,1,pseudoword,0,REAL,FALSA
,,,,,,,,,65c1512b51dc8b722a7fe306,001,2024-06-30_08h03.24.854,empathy_intonation_perc,2024.1.4,Win32,60.24096386,,,,,,,,,,,,,,46,mortal,,,,,,1065.4195,1073.8535,1,0,7.8992,,0,84,84,45,1,two_way_cognate,1,REAL,FALSA
,,,,,,,,,65c1512b51dc8b722a7fe306,001,2024-06-30_08h03.24.854,empathy_intonation_perc,2024.1.4,Win32,60.24096386,,,,,,,,,,,,,,146,gió,,,,,,1073.8586,1079.2539,0,1,4.8602,,0,85,85,145,1,pseudoword,0,REAL,FALSA
,,,,,,,,,65c1512b51dc8b722a7fe306,001,2024-06-30_08h03.24.854,empathy_intonation_perc,2024.1.4,Win32,60.24096386,,,,,,,,,,,,,,103,vueras,,,,,,1079.2664,1086.4546,1,0,6.6638,,0,86,86,102,1,pseudoword,0,REAL,FALSA
,,,,,,,,,65c1512b51dc8b722a7fe306,001,2024-06-30_08h03.24.854,empathy_intonation_perc,2024.1.4,Win32,60.24096386,,,,,,,,,,,,,,109,laras,,,,,,1086.4728,1094.4755,0,1,7.4855,,0,87,87,108,1,pseudoword,0,REAL,FALSA
,,,,,,,,,65c1512b51dc8b722a7fe306,001,2024-06-30_08h03.24.854,empathy_intonation_perc,2024.1.4,Win32,60.24096386,,,,,,,,,,,,,,192,próces,,,,,,1094.4912,1102.5551,1,0,7.5218,,0,88,88,191,1,pseudoword,0,REAL,FALSA
,,,,,,,,,65c1512b51dc8b722a7fe306,001,2024-06-30_08h03.24.854,empathy_intonation_perc,2024.1.4,Win32,60.24096386,,,,,,,,,,,,,,26,enigma,,,,,,1102.5699,1109.0218,0,1,5.918200001,,0,89,89,25,1,two_way_cognate,1,REAL,FALSA
,,,,,,,,,65c1512b51dc8b722a7fe306,001,2024-06-30_08h03.24.854,empathy_intonation_perc,2024.1.4,Win32,60.24096386,,,,,,,,,,,,,,98,martir,,,,,,1109.0328,1118.9388,1,0,9.3731,,0,90,90,97,1,pseudoword,0,REAL,FALSA
,,,,,,,,,65c1512b51dc8b722a7fe306,001,2024-06-30_08h03.24.854,empathy_intonation_perc,2024.1.4,Win32,60.24096386,,,,,,,,,,,,,,32,animal,,,,,,1118.9549,1126.6225,1,0,7.1427,,0,91,91,31,1,two_way_cognate,1,REAL,FALSA
,,,,,,,,,65c1512b51dc8b722a7fe306,001,2024-06-30_08h03.24.854,empathy_intonation_perc,2024.1.4,Win32,60.24096386,,,,,,,,,,,,,,92,flecha,,,,,,1126.6372,1134.6395,0,1,7.4698,,0,92,92,91,1,non_cognate,1,REAL,FALSA
,,,,,,,,,65c1512b51dc8b722a7fe306,001,2024-06-30_08h03.24.854,empathy_intonation_perc,2024.1.4,Win32,60.24096386,,,,,,,,,,,,,,86,cuenco,,,,,,1134.6567,1144.6559,0,1,9.4627,,0,93,93,85,1,non_cognate,1,REAL,FALSA
,,,,,,,,,65c1512b51dc8b722a7fe306,001,2024-06-30_08h03.24.854,empathy_intonation_perc,2024.1.4,Win32,60.24096386,,,,,,,,,,,,,,59,feo,,,,,,1144.6707,1152.6734,0,1,7.4691,,0,94,94,58,1,non_cognate,1,REAL,FALSA
,,,,,,,,,65c1512b51dc8b722a7fe306,001,2024-06-30_08h03.24.854,empathy_intonation_perc,2024.1.4,Win32,60.24096386,,,,,,,,,,,,,,160,fomeó,,,,,,1152.6889,1158.2391,0,1,5.027099999,,0,95,95,159,1,pseudoword,0,REAL,FALSA
,,,,,,,,,65c1512b51dc8b722a7fe306,001,2024-06-30_08h03.24.854,empathy_intonation_perc,2024.1.4,Win32,60.24096386,,,,,,,,,,,,,,156,ozoso,,,,,,1158.2439,1165.3399,0,1,6.5552,,0,96,96,155,1,pseudoword,0,REAL,FALSA
,,,,,,,,,65c1512b51dc8b722a7fe306,001,2024-06-30_08h03.24.854,empathy_intonation_perc,2024.1.4,Win32,60.24096386,,,,,,,,,,,,,,162,cengo,,,,,,1165.3551,1172.8566,0,1,6.9728,,0,97,97,161,1,pseudoword,0,REAL,FALSA
,,,,,,,,,65c1512b51dc8b722a7fe306,001,2024-06-30_08h03.24.854,empathy_intonation_perc,2024.1.4,Win32,60.24096386,,,,,,,,,,,,,,35,aurora,,,,,,1172.8707,1180.7903,1,0,7.393400001,,0,98,98,34,1,two_way_cognate,1,REAL,FALSA
,,,,,,,,,65c1512b51dc8b722a7fe306,001,2024-06-30_08h03.24.854,empathy_intonation_perc,2024.1.4,Win32,60.24096386,,,,,,,,,,,,,,183,edioso,,,,,,1180.8059,1188.3071,0,1,6.9698,,0,99,99,182,1,pseudoword,0,REAL,FALSA
,,,,,,,,,65c1512b51dc8b722a7fe306,001,2024-06-30_08h03.24.854,empathy_intonation_perc,2024.1.4,Win32,60.24096386,,,,,,,,,,,,,,88,percha,,,,,,1188.3213,1193.7908,1,0,4.945,,0,100,100,87,1,non_cognate,1,REAL,FALSA
,,,,,,,,,65c1512b51dc8b722a7fe306,001,2024-06-30_08h03.24.854,empathy_intonation_perc,2024.1.4,Win32,60.24096386,,,,,,,,,,,,,,76,chocar,,,,,,1193.8061,1201.5905,0,1,7.258900001,,0,101,101,75,1,non_cognate,1,REAL,FALSA
,,,,,,,,,65c1512b51dc8b722a7fe306,001,2024-06-30_08h03.24.854,empathy_intonation_perc,2024.1.4,Win32,60.24096386,,,,,,,,,,,,,,9,portal,,,,,,1201.605,1206.8772,1,0,4.7492,,0,102,102,8,1,three_way_cognate,1,REAL,FALSA
,,,,,,,,,65c1512b51dc8b722a7fe306,001,2024-06-30_08h03.24.854,empathy_intonation_perc,2024.1.4,Win32,60.24096386,,,,,,,,,,,,,,78,rendir,,,,,,1206.8896,1211.6766,1,0,4.266599999,,0,103,103,77,1,non_cognate,1,REAL,FALSA
,,,,,,,,,65c1512b51dc8b722a7fe306,001,2024-06-30_08h03.24.854,empathy_intonation_perc,2024.1.4,Win32,60.24096386,,,,,,,,,,,,,,189,medium,,,,,,1211.6867,1222.7251,0,1,10.505,,0,104,104,188,1,pseudoword,0,REAL,FALSA
,,,,,,,,,65c1512b51dc8b722a7fe306,001,2024-06-30_08h03.24.854,empathy_intonation_perc,2024.1.4,Win32,60.24096386,,,,,,,,,,,,,,99,bugor,,,,,,1222.7432,1230.6078,1,0,7.3252,,0,105,105,98,1,pseudoword,0,REAL,FALSA
,,,,,,,,,65c1512b51dc8b722a7fe306,001,2024-06-30_08h03.24.854,empathy_intonation_perc,2024.1.4,Win32,60.24096386,,,,,,,,,,,,,,62,pegar,,,,,,1230.6174,1236.5921,1,0,5.4427,,0,106,106,61,1,non_cognate,1,REAL,FALSA
,,,,,,,,,65c1512b51dc8b722a7fe306,001,2024-06-30_08h03.24.854,empathy_intonation_perc,2024.1.4,Win32,60.24096386,,,,,,,,,,,,,,47,color,,,,,,1236.6066,1242.992,1,0,5.8508,,0,107,107,46,1,two_way_cognate,1,REAL,FALSA
,,,,,,,,,65c1512b51dc8b722a7fe306,001,2024-06-30_08h03.24.854,empathy_intonation_perc,2024.1.4,Win32,60.24096386,,,,,,,,,,,,,,44,editor,,,,,,1243.0079,1250.2301,1,0,6.701700001,,0,108,108,43,1,two_way_cognate,1,REAL,FALSA
,,,,,,,,,65c1512b51dc8b722a7fe306,001,2024-06-30_08h03.24.854,empathy_intonation_perc,2024.1.4,Win32,60.24096386,,,,,,,,,,,,,,52,blando,,,,,,1250.2462,1256.596,1,0,5.817400001,,0,109,109,51,1,non_cognate,1,REAL,FALSA
,,,,,,,,,65c1512b51dc8b722a7fe306,001,2024-06-30_08h03.24.854,empathy_intonation_perc,2024.1.4,Win32,60.24096386,,,,,,,,,,,,,,55,maldad,,,,,,1256.6123,1262.7966,0,1,5.6517,,0,110,110,54,1,non_cognate,1,REAL,FALSA
,,,,,,,,,65c1512b51dc8b722a7fe306,001,2024-06-30_08h03.24.854,empathy_intonation_perc,2024.1.4,Win32,60.24096386,,,,,,,,,,,,,,158,babrá,,,,,,1262.812,1269.0459,1,0,5.6999,,0,111,111,157,1,pseudoword,0,REAL,FALSA
,,,,,,,,,65c1512b51dc8b722a7fe306,001,2024-06-30_08h03.24.854,empathy_intonation_perc,2024.1.4,Win32,60.24096386,,,,,,,,,,,,,,83,hálito,,,,,,1269.06,1275.511,0,1,5.9325,,0,112,112,82,1,non_cognate,1,REAL,FALSA
,,,,,,,,,65c1512b51dc8b722a7fe306,001,2024-06-30_08h03.24.854,empathy_intonation_perc,2024.1.4,Win32,60.24096386,,,,,,,,,,,,,,149,emén,,,,,,1275.526,1280.9262,0,1,4.8683,,0,113,113,148,1,pseudoword,0,REAL,FALSA
,,,,,,,,,65c1512b51dc8b722a7fe306,001,2024-06-30_08h03.24.854,empathy_intonation_perc,2024.1.4,Win32,60.24096386,,,,,,,,,,,,,,24,retina,,,,,,1280.9418,1292.127,1,0,10.6618,,0,114,114,23,1,three_way_cognate,1,REAL,FALSA
,,,,,,,,,65c1512b51dc8b722a7fe306,001,2024-06-30_08h03.24.854,empathy_intonation_perc,2024.1.4,Win32,60.24096386,,,,,,,,,,,,,,106,diebro,,,,,,1292.1421,1298.077,1,0,5.4045,,0,115,115,105,1,pseudoword,0,REAL,FALSA
,,,,,,,,,65c1512b51dc8b722a7fe306,001,2024-06-30_08h03.24.854,empathy_intonation_perc,2024.1.4,Win32,60.24096386,,,,,,,,,,,,,,8,kilo,,,,,,1298.0919,1304.2638,1,0,5.650900001,,0,116,116,7,1,three_way_cognate,1,REAL,FALSA
,,,,,,,,,65c1512b51dc8b722a7fe306,001,2024-06-30_08h03.24.854,empathy_intonation_perc,2024.1.4,Win32,60.24096386,,,,,,,,,,,,,,142,parre,,,,,,1304.2785,1312.6642,0,1,7.850400001,,0,117,117,141,1,pseudoword,0,REAL,FALSA
,,,,,,,,,65c1512b51dc8b722a7fe306,001,2024-06-30_08h03.24.854,empathy_intonation_perc,2024.1.4,Win32,60.24096386,,,,,,,,,,,,,,187,nomata,,,,,,1312.6824,1318.7773,0,1,5.558,,0,118,118,186,1,pseudoword,0,REAL,FALSA
,,,,,,,,,65c1512b51dc8b722a7fe306,001,2024-06-30_08h03.24.854,empathy_intonation_perc,2024.1.4,Win32,60.24096386,,,,,,,,,,,,,,141,virios,,,,,,1318.793,1324.8445,1,0,5.5199,,0,119,119,140,1,pseudoword,0,REAL,FALSA
,,,,,,,,,65c1512b51dc8b722a7fe306,001,2024-06-30_08h03.24.854,empathy_intonation_perc,2024.1.4,Win32,60.24096386,,,,,,,,,,,,,,117,morrá,,,,,,1324.8599,1331.3148,0,1,5.9348,,0,120,120,116,1,pseudoword,0,REAL,FALSA
,,,,,,,,,65c1512b51dc8b722a7fe306,001,2024-06-30_08h03.24.854,empathy_intonation_perc,2024.1.4,Win32,60.24096386,,,,,,,,,,,,,,161,civas,,,,,,1331.3305,1339.264,0,1,7.401099999,,0,121,121,160,1,pseudoword,0,REAL,FALSA
,,,,,,,,,65c1512b51dc8b722a7fe306,001,2024-06-30_08h03.24.854,empathy_intonation_perc,2024.1.4,Win32,60.24096386,,,,,,,,,,,,,,190,asumie,,,,,,1339.2783,1346.1449,1,0,6.3185,,0,122,122,189,1,pseudoword,0,REAL,FALSA
,,,,,,,,,65c1512b51dc8b722a7fe306,001,2024-06-30_08h03.24.854,empathy_intonation_perc,2024.1.4,Win32,60.24096386,,,,,,,,,,,,,,191,frasis,,,,,,1346.1629,1353.5148,0,1,6.818200001,,0,123,123,190,1,pseudoword,0,REAL,FALSA
,,,,,,,,,65c1512b51dc8b722a7fe306,001,2024-06-30_08h03.24.854,empathy_intonation_perc,2024.1.4,Win32,60.24096386,,,,,,,,,,,,,,54,tapón,,,,,,1353.5301,1359.8147,1,0,5.7508,,0,124,124,53,1,non_cognate,1,REAL,FALSA
,,,,,,,,,65c1512b51dc8b722a7fe306,001,2024-06-30_08h03.24.854,empathy_intonation_perc,2024.1.4,Win32,60.24096386,,,,,,,,,,,,,,5,extra,,,,,,1359.8299,1368.2307,1,0,7.8664,,0,125,125,4,1,three_way_cognate,1,REAL,FALSA
,,,,,,,,,65c1512b51dc8b722a7fe306,001,2024-06-30_08h03.24.854,empathy_intonation_perc,2024.1.4,Win32,60.24096386,,,,,,,,,,,,,,51,listo,,,,,,1368.243,1374.098,1,0,5.3345,,0,126,126,50,1,non_cognate,1,REAL,FALSA
,,,,,,,,,65c1512b51dc8b722a7fe306,001,2024-06-30_08h03.24.854,empathy_intonation_perc,2024.1.4,Win32,60.24096386,,,,,,,,,,,,,,176,gripar,,,,,,1374.1124,1382.666,1,0,8.0175,,0,127,127,175,1,pseudoword,0,REAL,FALSA
,,,,,,,,,65c1512b51dc8b722a7fe306,001,2024-06-30_08h03.24.854,empathy_intonation_perc,2024.1.4,Win32,60.24096386,,,,,,,,,,,,,,145,rúo,,,,,,1382.6829,1388.6159,0,1,5.4006,,0,128,128,144,1,pseudoword,0,REAL,FALSA
,,,,,,,,,65c1512b51dc8b722a7fe306,001,2024-06-30_08h03.24.854,empathy_intonation_perc,2024.1.4,Win32,60.24096386,,,,,,,,,,,,,,60,siglo,,,,,,1388.6317,1394.0786,0,1,4.9116,,0,129,129,59,1,non_cognate,1,REAL,FALSA
,,,,,,,,,65c1512b51dc8b722a7fe306,001,2024-06-30_08h03.24.854,empathy_intonation_perc,2024.1.4,Win32,60.24096386,,,,,,,,,,,,,,33,collar,,,,,,1394.0931,1403.5127,0,1,8.8916,,0,130,130,32,1,two_way_cognate,1,REAL,FALSA
,,,,,,,,,65c1512b51dc8b722a7fe306,001,2024-06-30_08h03.24.854,empathy_intonation_perc,2024.1.4,Win32,60.24096386,,,,,,,,,,,,,,164,tecia,,,,,,1403.5329,1408.9298,1,0,4.86,,0,131,131,163,1,pseudoword,0,REAL,FALSA
,,,,,,,,,65c1512b51dc8b722a7fe306,001,2024-06-30_08h03.24.854,empathy_intonation_perc,2024.1.4,Win32,60.24096386,,,,,,,,,,,,,,38,halo,,,,,,1408.9482,1415.7469,0,1,6.2555,,0,132,132,37,1,two_way_cognate,1,REAL,FALSA
,,,,,,,,,65c1512b51dc8b722a7fe306,001,2024-06-30_08h03.24.854,empathy_intonation_perc,2024.1.4,Win32,60.24096386,,,,,,,,,,,,,,64,rizado,,,,,,1415.7617,1422.0468,0,1,5.7525,,0,133,133,63,1,non_cognate,1,REAL,FALSA
,,,,,,,,,65c1512b51dc8b722a7fe306,001,2024-06-30_08h03.24.854,empathy_intonation_perc,2024.1.4,Win32,60.24096386,,,,,,,,,,,,,,29,clamor,,,,,,1422.0653,1430.38,0,1,7.7715,,0,134,134,28,1,two_way_cognate,1,REAL,FALSA
,,,,,,,,,65c1512b51dc8b722a7fe306,001,2024-06-30_08h03.24.854,empathy_intonation_perc,2024.1.4,Win32,60.24096386,,,,,,,,,,,,,,122,boñaz,,,,,,1430.3948,1438.2966,1,0,7.3687,,0,135,135,121,1,pseudoword,0,REAL,FALSA
,,,,,,,,,65c1512b51dc8b722a7fe306,001,2024-06-30_08h03.24.854,empathy_intonation_perc,2024.1.4,Win32,60.24096386,,,,,,,,,,,,,,72,rostro,,,,,,1438.3128,1444.9167,1,0,6.0837,,0,136,136,71,1,non_cognate,1,REAL,FALSA
,,,,,,,,,65c1512b51dc8b722a7fe306,001,2024-06-30_08h03.24.854,empathy_intonation_perc,2024.1.4,Win32,60.24096386,,,,,,,,,,,,,,130,dubo,,,,,,1444.9321,1450.1166,1,0,4.6493,,0,137,137,129,1,pseudoword,0,REAL,FALSA
,,,,,,,,,65c1512b51dc8b722a7fe306,001,2024-06-30_08h03.24.854,empathy_intonation_perc,2024.1.4,Win32,60.24096386,,,,,,,,,,,,,,166,anfia,,,,,,1450.1287,1460.6139,0,1,9.9598,,0,138,138,165,1,pseudoword,0,REAL,FALSA
,,,,,,,,,65c1512b51dc8b722a7fe306,001,2024-06-30_08h03.24.854,empathy_intonation_perc,2024.1.4,Win32,60.24096386,,,,,,,,,,,,,,110,densó,,,,,,1460.6318,1470.3473,0,1,9.173700001,,0,139,139,109,1,pseudoword,0,REAL,FALSA
,,,,,,,,,65c1512b51dc8b722a7fe306,001,2024-06-30_08h03.24.854,empathy_intonation_perc,2024.1.4,Win32,60.24096386,,,,,,,,,,,,,,100,épinas,,,,,,1470.3659,1477.2314,0,1,6.3193,,0,140,140,99,1,pseudoword,0,REAL,FALSA
,,,,,,,,,65c1512b51dc8b722a7fe306,001,2024-06-30_08h03.24.854,empathy_intonation_perc,2024.1.4,Win32,60.24096386,,,,,,,,,,,,,,153,golla,,,,,,1477.2459,1483.4142,0,1,5.6395,,0,141,141,152,1,pseudoword,0,REAL,FALSA
,,,,,,,,,65c1512b51dc8b722a7fe306,001,2024-06-30_08h03.24.854,empathy_intonation_perc,2024.1.4,Win32,60.24096386,,,,,,,,,,,,,,127,vien,,,,,,1483.4261,1488.0012,0,1,4.050400001,,0,142,142,126,1,pseudoword,0,REAL,FALSA
,,,,,,,,,65c1512b51dc8b722a7fe306,001,2024-06-30_08h03.24.854,empathy_intonation_perc,2024.1.4,Win32,60.24096386,,,,,,,,,,,,,,123,arane,,,,,,1488.016,1494.3482,0,1,5.7908,,0,143,143,122,1,pseudoword,0,REAL,FALSA
,,,,,,,,,65c1512b51dc8b722a7fe306,001,2024-06-30_08h03.24.854,empathy_intonation_perc,2024.1.4,Win32,60.24096386,,,,,,,,,,,,,,79,suelo,,,,,,1494.3647,1498.866,0,1,3.9542,,0,144,144,78,1,non_cognate,1,REAL,FALSA
,,,,,,,,,65c1512b51dc8b722a7fe306,001,2024-06-30_08h03.24.854,empathy_intonation_perc,2024.1.4,Win32,60.24096386,,,,,,,,,,,,,,135,panté,,,,,,1498.8827,1503.3485,1,0,3.9264,,0,145,145,134,1,pseudoword,0,REAL,FALSA
,,,,,,,,,65c1512b51dc8b722a7fe306,001,2024-06-30_08h03.24.854,empathy_intonation_perc,2024.1.4,Win32,60.24096386,,,,,,,,,,,,,,21,hotel,,,,,,1503.3623,1509.7349,1,0,5.8497,,0,146,146,20,1,three_way_cognate,1,REAL,FALSA
,,,,,,,,,65c1512b51dc8b722a7fe306,001,2024-06-30_08h03.24.854,empathy_intonation_perc,2024.1.4,Win32,60.24096386,,,,,,,,,,,,,,186,rizate,,,,,,1509.7558,1518.7182,0,1,8.4337,,0,147,147,185,1,pseudoword,0,REAL,FALSA
,,,,,,,,,65c1512b51dc8b722a7fe306,001,2024-06-30_08h03.24.854,empathy_intonation_perc,2024.1.4,Win32,60.24096386,,,,,,,,,,,,,,143,hurcos,,,,,,1518.7344,1525.0996,0,1,5.819799999,,0,148,148,142,1,pseudoword,0,REAL,FALSA
,,,,,,,,,65c1512b51dc8b722a7fe306,001,2024-06-30_08h03.24.854,empathy_intonation_perc,2024.1.4,Win32,60.24096386,,,,,,,,,,,,,,116,grigir,,,,,,1525.1176,1535.2197,0,1,9.568400001,,0,149,149,115,1,pseudoword,0,REAL,FALSA
,,,,,,,,,65c1512b51dc8b722a7fe306,001,2024-06-30_08h03.24.854,empathy_intonation_perc,2024.1.4,Win32,60.24096386,,,,,,,,,,,,,,148,gino,,,,,,1535.2341,1540.5832,0,1,4.8022,,0,150,150,147,1,pseudoword,0,REAL,FALSA
,,,,,,,,,65c1512b51dc8b722a7fe306,001,2024-06-30_08h03.24.854,empathy_intonation_perc,2024.1.4,Win32,60.24096386,,,,,,,,,,,,,,12,dogma,,,,,,1540.5987,1547.3495,1,0,6.219200001,,0,151,151,11,1,three_way_cognate,1,REAL,FALSA
,,,,,,,,,65c1512b51dc8b722a7fe306,001,2024-06-30_08h03.24.854,empathy_intonation_perc,2024.1.4,Win32,60.24096386,,,,,,,,,,,,,,155,kugis,,,,,,1547.3629,1553.5516,0,1,5.6657,,0,152,152,154,1,pseudoword,0,REAL,FALSA
,,,,,,,,,65c1512b51dc8b722a7fe306,001,2024-06-30_08h03.24.854,empathy_intonation_perc,2024.1.4,Win32,60.24096386,,,,,,,,,,,,,,138,tator,,,,,,1553.5619,1566.2496,1,0,12.1528,,0,153,153,137,1,pseudoword,0,REAL,FALSA
,,,,,,,,,65c1512b51dc8b722a7fe306,001,2024-06-30_08h03.24.854,empathy_intonation_perc,2024.1.4,Win32,60.24096386,,,,,,,,,,,,,,39,casual,,,,,,1566.2649,1573.1342,1,0,6.3395,,0,154,154,38,1,two_way_cognate,1,REAL,FALSA
,,,,,,,,,65c1512b51dc8b722a7fe306,001,2024-06-30_08h03.24.854,empathy_intonation_perc,2024.1.4,Win32,60.24096386,,,,,,,,,,,,,,25,vigor,,,,,,1573.1531,1579.2374,1,0,5.550400001,,0,155,155,24,1,two_way_cognate,1,REAL,FALSA
,,,,,,,,,65c1512b51dc8b722a7fe306,001,2024-06-30_08h03.24.854,empathy_intonation_perc,2024.1.4,Win32,60.24096386,,,,,,,,,,,,,,124,lobe,,,,,,1579.2518,1586.0705,0,1,6.2832,,0,156,156,123,1,pseudoword,0,REAL,FALSA
,,,,,,,,,65c1512b51dc8b722a7fe306,001,2024-06-30_08h03.24.854,empathy_intonation_perc,2024.1.4,Win32,60.24096386,,,,,,,,,,,,,,112,samón,,,,,,1586.0883,1592.4004,0,1,5.7759,,0,157,157,111,1,pseudoword,0,REAL,FALSA
,,,,,,,,,65c1512b51dc8b722a7fe306,001,2024-06-30_08h03.24.854,empathy_intonation_perc,2024.1.4,Win32,60.24096386,,,,,,,,,,,,,,17,clan,,,,,,1592.4171,1600.0508,1,0,7.094700001,,0,158,158,16,1,three_way_cognate,1,REAL,FALSA
,,,,,,,,,65c1512b51dc8b722a7fe306,001,2024-06-30_08h03.24.854,empathy_intonation_perc,2024.1.4,Win32,60.24096386,,,,,,,,,,,,,,96,caro,,,,,,1600.0686,1605.8175,1,0,5.213099999,,0,159,159,95,1,non_cognate,1,REAL,FALSA
,,,,,,,,,65c1512b51dc8b722a7fe306,001,2024-06-30_08h03.24.854,empathy_intonation_perc,2024.1.4,Win32,60.24096386,,,,,,,,,,,,,,23,plural,,,,,,1605.8309,1614.8354,1,0,8.4716,,0,160,160,22,1,three_way_cognate,1,REAL,FALSA
,,,,,,,,,65c1512b51dc8b722a7fe306,001,2024-06-30_08h03.24.854,empathy_intonation_perc,2024.1.4,Win32,60.24096386,,,,,,,,,,,,,,157,seled,,,,,,1614.8503,1620.7685,1,0,5.3906,,0,161,161,156,1,pseudoword,0,REAL,FALSA
,,,,,,,,,65c1512b51dc8b722a7fe306,001,2024-06-30_08h03.24.854,empathy_intonation_perc,2024.1.4,Win32,60.24096386,,,,,,,,,,,,,,163,olzan,,,,,,1620.7825,1626.7396,1,0,5.4347,,0,162,162,162,1,pseudoword,0,REAL,FALSA
,,,,,,,,,65c1512b51dc8b722a7fe306,001,2024-06-30_08h03.24.854,empathy_intonation_perc,2024.1.4,Win32,60.24096386,,,,,,,,,,,,,,111,monue,,,,,,1626.7537,1631.9183,1,0,4.619900001,,0,163,163,110,1,pseudoword,0,REAL,FALSA
,,,,,,,,,65c1512b51dc8b722a7fe306,001,2024-06-30_08h03.24.854,empathy_intonation_perc,2024.1.4,Win32,60.24096386,,,,,,,,,,,,,,121,barbs,,,,,,1631.9332,1643.4686,0,1,11.002,,0,164,164,120,1,pseudoword,0,REAL,FALSA
,,,,,,,,,65c1512b51dc8b722a7fe306,001,2024-06-30_08h03.24.854,empathy_intonation_perc,2024.1.4,Win32,60.24096386,,,,,,,,,,,,,,63,hilo,,,,,,1643.4846,1651.1022,1,0,7.0879,,0,165,165,62,1,non_cognate,1,REAL,FALSA
,,,,,,,,,65c1512b51dc8b722a7fe306,001,2024-06-30_08h03.24.854,empathy_intonation_perc,2024.1.4,Win32,60.24096386,,,,,,,,,,,,,,87,muleta,,,,,,1651.119,1657.2024,1,0,5.5359,,0,166,166,86,1,non_cognate,1,REAL,FALSA
,,,,,,,,,65c1512b51dc8b722a7fe306,001,2024-06-30_08h03.24.854,empathy_intonation_perc,2024.1.4,Win32,60.24096386,,,,,,,,,,,,,,10,drama,,,,,,1657.2169,1663.5199,1,0,5.7727,,0,167,167,9,1,three_way_cognate,1,REAL,FALSA
,,,,,,,,,65c1512b51dc8b722a7fe306,001,2024-06-30_08h03.24.854,empathy_intonation_perc,2024.1.4,Win32,60.24096386,,,,,,,,,,,,,,120,mauja,,,,,,1663.5365,1670.286,0,1,6.2062,,0,168,168,119,1,pseudoword,0,REAL,FALSA
,,,,,,,,,65c1512b51dc8b722a7fe306,001,2024-06-30_08h03.24.854,empathy_intonation_perc,2024.1.4,Win32,60.24096386,,,,,,,,,,,,,,27,piano,,,,,,1670.3016,1677.0889,1,0,6.2668,,0,169,169,26,1,two_way_cognate,1,REAL,FALSA
,,,,,,,,,65c1512b51dc8b722a7fe306,001,2024-06-30_08h03.24.854,empathy_intonation_perc,2024.1.4,Win32,60.24096386,,,,,,,,,,,,,,174,pabea,,,,,,1677.1033,1685.8029,0,1,8.1604,,0,170,170,173,1,pseudoword,0,REAL,FALSA
,,,,,,,,,65c1512b51dc8b722a7fe306,001,2024-06-30_08h03.24.854,empathy_intonation_perc,2024.1.4,Win32,60.24096386,,,,,,,,,,,,,,171,gotro,,,,,,1685.8176,1697.5537,0,1,11.2031,,0,171,171,170,1,pseudoword,0,REAL,FALSA
,,,,,,,,,65c1512b51dc8b722a7fe306,001,2024-06-30_08h03.24.854,empathy_intonation_perc,2024.1.4,Win32,60.24096386,,,,,,,,,,,,,,57,regalo,,,,,,1697.5705,1704.8202,1,0,6.730599999,,0,172,172,56,1,non_cognate,1,REAL,FALSA
,,,,,,,,,65c1512b51dc8b722a7fe306,001,2024-06-30_08h03.24.854,empathy_intonation_perc,2024.1.4,Win32,60.24096386,,,,,,,,,,,,,,136,hueas,,,,,,1704.8341,1714.271,1,0,8.904599999,,0,173,173,135,1,pseudoword,0,REAL,FALSA
,,,,,,,,,65c1512b51dc8b722a7fe306,001,2024-06-30_08h03.24.854,empathy_intonation_perc,2024.1.4,Win32,60.24096386,,,,,,,,,,,,,,165,chote,,,,,,1714.2873,1719.8582,1,0,5.0346,,0,174,174,164,1,pseudoword,0,REAL,FALSA
,,,,,,,,,65c1512b51dc8b722a7fe306,001,2024-06-30_08h03.24.854,empathy_intonation_perc,2024.1.4,Win32,60.24096386,,,,,,,,,,,,,,11,golf,,,,,,1719.8723,1726.7081,1,0,6.302200001,,0,175,175,10,1,three_way_cognate,1,REAL,FALSA
,,,,,,,,,65c1512b51dc8b722a7fe306,001,2024-06-30_08h03.24.854,empathy_intonation_perc,2024.1.4,Win32,60.24096386,,,,,,,,,,,,,,85,enorme,,,,,,1726.723,1732.3545,1,0,5.089400001,,0,176,176,84,1,non_cognate,1,REAL,FALSA
,,,,,,,,,65c1512b51dc8b722a7fe306,001,2024-06-30_08h03.24.854,empathy_intonation_perc,2024.1.4,Win32,60.24096386,,,,,,,,,,,,,,7,albino,,,,,,1732.3694,1739.6542,0,1,6.757400001,,0,177,177,6,1,three_way_cognate,1,REAL,FALSA
,,,,,,,,,65c1512b51dc8b722a7fe306,001,2024-06-30_08h03.24.854,empathy_intonation_perc,2024.1.4,Win32,60.24096386,,,,,,,,,,,,,,49,teñir,,,,,,1739.6692,1745.4385,0,1,5.237299999,,0,178,178,48,1,non_cognate,1,REAL,FALSA
,,,,,,,,,65c1512b51dc8b722a7fe306,001,2024-06-30_08h03.24.854,empathy_intonation_perc,2024.1.4,Win32,60.24096386,,,,,,,,,,,,,,177,entodo,,,,,,1745.4537,1751.1377,0,1,5.1627,,0,179,179,176,1,pseudoword,0,REAL,FALSA
,,,,,,,,,65c1512b51dc8b722a7fe306,001,2024-06-30_08h03.24.854,empathy_intonation_perc,2024.1.4,Win32,60.24096386,,,,,,,,,,,,,,179,suelet,,,,,,1751.1522,1755.7575,1,0,4.0831,,0,180,180,178,1,pseudoword,0,REAL,FALSA
,,,,,,,,,65c1512b51dc8b722a7fe306,001,2024-06-30_08h03.24.854,empathy_intonation_perc,2024.1.4,Win32,60.24096386,,,,,,,,,,,,,,15,test,,,,,,1755.7727,1762.2755,0,1,5.968,,0,181,181,14,1,three_way_cognate,1,REAL,FALSA
,,,,,,,,,65c1512b51dc8b722a7fe306,001,2024-06-30_08h03.24.854,empathy_intonation_perc,2024.1.4,Win32,60.24096386,,,,,,,,,,,,,,2,tumor,,,,,,1762.2906,1767.7384,1,0,4.9021,,0,182,182,1,1,three_way_cognate,1,REAL,FALSA
,,,,,,,,,65c1512b51dc8b722a7fe306,001,2024-06-30_08h03.24.854,empathy_intonation_perc,2024.1.4,Win32,60.24096386,,,,,,,,,,,,,,137,trugo,,,,,,1767.7539,1775.3719,0,1,7.09,,0,183,183,136,1,pseudoword,0,REAL,FALSA
,,,,,,,,,65c1512b51dc8b722a7fe306,001,2024-06-30_08h03.24.854,empathy_intonation_perc,2024.1.4,Win32,60.24096386,,,,,,,,,,,,,,115,lidena,,,,,,1775.3896,1782.4054,1,0,6.4773,,0,184,184,114,1,pseudoword,0,REAL,FALSA
,,,,,,,,,65c1512b51dc8b722a7fe306,001,2024-06-30_08h03.24.854,empathy_intonation_perc,2024.1.4,Win32,60.24096386,,,,,,,,,,,,,,3,disco,,,,,,1782.4258,1789.3094,1,0,6.3516,,0,185,185,2,1,three_way_cognate,1,REAL,FALSA
,,,,,,,,,65c1512b51dc8b722a7fe306,001,2024-06-30_08h03.24.854,empathy_intonation_perc,2024.1.4,Win32,60.24096386,,,,,,,,,,,,,,77,suave,,,,,,1789.3233,1791.2764,1,0,1.417400001,,0,186,186,76,1,non_cognate,1,REAL,FALSA
,,,,,,,,,65c1512b51dc8b722a7fe306,001,2024-06-30_08h03.24.854,empathy_intonation_perc,2024.1.4,Win32,60.24096386,,,,,,,,,,,,,,169,pitis,,,,,,1791.2771,1800.542,1,0,8.7423,,0,187,187,168,1,pseudoword,0,REAL,FALSA
,,,,,,,,,65c1512b51dc8b722a7fe306,001,2024-06-30_08h03.24.854,empathy_intonation_perc,2024.1.4,Win32,60.24096386,,,,,,,,,,,,,,68,puñal,,,,,,1800.5574,1808.4443,0,1,7.3518,,0,188,188,67,1,non_cognate,1,REAL,FALSA
,,,,,,,,,65c1512b51dc8b722a7fe306,001,2024-06-30_08h03.24.854,empathy_intonation_perc,2024.1.4,Win32,60.24096386,,,,,,,,,,,,,,1,moral,,,,,,1808.4596,1816.6229,1,0,7.6235,,0,189,189,0,1,three_way_cognate,1,REAL,FALSA
,,,,,,,,,65c1512b51dc8b722a7fe306,001,2024-06-30_08h03.24.854,empathy_intonation_perc,2024.1.4,Win32,60.24096386,,,,,,,,,,,,,,134,molor,,,,,,1816.6369,1823.0231,0,1,5.855400001,,0,190,190,133,1,pseudoword,0,REAL,FALSA
,,,,,,,,,65c1512b51dc8b722a7fe306,001,2024-06-30_08h03.24.854,empathy_intonation_perc,2024.1.4,Win32,60.24096386,,,,,,,,,,,,,,82,brillo,,,,,,1823.0468,1829.0236,0,1,5.437099999,,0,191,191,81,1,non_cognate,1,REAL,FALSA
