lextale_instructions.started,lextale_instructions.stopped,lextale_instructions_loop.thisRepN,lextale_instructions_loop.thisTrialN,lextale_instructions_loop.thisN,lextale_instructions_loop.thisIndex,lextale_instructions_loop.ran,instructions_text,continue_text,participant,session,date,expName,psychopyVersion,OS,frameRate,lextale_practice.started,lextale_practice.stopped,key_resp_lextale_practice.keys,key_resp_lextale_practice.corr,key_resp_lextale_practice.rt,key_resp_lextale_practice.duration,lextale_practice_feedback.started,lextale_practice_feedback.stopped,lextale_practice_trials.thisRepN,lextale_practice_trials.thisTrialN,lextale_practice_trials.thisN,lextale_practice_trials.thisIndex,lextale_practice_trials.ran,stim,word,correct_response,prac_button_real,prac_button_false,lextale_check.started,lextale_check.stopped,lextale_trial.started,lextale_trial.stopped,key_resp_lextale_trial.keys,key_resp_lextale_trial.corr,key_resp_lextale_trial.rt,key_resp_lextale_trial.duration,lextail_trials.thisRepN,lextail_trials.thisTrialN,lextail_trials.thisN,lextail_trials.thisIndex,lextail_trials.ran,type,correct_reponse,button_real,button_false
0.0071,30.8252,0,0,0,0,1,"Este es un test de vocabulario en español. 
  
  A continuación vas a ver 90 secuencias de letras que parecen 'españolas'.
  
  Solo algunas de ellas son palabras de verdad.",(presiona la barra espaciadora para continuar),6610320c713a6f7b0b1dd214,001,2024-06-30_07h33.26.378,empathy_intonation_perc,2024.1.4,Win32,59.88023952,,,,,,,,,,,,,,,,,,,,,,,,,,,,,,,,,,,
30.8263,31.1574,0,1,1,1,1,"Por favor, señala las palabras que tú conoces (aquellas que estás convencido que son palabras españolas, incluso aunque no seas capaz de dar el significado preciso).",(presiona la barra espaciadora para continuar),6610320c713a6f7b0b1dd214,001,2024-06-30_07h33.26.378,empathy_intonation_perc,2024.1.4,Win32,59.88023952,,,,,,,,,,,,,,,,,,,,,,,,,,,,,,,,,,,
31.158,31.4903,0,2,2,2,1,Pero cuidado: los errores se penalizan. Por eso no tiene sentido tratar de incrementar tu puntuación marcando como reales palabras que nunca has visto.,(presiona la barra espaciadora para continuar),6610320c713a6f7b0b1dd214,001,2024-06-30_07h33.26.378,empathy_intonation_perc,2024.1.4,Win32,59.88023952,,,,,,,,,,,,,,,,,,,,,,,,,,,,,,,,,,,
31.4911,31.6903,0,3,3,3,1,"Presiona la tecla 1 si piensas que es una palabra real y la tecla 
  0 si piensas que es una palabra falsa. 
  
  Vamos a practicar un poco...",(presiona la barra espaciadora para continuar),6610320c713a6f7b0b1dd214,001,2024-06-30_07h33.26.378,empathy_intonation_perc,2024.1.4,Win32,59.88023952,,,,,,,,,,,,,,,,,,,,,,,,,,,,,,,,,,,
,,,,,,,,,6610320c713a6f7b0b1dd214,001,2024-06-30_07h33.26.378,empathy_intonation_perc,2024.1.4,Win32,59.88023952,31.6956,33.1562,1,0,0.932,,33.1565,34.155,0,0,0,0,1,0,depiste,0,REAL,FALSA,,,,,,,,,,,,,,,,,
,,,,,,,,,6610320c713a6f7b0b1dd214,001,2024-06-30_07h33.26.378,empathy_intonation_perc,2024.1.4,Win32,59.88023952,34.1556,34.7544,0,0,0.0675,,34.7544,35.7534,0,1,1,1,1,0,sí,1,REAL,FALSA,,,,,,,,,,,,,,,,,
,,,,,,,,,6610320c713a6f7b0b1dd214,001,2024-06-30_07h33.26.378,empathy_intonation_perc,2024.1.4,Win32,59.88023952,35.7539,36.3531,0,1,0.0695,,36.3531,37.3523,0,2,2,2,1,0,coné,0,REAL,FALSA,,,,,,,,,,,,,,,,,
,,,,,,,,,6610320c713a6f7b0b1dd214,001,2024-06-30_07h33.26.378,empathy_intonation_perc,2024.1.4,Win32,59.88023952,37.3527,38.3516,1,0,0.4665,,38.3518,39.3506,0,3,3,3,1,0,calpar,0,REAL,FALSA,,,,,,,,,,,,,,,,,
,,,,,,,,,6610320c713a6f7b0b1dd214,001,2024-06-30_07h33.26.378,empathy_intonation_perc,2024.1.4,Win32,59.88023952,39.351,40.0002,1,0,0.1322,,40.0002,40.9993,0,4,4,4,1,0,joten,0,REAL,FALSA,,,,,,,,,,,,,,,,,
,,,,,,,,,6610320c713a6f7b0b1dd214,001,2024-06-30_07h33.26.378,empathy_intonation_perc,2024.1.4,Win32,59.88023952,40.9997,41.9652,0,0,0.4317,,41.9653,42.9643,0,5,5,5,1,0,sacapuntas,1,REAL,FALSA,,,,,,,,,,,,,,,,,
,,,,,,,,,6610320c713a6f7b0b1dd214,001,2024-06-30_07h33.26.378,empathy_intonation_perc,2024.1.4,Win32,59.88023952,42.9647,43.7635,1,0,0.2659,,43.7636,46.4987,0,6,6,6,1,0,priba,0,REAL,FALSA,,,,,,,,,,,,,,,,,
,,,,,,,,,6610320c713a6f7b0b1dd214,001,2024-06-30_07h33.26.378,empathy_intonation_perc,2024.1.4,Win32,59.88023952,46.4991,47.4607,1,0,0.4291,,47.4609,48.46,0,7,7,7,1,0,pelasula,0,REAL,FALSA,,,,,,,,,,,,,,,,,
,,,,,,,,,6610320c713a6f7b0b1dd214,001,2024-06-30_07h33.26.378,empathy_intonation_perc,2024.1.4,Win32,59.88023952,48.4605,49.2924,0,0,0.3005,,49.2925,50.2916,0,8,8,8,1,0,bien,1,REAL,FALSA,,,,,,,,,,,,,,,,,
,,,,,,,,,6610320c713a6f7b0b1dd214,001,2024-06-30_07h33.26.378,empathy_intonation_perc,2024.1.4,Win32,59.88023952,50.2922,51.1909,0,0,0.3664,,51.191,52.19,0,9,9,9,1,0,casa,1,REAL,FALSA,,,,,,,,,,,,,,,,,
,,,,,,,,,6610320c713a6f7b0b1dd214,001,2024-06-30_07h33.26.378,empathy_intonation_perc,2024.1.4,Win32,59.88023952,52.1906,52.8395,1,0,0.1192,,52.8396,53.8386,0,10,10,10,1,0,lejo,0,REAL,FALSA,,,,,,,,,,,,,,,,,
,,,,,,,,,6610320c713a6f7b0b1dd214,001,2024-06-30_07h33.26.378,empathy_intonation_perc,2024.1.4,Win32,59.88023952,53.8391,54.7379,0,1,0.3654,,54.7379,55.7371,0,11,11,11,1,0,pretantas,0,REAL,FALSA,,,,,,,,,,,,,,,,,
,,,,,,,,,6610320c713a6f7b0b1dd214,001,2024-06-30_07h33.26.378,empathy_intonation_perc,2024.1.4,Win32,59.88023952,,,,,,,,,,,,,,,,,,,55.7377,58.3686,,,,,,,,,,,,,,,
,,,,,,,,,6610320c713a6f7b0b1dd214,001,2024-06-30_07h33.26.378,empathy_intonation_perc,2024.1.4,Win32,59.88023952,,,,,,,,,,,,,,141,virios,,,,,,58.3923,59.301,0,1,0.3852,,0,0,0,140,1,pseudoword,0,REAL,FALSA
,,,,,,,,,6610320c713a6f7b0b1dd214,001,2024-06-30_07h33.26.378,empathy_intonation_perc,2024.1.4,Win32,59.88023952,,,,,,,,,,,,,,49,teñir,,,,,,59.3016,59.8837,1,0,0.0493,,0,1,1,48,1,non_cognate,1,REAL,FALSA
,,,,,,,,,6610320c713a6f7b0b1dd214,001,2024-06-30_07h33.26.378,empathy_intonation_perc,2024.1.4,Win32,59.88023952,,,,,,,,,,,,,,133,conso,,,,,,59.8841,60.7662,1,0,0.3467,,0,2,2,132,1,pseudoword,0,REAL,FALSA
,,,,,,,,,6610320c713a6f7b0b1dd214,001,2024-06-30_07h33.26.378,empathy_intonation_perc,2024.1.4,Win32,59.88023952,,,,,,,,,,,,,,1,moral,,,,,,60.7666,61.399,0,1,0.1007,,0,3,3,0,1,three_way_cognate,1,REAL,FALSA
,,,,,,,,,6610320c713a6f7b0b1dd214,001,2024-06-30_07h33.26.378,empathy_intonation_perc,2024.1.4,Win32,59.88023952,,,,,,,,,,,,,,93,tapa,,,,,,61.3995,62.1985,0,1,0.2659,,0,4,4,92,1,non_cognate,1,REAL,FALSA
,,,,,,,,,6610320c713a6f7b0b1dd214,001,2024-06-30_07h33.26.378,empathy_intonation_perc,2024.1.4,Win32,59.88023952,,,,,,,,,,,,,,147,alla,,,,,,62.1988,62.7979,1,0,0.0684,,0,5,5,146,1,pseudoword,0,REAL,FALSA
,,,,,,,,,6610320c713a6f7b0b1dd214,001,2024-06-30_07h33.26.378,empathy_intonation_perc,2024.1.4,Win32,59.88023952,,,,,,,,,,,,,,18,altar,,,,,,62.7983,63.7306,1,0,0.3966,,0,6,6,17,1,three_way_cognate,1,REAL,FALSA
,,,,,,,,,6610320c713a6f7b0b1dd214,001,2024-06-30_07h33.26.378,empathy_intonation_perc,2024.1.4,Win32,59.88023952,,,,,,,,,,,,,,137,trugo,,,,,,63.7311,64.4633,1,0,0.2008,,0,7,7,136,1,pseudoword,0,REAL,FALSA
,,,,,,,,,6610320c713a6f7b0b1dd214,001,2024-06-30_07h33.26.378,empathy_intonation_perc,2024.1.4,Win32,59.88023952,,,,,,,,,,,,,,102,coyo,,,,,,64.4636,65.096,1,0,0.0992,,0,8,8,101,1,pseudoword,0,REAL,FALSA
,,,,,,,,,6610320c713a6f7b0b1dd214,001,2024-06-30_07h33.26.378,empathy_intonation_perc,2024.1.4,Win32,59.88023952,,,,,,,,,,,,,,159,trcia,,,,,,65.0965,65.6789,1,0,0.0482,,0,9,9,158,1,pseudoword,0,REAL,FALSA
,,,,,,,,,6610320c713a6f7b0b1dd214,001,2024-06-30_07h33.26.378,empathy_intonation_perc,2024.1.4,Win32,59.88023952,,,,,,,,,,,,,,192,próces,,,,,,65.6794,66.263,0,1,0.0659,,0,10,10,191,1,pseudoword,0,REAL,FALSA
,,,,,,,,,6610320c713a6f7b0b1dd214,001,2024-06-30_07h33.26.378,empathy_intonation_perc,2024.1.4,Win32,59.88023952,,,,,,,,,,,,,,61,aduana,,,,,,66.2643,67.2443,0,1,0.4475,,0,11,11,60,1,non_cognate,1,REAL,FALSA
,,,,,,,,,6610320c713a6f7b0b1dd214,001,2024-06-30_07h33.26.378,empathy_intonation_perc,2024.1.4,Win32,59.88023952,,,,,,,,,,,,,,43,honor,,,,,,67.2446,67.9294,1,0,0.149,,0,12,12,42,1,two_way_cognate,1,REAL,FALSA
,,,,,,,,,6610320c713a6f7b0b1dd214,001,2024-06-30_07h33.26.378,empathy_intonation_perc,2024.1.4,Win32,59.88023952,,,,,,,,,,,,,,63,hilo,,,,,,67.93,68.7098,1,0,0.2516,,0,13,13,62,1,non_cognate,1,REAL,FALSA
,,,,,,,,,6610320c713a6f7b0b1dd214,001,2024-06-30_07h33.26.378,empathy_intonation_perc,2024.1.4,Win32,59.88023952,,,,,,,,,,,,,,186,rizate,,,,,,68.7101,69.3591,1,0,0.1151,,0,14,14,185,1,pseudoword,0,REAL,FALSA
,,,,,,,,,6610320c713a6f7b0b1dd214,001,2024-06-30_07h33.26.378,empathy_intonation_perc,2024.1.4,Win32,59.88023952,,,,,,,,,,,,,,53,punta,,,,,,69.3596,69.992,1,0,0.1004,,0,15,15,52,1,non_cognate,1,REAL,FALSA
,,,,,,,,,6610320c713a6f7b0b1dd214,001,2024-06-30_07h33.26.378,empathy_intonation_perc,2024.1.4,Win32,59.88023952,,,,,,,,,,,,,,71,torta,,,,,,69.9925,70.5268,0,1,0.0005,,0,16,16,70,1,non_cognate,1,REAL,FALSA
,,,,,,,,,6610320c713a6f7b0b1dd214,001,2024-06-30_07h33.26.378,empathy_intonation_perc,2024.1.4,Win32,59.88023952,,,,,,,,,,,,,,70,ánimo,,,,,,70.5278,71.1911,0,1,0.1336,,0,17,17,69,1,non_cognate,1,REAL,FALSA
,,,,,,,,,6610320c713a6f7b0b1dd214,001,2024-06-30_07h33.26.378,empathy_intonation_perc,2024.1.4,Win32,59.88023952,,,,,,,,,,,,,,62,pegar,,,,,,71.1916,72.0737,1,0,0.3483,,0,18,18,61,1,non_cognate,1,REAL,FALSA
,,,,,,,,,6610320c713a6f7b0b1dd214,001,2024-06-30_07h33.26.378,empathy_intonation_perc,2024.1.4,Win32,59.88023952,,,,,,,,,,,,,,13,plan,,,,,,72.0743,72.6398,1,0,0.0332,,0,19,19,12,1,three_way_cognate,1,REAL,FALSA
,,,,,,,,,6610320c713a6f7b0b1dd214,001,2024-06-30_07h33.26.378,empathy_intonation_perc,2024.1.4,Win32,59.88023952,,,,,,,,,,,,,,77,suave,,,,,,72.6403,73.406,1,0,0.2331,,0,20,20,76,1,non_cognate,1,REAL,FALSA
,,,,,,,,,6610320c713a6f7b0b1dd214,001,2024-06-30_07h33.26.378,empathy_intonation_perc,2024.1.4,Win32,59.88023952,,,,,,,,,,,,,,128,pelí,,,,,,73.4065,74.1221,1,0,0.1806,,0,21,21,127,1,pseudoword,0,REAL,FALSA
,,,,,,,,,6610320c713a6f7b0b1dd214,001,2024-06-30_07h33.26.378,empathy_intonation_perc,2024.1.4,Win32,59.88023952,,,,,,,,,,,,,,31,civil,,,,,,74.1226,74.7217,1,0,0.0656,,0,22,22,30,1,two_way_cognate,1,REAL,FALSA
,,,,,,,,,6610320c713a6f7b0b1dd214,001,2024-06-30_07h33.26.378,empathy_intonation_perc,2024.1.4,Win32,59.88023952,,,,,,,,,,,,,,15,test,,,,,,74.7225,75.3211,0,1,0.0684,,0,23,23,14,1,three_way_cognate,1,REAL,FALSA
,,,,,,,,,6610320c713a6f7b0b1dd214,001,2024-06-30_07h33.26.378,empathy_intonation_perc,2024.1.4,Win32,59.88023952,,,,,,,,,,,,,,123,arane,,,,,,75.3215,75.8545,1,0,0.001,,0,24,24,122,1,pseudoword,0,REAL,FALSA
,,,,,,,,,6610320c713a6f7b0b1dd214,001,2024-06-30_07h33.26.378,empathy_intonation_perc,2024.1.4,Win32,59.88023952,,,,,,,,,,,,,,36,viable,,,,,,75.8558,76.4034,0,1,0.0155,,0,25,25,35,1,two_way_cognate,1,REAL,FALSA
,,,,,,,,,6610320c713a6f7b0b1dd214,001,2024-06-30_07h33.26.378,empathy_intonation_perc,2024.1.4,Win32,59.88023952,,,,,,,,,,,,,,75,patada,,,,,,76.404,77.4693,1,0,0.4097,,0,26,26,74,1,non_cognate,1,REAL,FALSA
,,,,,,,,,6610320c713a6f7b0b1dd214,001,2024-06-30_07h33.26.378,empathy_intonation_perc,2024.1.4,Win32,59.88023952,,,,,,,,,,,,,,130,dubo,,,,,,77.4699,78.0521,0,1,0.0516,,0,27,27,129,1,pseudoword,0,REAL,FALSA
,,,,,,,,,6610320c713a6f7b0b1dd214,001,2024-06-30_07h33.26.378,empathy_intonation_perc,2024.1.4,Win32,59.88023952,,,,,,,,,,,,,,54,tapón,,,,,,78.0526,79.0847,1,0,0.5012,,0,28,28,53,1,non_cognate,1,REAL,FALSA
,,,,,,,,,6610320c713a6f7b0b1dd214,001,2024-06-30_07h33.26.378,empathy_intonation_perc,2024.1.4,Win32,59.88023952,,,,,,,,,,,,,,162,cengo,,,,,,79.0858,79.7007,1,0,0.0819,,0,29,29,161,1,pseudoword,0,REAL,FALSA
,,,,,,,,,6610320c713a6f7b0b1dd214,001,2024-06-30_07h33.26.378,empathy_intonation_perc,2024.1.4,Win32,59.88023952,,,,,,,,,,,,,,2,tumor,,,,,,79.7011,80.3842,1,0,0.1549,,0,30,30,1,1,three_way_cognate,1,REAL,FALSA
,,,,,,,,,6610320c713a6f7b0b1dd214,001,2024-06-30_07h33.26.378,empathy_intonation_perc,2024.1.4,Win32,59.88023952,,,,,,,,,,,,,,177,entodo,,,,,,80.3848,81.083,0,1,0.1659,,0,31,31,176,1,pseudoword,0,REAL,FALSA
,,,,,,,,,6610320c713a6f7b0b1dd214,001,2024-06-30_07h33.26.378,empathy_intonation_perc,2024.1.4,Win32,59.88023952,,,,,,,,,,,,,,101,losco,,,,,,81.0835,81.7658,1,0,0.1481,,0,32,32,100,1,pseudoword,0,REAL,FALSA
,,,,,,,,,6610320c713a6f7b0b1dd214,001,2024-06-30_07h33.26.378,empathy_intonation_perc,2024.1.4,Win32,59.88023952,,,,,,,,,,,,,,115,lidena,,,,,,81.7662,82.6152,0,1,0.3147,,0,33,33,114,1,pseudoword,0,REAL,FALSA
,,,,,,,,,6610320c713a6f7b0b1dd214,001,2024-06-30_07h33.26.378,empathy_intonation_perc,2024.1.4,Win32,59.88023952,,,,,,,,,,,,,,10,drama,,,,,,82.616,83.3644,1,0,0.2087,,0,34,34,9,1,three_way_cognate,1,REAL,FALSA
,,,,,,,,,6610320c713a6f7b0b1dd214,001,2024-06-30_07h33.26.378,empathy_intonation_perc,2024.1.4,Win32,59.88023952,,,,,,,,,,,,,,185,aljizo,,,,,,83.3649,84.3137,0,1,0.415,,0,35,35,184,1,pseudoword,0,REAL,FALSA
,,,,,,,,,6610320c713a6f7b0b1dd214,001,2024-06-30_07h33.26.378,empathy_intonation_perc,2024.1.4,Win32,59.88023952,,,,,,,,,,,,,,127,vien,,,,,,84.3143,85.3796,1,0,0.5328,,0,36,36,126,1,pseudoword,0,REAL,FALSA
,,,,,,,,,6610320c713a6f7b0b1dd214,001,2024-06-30_07h33.26.378,empathy_intonation_perc,2024.1.4,Win32,59.88023952,,,,,,,,,,,,,,86,cuenco,,,,,,85.3801,86.0122,1,0,0.0992,,0,37,37,85,1,non_cognate,1,REAL,FALSA
,,,,,,,,,6610320c713a6f7b0b1dd214,001,2024-06-30_07h33.26.378,empathy_intonation_perc,2024.1.4,Win32,59.88023952,,,,,,,,,,,,,,97,nocita,,,,,,86.0127,86.6283,0,1,0.0821,,0,38,38,96,1,pseudoword,0,REAL,FALSA
,,,,,,,,,6610320c713a6f7b0b1dd214,001,2024-06-30_07h33.26.378,empathy_intonation_perc,2024.1.4,Win32,59.88023952,,,,,,,,,,,,,,179,suelet,,,,,,86.6287,87.2446,1,0,0.085,,0,39,39,178,1,pseudoword,0,REAL,FALSA
,,,,,,,,,6610320c713a6f7b0b1dd214,001,2024-06-30_07h33.26.378,empathy_intonation_perc,2024.1.4,Win32,59.88023952,,,,,,,,,,,,,,116,grigir,,,,,,87.2449,87.8607,0,1,0.082,,0,40,40,115,1,pseudoword,0,REAL,FALSA
,,,,,,,,,6610320c713a6f7b0b1dd214,001,2024-06-30_07h33.26.378,empathy_intonation_perc,2024.1.4,Win32,59.88023952,,,,,,,,,,,,,,17,clan,,,,,,87.8612,88.5434,1,0,0.1534,,0,41,41,16,1,three_way_cognate,1,REAL,FALSA
,,,,,,,,,6610320c713a6f7b0b1dd214,001,2024-06-30_07h33.26.378,empathy_intonation_perc,2024.1.4,Win32,59.88023952,,,,,,,,,,,,,,132,nocó,,,,,,88.544,89.3095,1,0,0.2336,,0,42,42,131,1,pseudoword,0,REAL,FALSA
,,,,,,,,,6610320c713a6f7b0b1dd214,001,2024-06-30_07h33.26.378,empathy_intonation_perc,2024.1.4,Win32,59.88023952,,,,,,,,,,,,,,91,equipo,,,,,,89.31,89.9757,0,1,0.1337,,0,43,43,90,1,non_cognate,1,REAL,FALSA
,,,,,,,,,6610320c713a6f7b0b1dd214,001,2024-06-30_07h33.26.378,empathy_intonation_perc,2024.1.4,Win32,59.88023952,,,,,,,,,,,,,,90,venado,,,,,,89.976,90.5251,1,0,0.0156,,0,44,44,89,1,non_cognate,1,REAL,FALSA
,,,,,,,,,6610320c713a6f7b0b1dd214,001,2024-06-30_07h33.26.378,empathy_intonation_perc,2024.1.4,Win32,59.88023952,,,,,,,,,,,,,,37,torso,,,,,,90.5258,91.1748,1,0,0.1184,,0,45,45,36,1,two_way_cognate,1,REAL,FALSA
,,,,,,,,,6610320c713a6f7b0b1dd214,001,2024-06-30_07h33.26.378,empathy_intonation_perc,2024.1.4,Win32,59.88023952,,,,,,,,,,,,,,7,albino,,,,,,91.176,91.7742,0,1,0.0662,,0,46,46,6,1,three_way_cognate,1,REAL,FALSA
,,,,,,,,,6610320c713a6f7b0b1dd214,001,2024-06-30_07h33.26.378,empathy_intonation_perc,2024.1.4,Win32,59.88023952,,,,,,,,,,,,,,103,vueras,,,,,,91.7749,92.357,1,0,0.0488,,0,47,47,102,1,pseudoword,0,REAL,FALSA
,,,,,,,,,6610320c713a6f7b0b1dd214,001,2024-06-30_07h33.26.378,empathy_intonation_perc,2024.1.4,Win32,59.88023952,,,,,,,,,,,,,,188,amplir,,,,,,92.3575,93.1231,0,1,0.2302,,0,48,48,187,1,pseudoword,0,REAL,FALSA
,,,,,,,,,6610320c713a6f7b0b1dd214,001,2024-06-30_07h33.26.378,empathy_intonation_perc,2024.1.4,Win32,59.88023952,,,,,,,,,,,,,,29,clamor,,,,,,93.1237,94.7717,0,1,1.1172,,0,49,49,28,1,two_way_cognate,1,REAL,FALSA
,,,,,,,,,6610320c713a6f7b0b1dd214,001,2024-06-30_07h33.26.378,empathy_intonation_perc,2024.1.4,Win32,59.88023952,,,,,,,,,,,,,,139,sasos,,,,,,94.772,95.4044,1,0,0.1002,,0,50,50,138,1,pseudoword,0,REAL,FALSA
,,,,,,,,,6610320c713a6f7b0b1dd214,001,2024-06-30_07h33.26.378,empathy_intonation_perc,2024.1.4,Win32,59.88023952,,,,,,,,,,,,,,84,aviso,,,,,,95.4049,96.2706,1,0,0.3339,,0,51,51,83,1,non_cognate,1,REAL,FALSA
,,,,,,,,,6610320c713a6f7b0b1dd214,001,2024-06-30_07h33.26.378,empathy_intonation_perc,2024.1.4,Win32,59.88023952,,,,,,,,,,,,,,120,mauja,,,,,,96.2715,96.9367,1,0,0.1356,,0,52,52,119,1,pseudoword,0,REAL,FALSA
,,,,,,,,,6610320c713a6f7b0b1dd214,001,2024-06-30_07h33.26.378,empathy_intonation_perc,2024.1.4,Win32,59.88023952,,,,,,,,,,,,,,119,esís,,,,,,96.9371,97.6359,1,0,0.1666,,0,53,53,118,1,pseudoword,0,REAL,FALSA
,,,,,,,,,6610320c713a6f7b0b1dd214,001,2024-06-30_07h33.26.378,empathy_intonation_perc,2024.1.4,Win32,59.88023952,,,,,,,,,,,,,,108,jauda,,,,,,97.6365,98.2854,0,1,0.1154,,0,54,54,107,1,pseudoword,0,REAL,FALSA
,,,,,,,,,6610320c713a6f7b0b1dd214,001,2024-06-30_07h33.26.378,empathy_intonation_perc,2024.1.4,Win32,59.88023952,,,,,,,,,,,,,,172,dogue,,,,,,98.2859,98.8683,1,0,0.0508,,0,55,55,171,1,pseudoword,0,REAL,FALSA
,,,,,,,,,6610320c713a6f7b0b1dd214,001,2024-06-30_07h33.26.378,empathy_intonation_perc,2024.1.4,Win32,59.88023952,,,,,,,,,,,,,,114,dibrea,,,,,,98.8687,99.5677,0,1,0.1659,,0,56,56,113,1,pseudoword,0,REAL,FALSA
,,,,,,,,,6610320c713a6f7b0b1dd214,001,2024-06-30_07h33.26.378,empathy_intonation_perc,2024.1.4,Win32,59.88023952,,,,,,,,,,,,,,41,pasta,,,,,,99.5681,100.567,1,0,0.4662,,0,57,57,40,1,two_way_cognate,1,REAL,FALSA
,,,,,,,,,6610320c713a6f7b0b1dd214,001,2024-06-30_07h33.26.378,empathy_intonation_perc,2024.1.4,Win32,59.88023952,,,,,,,,,,,,,,16,chat,,,,,,100.5675,101.1497,1,0,0.0462,,0,58,58,15,1,three_way_cognate,1,REAL,FALSA
,,,,,,,,,6610320c713a6f7b0b1dd214,001,2024-06-30_07h33.26.378,empathy_intonation_perc,2024.1.4,Win32,59.88023952,,,,,,,,,,,,,,58,colcha,,,,,,101.1502,101.7492,1,0,0.0631,,0,59,59,57,1,non_cognate,1,REAL,FALSA
,,,,,,,,,6610320c713a6f7b0b1dd214,001,2024-06-30_07h33.26.378,empathy_intonation_perc,2024.1.4,Win32,59.88023952,,,,,,,,,,,,,,163,olzan,,,,,,101.7496,102.3155,0,1,0.034,,0,60,60,162,1,pseudoword,0,REAL,FALSA
,,,,,,,,,6610320c713a6f7b0b1dd214,001,2024-06-30_07h33.26.378,empathy_intonation_perc,2024.1.4,Win32,59.88023952,,,,,,,,,,,,,,168,cobén,,,,,,102.3159,102.9654,0,1,0.1217,,0,61,61,167,1,pseudoword,0,REAL,FALSA
,,,,,,,,,6610320c713a6f7b0b1dd214,001,2024-06-30_07h33.26.378,empathy_intonation_perc,2024.1.4,Win32,59.88023952,,,,,,,,,,,,,,20,trauma,,,,,,102.9662,103.5978,0,1,0.0989,,0,62,62,19,1,three_way_cognate,1,REAL,FALSA
,,,,,,,,,6610320c713a6f7b0b1dd214,001,2024-06-30_07h33.26.378,empathy_intonation_perc,2024.1.4,Win32,59.88023952,,,,,,,,,,,,,,82,brillo,,,,,,103.5989,104.2141,1,0,0.0826,,0,63,63,81,1,non_cognate,1,REAL,FALSA
,,,,,,,,,6610320c713a6f7b0b1dd214,001,2024-06-30_07h33.26.378,empathy_intonation_perc,2024.1.4,Win32,59.88023952,,,,,,,,,,,,,,166,anfia,,,,,,104.2146,104.9467,1,0,0.2016,,0,64,64,165,1,pseudoword,0,REAL,FALSA
,,,,,,,,,6610320c713a6f7b0b1dd214,001,2024-06-30_07h33.26.378,empathy_intonation_perc,2024.1.4,Win32,59.88023952,,,,,,,,,,,,,,150,cricó,,,,,,104.9471,105.5296,1,0,0.052,,0,65,65,149,1,pseudoword,0,REAL,FALSA
,,,,,,,,,6610320c713a6f7b0b1dd214,001,2024-06-30_07h33.26.378,empathy_intonation_perc,2024.1.4,Win32,59.88023952,,,,,,,,,,,,,,190,asumie,,,,,,105.5302,106.5622,0,1,0.5025,,0,66,66,189,1,pseudoword,0,REAL,FALSA
,,,,,,,,,6610320c713a6f7b0b1dd214,001,2024-06-30_07h33.26.378,empathy_intonation_perc,2024.1.4,Win32,59.88023952,,,,,,,,,,,,,,118,bará,,,,,,106.563,107.1782,1,0,0.0826,,0,67,67,117,1,pseudoword,0,REAL,FALSA
,,,,,,,,,6610320c713a6f7b0b1dd214,001,2024-06-30_07h33.26.378,empathy_intonation_perc,2024.1.4,Win32,59.88023952,,,,,,,,,,,,,,189,medium,,,,,,107.1786,107.763,0,1,0.0551,,0,68,68,188,1,pseudoword,0,REAL,FALSA
,,,,,,,,,6610320c713a6f7b0b1dd214,001,2024-06-30_07h33.26.378,empathy_intonation_perc,2024.1.4,Win32,59.88023952,,,,,,,,,,,,,,145,rúo,,,,,,107.764,108.494,0,1,0.2001,,0,69,69,144,1,pseudoword,0,REAL,FALSA
,,,,,,,,,6610320c713a6f7b0b1dd214,001,2024-06-30_07h33.26.378,empathy_intonation_perc,2024.1.4,Win32,59.88023952,,,,,,,,,,,,,,89,muñeca,,,,,,108.495,109.0431,0,1,0.0173,,0,70,70,88,1,non_cognate,1,REAL,FALSA
,,,,,,,,,6610320c713a6f7b0b1dd214,001,2024-06-30_07h33.26.378,empathy_intonation_perc,2024.1.4,Win32,59.88023952,,,,,,,,,,,,,,51,listo,,,,,,109.0436,109.9759,0,1,0.4001,,0,71,71,50,1,non_cognate,1,REAL,FALSA
,,,,,,,,,6610320c713a6f7b0b1dd214,001,2024-06-30_07h33.26.378,empathy_intonation_perc,2024.1.4,Win32,59.88023952,,,,,,,,,,,,,,44,editor,,,,,,109.9765,110.592,1,0,0.0849,,0,72,72,43,1,two_way_cognate,1,REAL,FALSA
,,,,,,,,,6610320c713a6f7b0b1dd214,001,2024-06-30_07h33.26.378,empathy_intonation_perc,2024.1.4,Win32,59.88023952,,,,,,,,,,,,,,154,harvé,,,,,,110.5926,111.125,0,1,0.0005,,0,73,73,153,1,pseudoword,0,REAL,FALSA
,,,,,,,,,6610320c713a6f7b0b1dd214,001,2024-06-30_07h33.26.378,empathy_intonation_perc,2024.1.4,Win32,59.88023952,,,,,,,,,,,,,,85,enorme,,,,,,111.1256,112.124,0,1,0.4666,,0,74,74,84,1,non_cognate,1,REAL,FALSA
,,,,,,,,,6610320c713a6f7b0b1dd214,001,2024-06-30_07h33.26.378,empathy_intonation_perc,2024.1.4,Win32,59.88023952,,,,,,,,,,,,,,184,huenos,,,,,,112.1246,112.7569,1,0,0.0997,,0,75,75,183,1,pseudoword,0,REAL,FALSA
,,,,,,,,,6610320c713a6f7b0b1dd214,001,2024-06-30_07h33.26.378,empathy_intonation_perc,2024.1.4,Win32,59.88023952,,,,,,,,,,,,,,164,tecia,,,,,,112.7573,113.2898,0,1,0.0009,,0,76,76,163,1,pseudoword,0,REAL,FALSA
,,,,,,,,,6610320c713a6f7b0b1dd214,001,2024-06-30_07h33.26.378,empathy_intonation_perc,2024.1.4,Win32,59.88023952,,,,,,,,,,,,,,110,densó,,,,,,113.2902,114.289,0,1,0.4632,,0,77,77,109,1,pseudoword,0,REAL,FALSA
,,,,,,,,,6610320c713a6f7b0b1dd214,001,2024-06-30_07h33.26.378,empathy_intonation_perc,2024.1.4,Win32,59.88023952,,,,,,,,,,,,,,100,épinas,,,,,,114.2897,114.8385,1,0,0.0152,,0,78,78,99,1,pseudoword,0,REAL,FALSA
,,,,,,,,,6610320c713a6f7b0b1dd214,001,2024-06-30_07h33.26.378,empathy_intonation_perc,2024.1.4,Win32,59.88023952,,,,,,,,,,,,,,25,vigor,,,,,,114.8389,115.3881,0,1,0.015,,0,79,79,24,1,two_way_cognate,1,REAL,FALSA
,,,,,,,,,6610320c713a6f7b0b1dd214,001,2024-06-30_07h33.26.378,empathy_intonation_perc,2024.1.4,Win32,59.88023952,,,,,,,,,,,,,,129,vinzó,,,,,,115.3886,116.5207,1,0,0.6002,,0,80,80,128,1,pseudoword,0,REAL,FALSA
,,,,,,,,,6610320c713a6f7b0b1dd214,001,2024-06-30_07h33.26.378,empathy_intonation_perc,2024.1.4,Win32,59.88023952,,,,,,,,,,,,,,136,hueas,,,,,,116.5216,117.1201,1,0,0.067,,0,81,81,135,1,pseudoword,0,REAL,FALSA
,,,,,,,,,6610320c713a6f7b0b1dd214,001,2024-06-30_07h33.26.378,empathy_intonation_perc,2024.1.4,Win32,59.88023952,,,,,,,,,,,,,,6,horror,,,,,,117.1205,117.7028,1,0,0.0464,,0,82,82,5,1,three_way_cognate,1,REAL,FALSA
,,,,,,,,,6610320c713a6f7b0b1dd214,001,2024-06-30_07h33.26.378,empathy_intonation_perc,2024.1.4,Win32,59.88023952,,,,,,,,,,,,,,153,golla,,,,,,117.7032,118.269,1,0,0.0371,,0,83,83,152,1,pseudoword,0,REAL,FALSA
,,,,,,,,,6610320c713a6f7b0b1dd214,001,2024-06-30_07h33.26.378,empathy_intonation_perc,2024.1.4,Win32,59.88023952,,,,,,,,,,,,,,107,plago,,,,,,118.2695,119.2516,0,1,0.4516,,0,84,84,106,1,pseudoword,0,REAL,FALSA
,,,,,,,,,6610320c713a6f7b0b1dd214,001,2024-06-30_07h33.26.378,empathy_intonation_perc,2024.1.4,Win32,59.88023952,,,,,,,,,,,,,,152,prave,,,,,,119.252,119.8009,1,0,0.0151,,0,85,85,151,1,pseudoword,0,REAL,FALSA
,,,,,,,,,6610320c713a6f7b0b1dd214,001,2024-06-30_07h33.26.378,empathy_intonation_perc,2024.1.4,Win32,59.88023952,,,,,,,,,,,,,,191,frasis,,,,,,119.8013,120.4173,0,1,0.0845,,0,86,86,190,1,pseudoword,0,REAL,FALSA
,,,,,,,,,6610320c713a6f7b0b1dd214,001,2024-06-30_07h33.26.378,empathy_intonation_perc,2024.1.4,Win32,59.88023952,,,,,,,,,,,,,,157,seled,,,,,,120.4177,121.4499,0,1,0.5171,,0,87,87,156,1,pseudoword,0,REAL,FALSA
,,,,,,,,,6610320c713a6f7b0b1dd214,001,2024-06-30_07h33.26.378,empathy_intonation_perc,2024.1.4,Win32,59.88023952,,,,,,,,,,,,,,28,ardor,,,,,,121.4504,121.9993,1,0,0.0146,,0,88,88,27,1,two_way_cognate,1,REAL,FALSA
,,,,,,,,,6610320c713a6f7b0b1dd214,001,2024-06-30_07h33.26.378,empathy_intonation_perc,2024.1.4,Win32,59.88023952,,,,,,,,,,,,,,142,parre,,,,,,121.9997,122.6987,0,1,0.1671,,0,89,89,141,1,pseudoword,0,REAL,FALSA
,,,,,,,,,6610320c713a6f7b0b1dd214,001,2024-06-30_07h33.26.378,empathy_intonation_perc,2024.1.4,Win32,59.88023952,,,,,,,,,,,,,,19,mafia,,,,,,122.6991,123.2819,1,0,0.0478,,0,90,90,18,1,three_way_cognate,1,REAL,FALSA
,,,,,,,,,6610320c713a6f7b0b1dd214,001,2024-06-30_07h33.26.378,empathy_intonation_perc,2024.1.4,Win32,59.88023952,,,,,,,,,,,,,,187,nomata,,,,,,123.2828,124.0811,1,0,0.2674,,0,91,91,186,1,pseudoword,0,REAL,FALSA
,,,,,,,,,6610320c713a6f7b0b1dd214,001,2024-06-30_07h33.26.378,empathy_intonation_perc,2024.1.4,Win32,59.88023952,,,,,,,,,,,,,,158,babrá,,,,,,124.0814,124.6805,1,0,0.0668,,0,92,92,157,1,pseudoword,0,REAL,FALSA
,,,,,,,,,6610320c713a6f7b0b1dd214,001,2024-06-30_07h33.26.378,empathy_intonation_perc,2024.1.4,Win32,59.88023952,,,,,,,,,,,,,,148,gino,,,,,,124.6811,125.3301,0,1,0.1158,,0,93,93,147,1,pseudoword,0,REAL,FALSA
,,,,,,,,,6610320c713a6f7b0b1dd214,001,2024-06-30_07h33.26.378,empathy_intonation_perc,2024.1.4,Win32,59.88023952,,,,,,,,,,,,,,138,tator,,,,,,125.3305,125.9144,1,0,0.0515,,0,94,94,137,1,pseudoword,0,REAL,FALSA
,,,,,,,,,6610320c713a6f7b0b1dd214,001,2024-06-30_07h33.26.378,empathy_intonation_perc,2024.1.4,Win32,59.88023952,,,,,,,,,,,,,,27,piano,,,,,,125.9166,126.5458,1,0,0.0981,,0,95,95,26,1,two_way_cognate,1,REAL,FALSA
,,,,,,,,,6610320c713a6f7b0b1dd214,001,2024-06-30_07h33.26.378,empathy_intonation_perc,2024.1.4,Win32,59.88023952,,,,,,,,,,,,,,11,golf,,,,,,126.5464,127.3451,1,0,0.2694,,0,96,96,10,1,three_way_cognate,1,REAL,FALSA
,,,,,,,,,6610320c713a6f7b0b1dd214,001,2024-06-30_07h33.26.378,empathy_intonation_perc,2024.1.4,Win32,59.88023952,,,,,,,,,,,,,,99,bugor,,,,,,127.346,128.061,1,0,0.1824,,0,97,97,98,1,pseudoword,0,REAL,FALSA
,,,,,,,,,6610320c713a6f7b0b1dd214,001,2024-06-30_07h33.26.378,empathy_intonation_perc,2024.1.4,Win32,59.88023952,,,,,,,,,,,,,,47,color,,,,,,128.0617,128.7108,0,1,0.1184,,0,98,98,46,1,two_way_cognate,1,REAL,FALSA
,,,,,,,,,6610320c713a6f7b0b1dd214,001,2024-06-30_07h33.26.378,empathy_intonation_perc,2024.1.4,Win32,59.88023952,,,,,,,,,,,,,,131,fuar,,,,,,128.7117,129.31,1,0,0.067,,0,99,99,130,1,pseudoword,0,REAL,FALSA
,,,,,,,,,6610320c713a6f7b0b1dd214,001,2024-06-30_07h33.26.378,empathy_intonation_perc,2024.1.4,Win32,59.88023952,,,,,,,,,,,,,,135,panté,,,,,,129.3104,129.9284,0,1,0.0882,,0,100,100,134,1,pseudoword,0,REAL,FALSA
,,,,,,,,,6610320c713a6f7b0b1dd214,001,2024-06-30_07h33.26.378,empathy_intonation_perc,2024.1.4,Win32,59.88023952,,,,,,,,,,,,,,144,diroco,,,,,,129.9297,130.5755,1,0,0.1177,,0,101,101,143,1,pseudoword,0,REAL,FALSA
,,,,,,,,,6610320c713a6f7b0b1dd214,001,2024-06-30_07h33.26.378,empathy_intonation_perc,2024.1.4,Win32,59.88023952,,,,,,,,,,,,,,67,llamar,,,,,,130.5759,131.2584,1,0,0.1519,,0,102,102,66,1,non_cognate,1,REAL,FALSA
,,,,,,,,,6610320c713a6f7b0b1dd214,001,2024-06-30_07h33.26.378,empathy_intonation_perc,2024.1.4,Win32,59.88023952,,,,,,,,,,,,,,160,fomeó,,,,,,131.2589,132.041,1,0,0.2481,,0,103,103,159,1,pseudoword,0,REAL,FALSA
,,,,,,,,,6610320c713a6f7b0b1dd214,001,2024-06-30_07h33.26.378,empathy_intonation_perc,2024.1.4,Win32,59.88023952,,,,,,,,,,,,,,78,rendir,,,,,,132.0415,132.5905,0,1,0.0157,,0,104,104,77,1,non_cognate,1,REAL,FALSA
,,,,,,,,,6610320c713a6f7b0b1dd214,001,2024-06-30_07h33.26.378,empathy_intonation_perc,2024.1.4,Win32,59.88023952,,,,,,,,,,,,,,24,retina,,,,,,132.5909,133.1401,1,0,0.0183,,0,105,105,23,1,three_way_cognate,1,REAL,FALSA
,,,,,,,,,6610320c713a6f7b0b1dd214,001,2024-06-30_07h33.26.378,empathy_intonation_perc,2024.1.4,Win32,59.88023952,,,,,,,,,,,,,,149,emén,,,,,,133.1405,133.7563,0,1,0.0823,,0,106,106,148,1,pseudoword,0,REAL,FALSA
,,,,,,,,,6610320c713a6f7b0b1dd214,001,2024-06-30_07h33.26.378,empathy_intonation_perc,2024.1.4,Win32,59.88023952,,,,,,,,,,,,,,180,pupica,,,,,,133.7567,134.3392,1,0,0.0519,,0,107,107,179,1,pseudoword,0,REAL,FALSA
,,,,,,,,,6610320c713a6f7b0b1dd214,001,2024-06-30_07h33.26.378,empathy_intonation_perc,2024.1.4,Win32,59.88023952,,,,,,,,,,,,,,34,actor,,,,,,134.3395,134.9061,0,1,0.0328,,0,108,108,33,1,two_way_cognate,1,REAL,FALSA
,,,,,,,,,6610320c713a6f7b0b1dd214,001,2024-06-30_07h33.26.378,empathy_intonation_perc,2024.1.4,Win32,59.88023952,,,,,,,,,,,,,,151,prías,,,,,,134.9066,135.9711,0,1,0.5317,,0,109,109,150,1,pseudoword,0,REAL,FALSA
,,,,,,,,,6610320c713a6f7b0b1dd214,001,2024-06-30_07h33.26.378,empathy_intonation_perc,2024.1.4,Win32,59.88023952,,,,,,,,,,,,,,8,kilo,,,,,,135.9715,136.6373,0,1,0.1361,,0,110,110,7,1,three_way_cognate,1,REAL,FALSA
,,,,,,,,,6610320c713a6f7b0b1dd214,001,2024-06-30_07h33.26.378,empathy_intonation_perc,2024.1.4,Win32,59.88023952,,,,,,,,,,,,,,156,ozoso,,,,,,136.6377,137.3202,0,1,0.1474,,0,111,111,155,1,pseudoword,0,REAL,FALSA
,,,,,,,,,6610320c713a6f7b0b1dd214,001,2024-06-30_07h33.26.378,empathy_intonation_perc,2024.1.4,Win32,59.88023952,,,,,,,,,,,,,,56,pico,,,,,,137.3207,138.3195,1,0,0.4661,,0,112,112,55,1,non_cognate,1,REAL,FALSA
,,,,,,,,,6610320c713a6f7b0b1dd214,001,2024-06-30_07h33.26.378,empathy_intonation_perc,2024.1.4,Win32,59.88023952,,,,,,,,,,,,,,55,maldad,,,,,,138.3209,138.9021,0,1,0.052,,0,113,113,54,1,non_cognate,1,REAL,FALSA
,,,,,,,,,6610320c713a6f7b0b1dd214,001,2024-06-30_07h33.26.378,empathy_intonation_perc,2024.1.4,Win32,59.88023952,,,,,,,,,,,,,,21,hotel,,,,,,138.9025,139.9347,1,0,0.5025,,0,114,114,20,1,three_way_cognate,1,REAL,FALSA
,,,,,,,,,6610320c713a6f7b0b1dd214,001,2024-06-30_07h33.26.378,empathy_intonation_perc,2024.1.4,Win32,59.88023952,,,,,,,,,,,,,,112,samón,,,,,,139.935,140.4845,1,0,0.0151,,0,115,115,111,1,pseudoword,0,REAL,FALSA
,,,,,,,,,6610320c713a6f7b0b1dd214,001,2024-06-30_07h33.26.378,empathy_intonation_perc,2024.1.4,Win32,59.88023952,,,,,,,,,,,,,,155,kugis,,,,,,140.4854,141.1337,1,0,0.1152,,0,116,116,154,1,pseudoword,0,REAL,FALSA
,,,,,,,,,6610320c713a6f7b0b1dd214,001,2024-06-30_07h33.26.378,empathy_intonation_perc,2024.1.4,Win32,59.88023952,,,,,,,,,,,,,,80,cuenco,,,,,,141.1343,141.75,0,1,0.0814,,0,117,117,79,1,non_cognate,1,REAL,FALSA
,,,,,,,,,6610320c713a6f7b0b1dd214,001,2024-06-30_07h33.26.378,empathy_intonation_perc,2024.1.4,Win32,59.88023952,,,,,,,,,,,,,,122,boñaz,,,,,,141.7509,142.2828,1,0,0.0005,,0,118,118,121,1,pseudoword,0,REAL,FALSA
,,,,,,,,,6610320c713a6f7b0b1dd214,001,2024-06-30_07h33.26.378,empathy_intonation_perc,2024.1.4,Win32,59.88023952,,,,,,,,,,,,,,73,llevar,,,,,,142.2836,142.9654,0,1,0.1513,,0,119,119,72,1,non_cognate,1,REAL,FALSA
,,,,,,,,,6610320c713a6f7b0b1dd214,001,2024-06-30_07h33.26.378,empathy_intonation_perc,2024.1.4,Win32,59.88023952,,,,,,,,,,,,,,46,mortal,,,,,,142.9658,144.0145,1,0,0.5178,,0,120,120,45,1,two_way_cognate,1,REAL,FALSA
,,,,,,,,,6610320c713a6f7b0b1dd214,001,2024-06-30_07h33.26.378,empathy_intonation_perc,2024.1.4,Win32,59.88023952,,,,,,,,,,,,,,105,leniz,,,,,,144.0152,144.7642,1,0,0.2194,,0,121,121,104,1,pseudoword,0,REAL,FALSA
,,,,,,,,,6610320c713a6f7b0b1dd214,001,2024-06-30_07h33.26.378,empathy_intonation_perc,2024.1.4,Win32,59.88023952,,,,,,,,,,,,,,65,guerra,,,,,,144.7651,145.2971,1,0,0.0004,,0,122,122,64,1,non_cognate,1,REAL,FALSA
,,,,,,,,,6610320c713a6f7b0b1dd214,001,2024-06-30_07h33.26.378,empathy_intonation_perc,2024.1.4,Win32,59.88023952,,,,,,,,,,,,,,39,casual,,,,,,145.2975,145.9797,1,0,0.1462,,0,123,123,38,1,two_way_cognate,1,REAL,FALSA
,,,,,,,,,6610320c713a6f7b0b1dd214,001,2024-06-30_07h33.26.378,empathy_intonation_perc,2024.1.4,Win32,59.88023952,,,,,,,,,,,,,,12,dogma,,,,,,145.9802,146.7623,0,1,0.2512,,0,124,124,11,1,three_way_cognate,1,REAL,FALSA
,,,,,,,,,6610320c713a6f7b0b1dd214,001,2024-06-30_07h33.26.378,empathy_intonation_perc,2024.1.4,Win32,59.88023952,,,,,,,,,,,,,,68,puñal,,,,,,146.763,147.445,1,0,0.1492,,0,125,125,67,1,non_cognate,1,REAL,FALSA
,,,,,,,,,6610320c713a6f7b0b1dd214,001,2024-06-30_07h33.26.378,empathy_intonation_perc,2024.1.4,Win32,59.88023952,,,,,,,,,,,,,,32,animal,,,,,,147.4456,148.2784,1,0,0.301,,0,126,126,31,1,two_way_cognate,1,REAL,FALSA
,,,,,,,,,6610320c713a6f7b0b1dd214,001,2024-06-30_07h33.26.378,empathy_intonation_perc,2024.1.4,Win32,59.88023952,,,,,,,,,,,,,,95,listo,,,,,,148.2796,148.9439,1,0,0.1332,,0,127,127,94,1,non_cognate,1,REAL,FALSA
,,,,,,,,,6610320c713a6f7b0b1dd214,001,2024-06-30_07h33.26.378,empathy_intonation_perc,2024.1.4,Win32,59.88023952,,,,,,,,,,,,,,66,aleta,,,,,,148.9443,149.9277,1,0,0.451,,0,128,128,65,1,non_cognate,1,REAL,FALSA
,,,,,,,,,6610320c713a6f7b0b1dd214,001,2024-06-30_07h33.26.378,empathy_intonation_perc,2024.1.4,Win32,59.88023952,,,,,,,,,,,,,,87,muleta,,,,,,149.9282,150.676,1,0,0.2195,,0,129,129,86,1,non_cognate,1,REAL,FALSA
,,,,,,,,,6610320c713a6f7b0b1dd214,001,2024-06-30_07h33.26.378,empathy_intonation_perc,2024.1.4,Win32,59.88023952,,,,,,,,,,,,,,59,feo,,,,,,150.6763,151.242,1,0,0.0339,,0,130,130,58,1,non_cognate,1,REAL,FALSA
,,,,,,,,,6610320c713a6f7b0b1dd214,001,2024-06-30_07h33.26.378,empathy_intonation_perc,2024.1.4,Win32,59.88023952,,,,,,,,,,,,,,117,morrá,,,,,,151.2424,151.8082,1,0,0.0368,,0,131,131,116,1,pseudoword,0,REAL,FALSA
,,,,,,,,,6610320c713a6f7b0b1dd214,001,2024-06-30_07h33.26.378,empathy_intonation_perc,2024.1.4,Win32,59.88023952,,,,,,,,,,,,,,38,halo,,,,,,151.8086,153.64,1,0,1.2983,,0,132,132,37,1,two_way_cognate,1,REAL,FALSA
,,,,,,,,,6610320c713a6f7b0b1dd214,001,2024-06-30_07h33.26.378,empathy_intonation_perc,2024.1.4,Win32,59.88023952,,,,,,,,,,,,,,76,chocar,,,,,,153.6405,154.273,1,0,0.1023,,0,133,133,75,1,non_cognate,1,REAL,FALSA
,,,,,,,,,6610320c713a6f7b0b1dd214,001,2024-06-30_07h33.26.378,empathy_intonation_perc,2024.1.4,Win32,59.88023952,,,,,,,,,,,,,,81,sacar,,,,,,154.2737,156.3877,1,0,1.5836,,0,134,134,80,1,non_cognate,1,REAL,FALSA
,,,,,,,,,6610320c713a6f7b0b1dd214,001,2024-06-30_07h33.26.378,empathy_intonation_perc,2024.1.4,Win32,59.88023952,,,,,,,,,,,,,,143,hurcos,,,,,,156.3883,157.1371,1,0,0.2122,,0,135,135,142,1,pseudoword,0,REAL,FALSA
,,,,,,,,,6610320c713a6f7b0b1dd214,001,2024-06-30_07h33.26.378,empathy_intonation_perc,2024.1.4,Win32,59.88023952,,,,,,,,,,,,,,161,civas,,,,,,157.1375,157.7531,1,0,0.0823,,0,136,136,160,1,pseudoword,0,REAL,FALSA
,,,,,,,,,6610320c713a6f7b0b1dd214,001,2024-06-30_07h33.26.378,empathy_intonation_perc,2024.1.4,Win32,59.88023952,,,,,,,,,,,,,,165,chote,,,,,,157.7536,159.3193,1,0,1.0363,,0,137,137,164,1,pseudoword,0,REAL,FALSA
,,,,,,,,,6610320c713a6f7b0b1dd214,001,2024-06-30_07h33.26.378,empathy_intonation_perc,2024.1.4,Win32,59.88023952,,,,,,,,,,,,,,167,dobbo,,,,,,159.3202,159.9847,1,0,0.1323,,0,138,138,166,1,pseudoword,0,REAL,FALSA
,,,,,,,,,6610320c713a6f7b0b1dd214,001,2024-06-30_07h33.26.378,empathy_intonation_perc,2024.1.4,Win32,59.88023952,,,,,,,,,,,,,,173,mibro,,,,,,159.9851,160.918,1,0,0.4,,0,139,139,172,1,pseudoword,0,REAL,FALSA
,,,,,,,,,6610320c713a6f7b0b1dd214,001,2024-06-30_07h33.26.378,empathy_intonation_perc,2024.1.4,Win32,59.88023952,,,,,,,,,,,,,,35,aurora,,,,,,160.9193,161.5335,0,1,0.081,,0,140,140,34,1,two_way_cognate,1,REAL,FALSA
,,,,,,,,,6610320c713a6f7b0b1dd214,001,2024-06-30_07h33.26.378,empathy_intonation_perc,2024.1.4,Win32,59.88023952,,,,,,,,,,,,,,134,molor,,,,,,161.5339,162.4827,1,0,0.4195,,0,141,141,133,1,pseudoword,0,REAL,FALSA
,,,,,,,,,6610320c713a6f7b0b1dd214,001,2024-06-30_07h33.26.378,empathy_intonation_perc,2024.1.4,Win32,59.88023952,,,,,,,,,,,,,,14,aura,,,,,,162.483,163.1155,0,1,0.0996,,0,142,142,13,1,three_way_cognate,1,REAL,FALSA
,,,,,,,,,6610320c713a6f7b0b1dd214,001,2024-06-30_07h33.26.378,empathy_intonation_perc,2024.1.4,Win32,59.88023952,,,,,,,,,,,,,,106,diebro,,,,,,163.1159,163.7982,1,0,0.1477,,0,143,143,105,1,pseudoword,0,REAL,FALSA
,,,,,,,,,6610320c713a6f7b0b1dd214,001,2024-06-30_07h33.26.378,empathy_intonation_perc,2024.1.4,Win32,59.88023952,,,,,,,,,,,,,,33,collar,,,,,,163.7986,164.3979,1,0,0.0679,,0,144,144,32,1,two_way_cognate,1,REAL,FALSA
,,,,,,,,,6610320c713a6f7b0b1dd214,001,2024-06-30_07h33.26.378,empathy_intonation_perc,2024.1.4,Win32,59.88023952,,,,,,,,,,,,,,126,tobre,,,,,,164.3987,164.9472,1,0,0.0166,,0,145,145,125,1,pseudoword,0,REAL,FALSA
,,,,,,,,,6610320c713a6f7b0b1dd214,001,2024-06-30_07h33.26.378,empathy_intonation_perc,2024.1.4,Win32,59.88023952,,,,,,,,,,,,,,52,blando,,,,,,164.9475,165.8465,1,0,0.3638,,0,146,146,51,1,non_cognate,1,REAL,FALSA
,,,,,,,,,6610320c713a6f7b0b1dd214,001,2024-06-30_07h33.26.378,empathy_intonation_perc,2024.1.4,Win32,59.88023952,,,,,,,,,,,,,,169,pitis,,,,,,165.847,166.4128,1,0,0.0333,,0,147,147,168,1,pseudoword,0,REAL,FALSA
,,,,,,,,,6610320c713a6f7b0b1dd214,001,2024-06-30_07h33.26.378,empathy_intonation_perc,2024.1.4,Win32,59.88023952,,,,,,,,,,,,,,50,sierra,,,,,,166.4131,167.4285,1,0,0.4809,,0,148,148,49,1,non_cognate,1,REAL,FALSA
,,,,,,,,,6610320c713a6f7b0b1dd214,001,2024-06-30_07h33.26.378,empathy_intonation_perc,2024.1.4,Win32,59.88023952,,,,,,,,,,,,,,60,siglo,,,,,,167.429,168.3944,1,0,0.4342,,0,149,149,59,1,non_cognate,1,REAL,FALSA
,,,,,,,,,6610320c713a6f7b0b1dd214,001,2024-06-30_07h33.26.378,empathy_intonation_perc,2024.1.4,Win32,59.88023952,,,,,,,,,,,,,,171,gotro,,,,,,168.3948,169.0105,1,0,0.0835,,0,150,150,170,1,pseudoword,0,REAL,FALSA
,,,,,,,,,6610320c713a6f7b0b1dd214,001,2024-06-30_07h33.26.378,empathy_intonation_perc,2024.1.4,Win32,59.88023952,,,,,,,,,,,,,,104,estulo,,,,,,169.011,169.9099,1,0,0.3668,,0,151,151,103,1,pseudoword,0,REAL,FALSA
,,,,,,,,,6610320c713a6f7b0b1dd214,001,2024-06-30_07h33.26.378,empathy_intonation_perc,2024.1.4,Win32,59.88023952,,,,,,,,,,,,,,48,pelvis,,,,,,169.9107,170.4929,1,0,0.0482,,0,152,152,47,1,two_way_cognate,1,REAL,FALSA
,,,,,,,,,6610320c713a6f7b0b1dd214,001,2024-06-30_07h33.26.378,empathy_intonation_perc,2024.1.4,Win32,59.88023952,,,,,,,,,,,,,,26,enigma,,,,,,170.4938,171.059,1,0,0.0332,,0,153,153,25,1,two_way_cognate,1,REAL,FALSA
,,,,,,,,,6610320c713a6f7b0b1dd214,001,2024-06-30_07h33.26.378,empathy_intonation_perc,2024.1.4,Win32,59.88023952,,,,,,,,,,,,,,121,barbs,,,,,,171.0594,171.6085,1,0,0.0178,,0,154,154,120,1,pseudoword,0,REAL,FALSA
,,,,,,,,,6610320c713a6f7b0b1dd214,001,2024-06-30_07h33.26.378,empathy_intonation_perc,2024.1.4,Win32,59.88023952,,,,,,,,,,,,,,98,martir,,,,,,171.6089,172.1416,1,0,0.0006,,0,155,155,97,1,pseudoword,0,REAL,FALSA
,,,,,,,,,6610320c713a6f7b0b1dd214,001,2024-06-30_07h33.26.378,empathy_intonation_perc,2024.1.4,Win32,59.88023952,,,,,,,,,,,,,,146,gió,,,,,,172.1421,172.7243,1,0,0.0487,,0,156,156,145,1,pseudoword,0,REAL,FALSA
,,,,,,,,,6610320c713a6f7b0b1dd214,001,2024-06-30_07h33.26.378,empathy_intonation_perc,2024.1.4,Win32,59.88023952,,,,,,,,,,,,,,64,rizado,,,,,,172.7248,173.7068,1,0,0.4512,,0,157,157,63,1,non_cognate,1,REAL,FALSA
,,,,,,,,,6610320c713a6f7b0b1dd214,001,2024-06-30_07h33.26.378,empathy_intonation_perc,2024.1.4,Win32,59.88023952,,,,,,,,,,,,,,113,nasce,,,,,,173.7073,174.2563,1,0,0.0153,,0,158,158,112,1,pseudoword,0,REAL,FALSA
,,,,,,,,,6610320c713a6f7b0b1dd214,001,2024-06-30_07h33.26.378,empathy_intonation_perc,2024.1.4,Win32,59.88023952,,,,,,,,,,,,,,92,flecha,,,,,,174.2567,174.7896,0,1,0.0005,,0,159,159,91,1,non_cognate,1,REAL,FALSA
,,,,,,,,,6610320c713a6f7b0b1dd214,001,2024-06-30_07h33.26.378,empathy_intonation_perc,2024.1.4,Win32,59.88023952,,,,,,,,,,,,,,23,plural,,,,,,174.7903,175.7385,0,1,0.418,,0,160,160,22,1,three_way_cognate,1,REAL,FALSA
,,,,,,,,,6610320c713a6f7b0b1dd214,001,2024-06-30_07h33.26.378,empathy_intonation_perc,2024.1.4,Win32,59.88023952,,,,,,,,,,,,,,111,monue,,,,,,175.7388,176.3546,0,1,0.083,,0,161,161,110,1,pseudoword,0,REAL,FALSA
,,,,,,,,,6610320c713a6f7b0b1dd214,001,2024-06-30_07h33.26.378,empathy_intonation_perc,2024.1.4,Win32,59.88023952,,,,,,,,,,,,,,45,total,,,,,,176.3552,176.8874,0,1,0.0004,,0,162,162,44,1,two_way_cognate,1,REAL,FALSA
,,,,,,,,,6610320c713a6f7b0b1dd214,001,2024-06-30_07h33.26.378,empathy_intonation_perc,2024.1.4,Win32,59.88023952,,,,,,,,,,,,,,40,pelvis,,,,,,176.8877,177.8035,0,1,0.3822,,0,163,163,39,1,two_way_cognate,1,REAL,FALSA
,,,,,,,,,6610320c713a6f7b0b1dd214,001,2024-06-30_07h33.26.378,empathy_intonation_perc,2024.1.4,Win32,59.88023952,,,,,,,,,,,,,,176,gripar,,,,,,177.8039,178.353,0,1,0.0185,,0,164,164,175,1,pseudoword,0,REAL,FALSA
,,,,,,,,,6610320c713a6f7b0b1dd214,001,2024-06-30_07h33.26.378,empathy_intonation_perc,2024.1.4,Win32,59.88023952,,,,,,,,,,,,,,74,ala,,,,,,178.3535,178.9857,0,1,0.0992,,0,165,165,73,1,non_cognate,1,REAL,FALSA
,,,,,,,,,6610320c713a6f7b0b1dd214,001,2024-06-30_07h33.26.378,empathy_intonation_perc,2024.1.4,Win32,59.88023952,,,,,,,,,,,,,,3,disco,,,,,,178.9861,179.5853,0,1,0.0668,,0,166,166,2,1,three_way_cognate,1,REAL,FALSA
,,,,,,,,,6610320c713a6f7b0b1dd214,001,2024-06-30_07h33.26.378,empathy_intonation_perc,2024.1.4,Win32,59.88023952,,,,,,,,,,,,,,96,caro,,,,,,179.5856,180.318,0,1,0.2007,,0,167,167,95,1,non_cognate,1,REAL,FALSA
,,,,,,,,,6610320c713a6f7b0b1dd214,001,2024-06-30_07h33.26.378,empathy_intonation_perc,2024.1.4,Win32,59.88023952,,,,,,,,,,,,,,9,portal,,,,,,180.3184,180.8842,1,0,0.0344,,0,168,168,8,1,three_way_cognate,1,REAL,FALSA
,,,,,,,,,6610320c713a6f7b0b1dd214,001,2024-06-30_07h33.26.378,empathy_intonation_perc,2024.1.4,Win32,59.88023952,,,,,,,,,,,,,,22,mango,,,,,,180.8846,181.5004,1,0,0.0847,,0,169,169,21,1,three_way_cognate,1,REAL,FALSA
,,,,,,,,,6610320c713a6f7b0b1dd214,001,2024-06-30_07h33.26.378,empathy_intonation_perc,2024.1.4,Win32,59.88023952,,,,,,,,,,,,,,181,gravés,,,,,,181.5008,182.0666,1,0,0.036,,0,170,170,180,1,pseudoword,0,REAL,FALSA
,,,,,,,,,6610320c713a6f7b0b1dd214,001,2024-06-30_07h33.26.378,empathy_intonation_perc,2024.1.4,Win32,59.88023952,,,,,,,,,,,,,,69,tiza,,,,,,182.0671,182.8491,1,0,0.2476,,0,171,171,68,1,non_cognate,1,REAL,FALSA
,,,,,,,,,6610320c713a6f7b0b1dd214,001,2024-06-30_07h33.26.378,empathy_intonation_perc,2024.1.4,Win32,59.88023952,,,,,,,,,,,,,,72,rostro,,,,,,182.8496,183.3989,1,0,0.0188,,0,172,172,71,1,non_cognate,1,REAL,FALSA
,,,,,,,,,6610320c713a6f7b0b1dd214,001,2024-06-30_07h33.26.378,empathy_intonation_perc,2024.1.4,Win32,59.88023952,,,,,,,,,,,,,,109,laras,,,,,,183.3995,183.9983,1,0,0.0654,,0,173,173,108,1,pseudoword,0,REAL,FALSA
,,,,,,,,,6610320c713a6f7b0b1dd214,001,2024-06-30_07h33.26.378,empathy_intonation_perc,2024.1.4,Win32,59.88023952,,,,,,,,,,,,,,83,hálito,,,,,,183.9988,184.5646,1,0,0.0322,,0,174,174,82,1,non_cognate,1,REAL,FALSA
,,,,,,,,,6610320c713a6f7b0b1dd214,001,2024-06-30_07h33.26.378,empathy_intonation_perc,2024.1.4,Win32,59.88023952,,,,,,,,,,,,,,79,suelo,,,,,,184.5649,185.1503,0,1,0.0554,,0,175,175,78,1,non_cognate,1,REAL,FALSA
,,,,,,,,,6610320c713a6f7b0b1dd214,001,2024-06-30_07h33.26.378,empathy_intonation_perc,2024.1.4,Win32,59.88023952,,,,,,,,,,,,,,88,percha,,,,,,185.1512,186.08,0,1,0.4002,,0,176,176,87,1,non_cognate,1,REAL,FALSA
,,,,,,,,,6610320c713a6f7b0b1dd214,001,2024-06-30_07h33.26.378,empathy_intonation_perc,2024.1.4,Win32,59.88023952,,,,,,,,,,,,,,125,ceme,,,,,,186.0803,186.7294,1,0,0.1177,,0,177,177,124,1,pseudoword,0,REAL,FALSA
,,,,,,,,,6610320c713a6f7b0b1dd214,001,2024-06-30_07h33.26.378,empathy_intonation_perc,2024.1.4,Win32,59.88023952,,,,,,,,,,,,,,183,edioso,,,,,,186.7299,187.3124,0,1,0.0491,,0,178,178,182,1,pseudoword,0,REAL,FALSA
,,,,,,,,,6610320c713a6f7b0b1dd214,001,2024-06-30_07h33.26.378,empathy_intonation_perc,2024.1.4,Win32,59.88023952,,,,,,,,,,,,,,5,extra,,,,,,187.3131,187.9453,0,1,0.1016,,0,179,179,4,1,three_way_cognate,1,REAL,FALSA
,,,,,,,,,6610320c713a6f7b0b1dd214,001,2024-06-30_07h33.26.378,empathy_intonation_perc,2024.1.4,Win32,59.88023952,,,,,,,,,,,,,,175,tradía,,,,,,187.9459,188.4947,0,1,0.0152,,0,180,180,174,1,pseudoword,0,REAL,FALSA
,,,,,,,,,6610320c713a6f7b0b1dd214,001,2024-06-30_07h33.26.378,empathy_intonation_perc,2024.1.4,Win32,59.88023952,,,,,,,,,,,,,,94,forro,,,,,,188.4952,189.5771,0,1,0.5476,,0,181,181,93,1,non_cognate,1,REAL,FALSA
,,,,,,,,,6610320c713a6f7b0b1dd214,001,2024-06-30_07h33.26.378,empathy_intonation_perc,2024.1.4,Win32,59.88023952,,,,,,,,,,,,,,182,desaro,,,,,,189.5775,190.2276,1,0,0.1204,,0,182,182,181,1,pseudoword,0,REAL,FALSA
,,,,,,,,,6610320c713a6f7b0b1dd214,001,2024-06-30_07h33.26.378,empathy_intonation_perc,2024.1.4,Win32,59.88023952,,,,,,,,,,,,,,124,lobe,,,,,,190.2283,191.1592,1,0,0.4024,,0,183,183,123,1,pseudoword,0,REAL,FALSA
,,,,,,,,,6610320c713a6f7b0b1dd214,001,2024-06-30_07h33.26.378,empathy_intonation_perc,2024.1.4,Win32,59.88023952,,,,,,,,,,,,,,178,inichó,,,,,,191.1599,192.0918,1,0,0.3997,,0,184,184,177,1,pseudoword,0,REAL,FALSA
,,,,,,,,,6610320c713a6f7b0b1dd214,001,2024-06-30_07h33.26.378,empathy_intonation_perc,2024.1.4,Win32,59.88023952,,,,,,,,,,,,,,30,fiscal,,,,,,192.0929,192.9079,1,0,0.2822,,0,185,185,29,1,two_way_cognate,1,REAL,FALSA
,,,,,,,,,6610320c713a6f7b0b1dd214,001,2024-06-30_07h33.26.378,empathy_intonation_perc,2024.1.4,Win32,59.88023952,,,,,,,,,,,,,,42,rumor,,,,,,192.9091,193.4906,1,0,0.0528,,0,186,186,41,1,two_way_cognate,1,REAL,FALSA
,,,,,,,,,6610320c713a6f7b0b1dd214,001,2024-06-30_07h33.26.378,empathy_intonation_perc,2024.1.4,Win32,59.88023952,,,,,,,,,,,,,,57,regalo,,,,,,193.491,194.0568,1,0,0.0336,,0,187,187,56,1,non_cognate,1,REAL,FALSA
,,,,,,,,,6610320c713a6f7b0b1dd214,001,2024-06-30_07h33.26.378,empathy_intonation_perc,2024.1.4,Win32,59.88023952,,,,,,,,,,,,,,140,chorde,,,,,,194.0572,194.6395,1,0,0.0491,,0,188,188,139,1,pseudoword,0,REAL,FALSA
,,,,,,,,,6610320c713a6f7b0b1dd214,001,2024-06-30_07h33.26.378,empathy_intonation_perc,2024.1.4,Win32,59.88023952,,,,,,,,,,,,,,4,flora,,,,,,194.6399,195.6056,0,1,0.433,,0,189,189,3,1,three_way_cognate,1,REAL,FALSA
,,,,,,,,,6610320c713a6f7b0b1dd214,001,2024-06-30_07h33.26.378,empathy_intonation_perc,2024.1.4,Win32,59.88023952,,,,,,,,,,,,,,174,pabea,,,,,,195.6061,196.5383,0,1,0.4,,0,190,190,173,1,pseudoword,0,REAL,FALSA
,,,,,,,,,6610320c713a6f7b0b1dd214,001,2024-06-30_07h33.26.378,empathy_intonation_perc,2024.1.4,Win32,59.88023952,,,,,,,,,,,,,,170,diabo,,,,,,196.5388,197.1544,1,0,0.0824,,0,191,191,169,1,pseudoword,0,REAL,FALSA
