lextale_instructions.started,lextale_instructions.stopped,lextale_instructions_loop.thisRepN,lextale_instructions_loop.thisTrialN,lextale_instructions_loop.thisN,lextale_instructions_loop.thisIndex,lextale_instructions_loop.ran,instructions_text,continue_text,participant,session,date,expName,psychopyVersion,OS,frameRate,lextale_practice.started,lextale_practice.stopped,key_resp_lextale_practice.keys,key_resp_lextale_practice.corr,key_resp_lextale_practice.rt,key_resp_lextale_practice.duration,lextale_practice_feedback.started,lextale_practice_feedback.stopped,lextale_practice_trials.thisRepN,lextale_practice_trials.thisTrialN,lextale_practice_trials.thisN,lextale_practice_trials.thisIndex,lextale_practice_trials.ran,stim,word,correct_response,prac_button_real,prac_button_false,lextale_check.started,lextale_check.stopped,lextale_trial.started,lextale_trial.stopped,key_resp_lextale_trial.keys,key_resp_lextale_trial.corr,key_resp_lextale_trial.rt,key_resp_lextale_trial.duration,lextail_trials.thisRepN,lextail_trials.thisTrialN,lextail_trials.thisN,lextail_trials.thisIndex,lextail_trials.ran,type,correct_reponse,button_real,button_false
0.0021,2.1235,0,0,0,0,1,"Este es un test de vocabulario en español. 
  
  A continuación vas a ver 90 secuencias de letras que parecen 'españolas'.
  
  Solo algunas de ellas son palabras de verdad.",(presiona la barra espaciadora para continuar),663193f4e88fc3a7917655de,001,2024-06-30_08h15.50.153,empathy_intonation_perc,2024.1.4,Win32,60.24096386,,,,,,,,,,,,,,,,,,,,,,,,,,,,,,,,,,,
2.1246,2.6238,0,1,1,1,1,"Por favor, señala las palabras que tú conoces (aquellas que estás convencido que son palabras españolas, incluso aunque no seas capaz de dar el significado preciso).",(presiona la barra espaciadora para continuar),663193f4e88fc3a7917655de,001,2024-06-30_08h15.50.153,empathy_intonation_perc,2024.1.4,Win32,60.24096386,,,,,,,,,,,,,,,,,,,,,,,,,,,,,,,,,,,
2.6252,3.0083,0,2,2,2,1,Pero cuidado: los errores se penalizan. Por eso no tiene sentido tratar de incrementar tu puntuación marcando como reales palabras que nunca has visto.,(presiona la barra espaciadora para continuar),663193f4e88fc3a7917655de,001,2024-06-30_08h15.50.153,empathy_intonation_perc,2024.1.4,Win32,60.24096386,,,,,,,,,,,,,,,,,,,,,,,,,,,,,,,,,,,
3.0093,3.2745,0,3,3,3,1,"Presiona la tecla 1 si piensas que es una palabra real y la tecla 
  0 si piensas que es una palabra falsa. 
  
  Vamos a practicar un poco...",(presiona la barra espaciadora para continuar),663193f4e88fc3a7917655de,001,2024-06-30_08h15.50.153,empathy_intonation_perc,2024.1.4,Win32,60.24096386,,,,,,,,,,,,,,,,,,,,,,,,,,,,,,,,,,,
,,,,,,,,,663193f4e88fc3a7917655de,001,2024-06-30_08h15.50.153,empathy_intonation_perc,2024.1.4,Win32,60.24096386,3.2809,32.9151,1,0,29.1038,,32.9156,33.9111,0,0,0,0,1,0,depiste,0,REAL,FALSA,,,,,,,,,,,,,,,,,
,,,,,,,,,663193f4e88fc3a7917655de,001,2024-06-30_08h15.50.153,empathy_intonation_perc,2024.1.4,Win32,60.24096386,33.9127,38.6158,1,1,4.1633,,38.6159,39.6171,0,1,1,1,1,0,sí,1,REAL,FALSA,,,,,,,,,,,,,,,,,
,,,,,,,,,663193f4e88fc3a7917655de,001,2024-06-30_08h15.50.153,empathy_intonation_perc,2024.1.4,Win32,60.24096386,39.618,56.5865,0,1,16.4273,,56.5866,57.5876,0,2,2,2,1,0,coné,0,REAL,FALSA,,,,,,,,,,,,,,,,,
,,,,,,,,,663193f4e88fc3a7917655de,001,2024-06-30_08h15.50.153,empathy_intonation_perc,2024.1.4,Win32,60.24096386,57.5986,71.4542,1,0,13.3287,,71.4543,72.4552,0,3,3,3,1,0,calpar,0,REAL,FALSA,,,,,,,,,,,,,,,,,
,,,,,,,,,663193f4e88fc3a7917655de,001,2024-06-30_08h15.50.153,empathy_intonation_perc,2024.1.4,Win32,60.24096386,72.4674,91.5939,0,1,18.5969,,91.5939,92.595,0,4,4,4,1,0,joten,0,REAL,FALSA,,,,,,,,,,,,,,,,,
,,,,,,,,,663193f4e88fc3a7917655de,001,2024-06-30_08h15.50.153,empathy_intonation_perc,2024.1.4,Win32,60.24096386,92.6079,113.3526,1,1,20.2157,,113.3528,114.3536,0,5,5,5,1,0,sacapuntas,1,REAL,FALSA,,,,,,,,,,,,,,,,,
,,,,,,,,,663193f4e88fc3a7917655de,001,2024-06-30_08h15.50.153,empathy_intonation_perc,2024.1.4,Win32,60.24096386,114.3657,130.3389,0,1,15.4457,,130.3391,131.3401,0,6,6,6,1,0,priba,0,REAL,FALSA,,,,,,,,,,,,,,,,,
,,,,,,,,,663193f4e88fc3a7917655de,001,2024-06-30_08h15.50.153,empathy_intonation_perc,2024.1.4,Win32,60.24096386,131.353,145.9585,0,1,14.083,,145.9585,146.9582,0,7,7,7,1,0,pelasula,0,REAL,FALSA,,,,,,,,,,,,,,,,,
,,,,,,,,,663193f4e88fc3a7917655de,001,2024-06-30_08h15.50.153,empathy_intonation_perc,2024.1.4,Win32,60.24096386,146.9701,149.578,1,1,2.0799,,149.5782,150.5794,0,8,8,8,1,0,bien,1,REAL,FALSA,,,,,,,,,,,,,,,,,
,,,,,,,,,663193f4e88fc3a7917655de,001,2024-06-30_08h15.50.153,empathy_intonation_perc,2024.1.4,Win32,60.24096386,150.5804,152.7192,1,1,1.604,,152.7194,153.7163,0,9,9,9,1,0,casa,1,REAL,FALSA,,,,,,,,,,,,,,,,,
,,,,,,,,,663193f4e88fc3a7917655de,001,2024-06-30_08h15.50.153,empathy_intonation_perc,2024.1.4,Win32,60.24096386,153.7275,169.7514,1,0,15.4977,,169.7514,170.7525,0,10,10,10,1,0,lejo,0,REAL,FALSA,,,,,,,,,,,,,,,,,
,,,,,,,,,663193f4e88fc3a7917655de,001,2024-06-30_08h15.50.153,empathy_intonation_perc,2024.1.4,Win32,60.24096386,170.7648,193.212,1,0,21.9171,,193.2121,194.2131,0,11,11,11,1,0,pretantas,0,REAL,FALSA,,,,,,,,,,,,,,,,,
,,,,,,,,,663193f4e88fc3a7917655de,001,2024-06-30_08h15.50.153,empathy_intonation_perc,2024.1.4,Win32,60.24096386,,,,,,,,,,,,,,,,,,,194.2142,206.2285,,,,,,,,,,,,,,,
,,,,,,,,,663193f4e88fc3a7917655de,001,2024-06-30_08h15.50.153,empathy_intonation_perc,2024.1.4,Win32,60.24096386,,,,,,,,,,,,,,31,civil,,,,,,206.2514,210.5334,1,0,3.7464,,0,0,0,30,1,two_way_cognate,1,REAL,FALSA
,,,,,,,,,663193f4e88fc3a7917655de,001,2024-06-30_08h15.50.153,empathy_intonation_perc,2024.1.4,Win32,60.24096386,,,,,,,,,,,,,,94,forro,,,,,,210.5449,222.0792,1,0,11.0066,,0,1,1,93,1,non_cognate,1,REAL,FALSA
,,,,,,,,,663193f4e88fc3a7917655de,001,2024-06-30_08h15.50.153,empathy_intonation_perc,2024.1.4,Win32,60.24096386,,,,,,,,,,,,,,173,mibro,,,,,,222.0915,239.8497,1,0,17.2298,,0,2,2,172,1,pseudoword,0,REAL,FALSA
,,,,,,,,,663193f4e88fc3a7917655de,001,2024-06-30_08h15.50.153,empathy_intonation_perc,2024.1.4,Win32,60.24096386,,,,,,,,,,,,,,61,aduana,,,,,,239.8621,256.8531,1,0,16.4636,,0,3,3,60,1,non_cognate,1,REAL,FALSA
,,,,,,,,,663193f4e88fc3a7917655de,001,2024-06-30_08h15.50.153,empathy_intonation_perc,2024.1.4,Win32,60.24096386,,,,,,,,,,,,,,95,listo,,,,,,256.8657,267.3482,1,0,9.9579,,0,4,4,94,1,non_cognate,1,REAL,FALSA
,,,,,,,,,663193f4e88fc3a7917655de,001,2024-06-30_08h15.50.153,empathy_intonation_perc,2024.1.4,Win32,60.24096386,,,,,,,,,,,,,,121,barbs,,,,,,267.3605,280.8811,1,0,12.994,,0,5,5,120,1,pseudoword,0,REAL,FALSA
,,,,,,,,,663193f4e88fc3a7917655de,001,2024-06-30_08h15.50.153,empathy_intonation_perc,2024.1.4,Win32,60.24096386,,,,,,,,,,,,,,51,listo,,,,,,280.8941,289.6742,1,0,8.2567,,0,6,6,50,1,non_cognate,1,REAL,FALSA
,,,,,,,,,663193f4e88fc3a7917655de,001,2024-06-30_08h15.50.153,empathy_intonation_perc,2024.1.4,Win32,60.24096386,,,,,,,,,,,,,,143,hurcos,,,,,,289.6881,305.1092,0,1,14.8952,,0,7,7,142,1,pseudoword,0,REAL,FALSA
,,,,,,,,,663193f4e88fc3a7917655de,001,2024-06-30_08h15.50.153,empathy_intonation_perc,2024.1.4,Win32,60.24096386,,,,,,,,,,,,,,32,animal,,,,,,305.1215,307.9622,1,0,2.3157,,0,8,8,31,1,two_way_cognate,1,REAL,FALSA
,,,,,,,,,663193f4e88fc3a7917655de,001,2024-06-30_08h15.50.153,empathy_intonation_perc,2024.1.4,Win32,60.24096386,,,,,,,,,,,,,,60,siglo,,,,,,307.963,316.6226,1,0,8.1206,,0,9,9,59,1,non_cognate,1,REAL,FALSA
,,,,,,,,,663193f4e88fc3a7917655de,001,2024-06-30_08h15.50.153,empathy_intonation_perc,2024.1.4,Win32,60.24096386,,,,,,,,,,,,,,178,inichó,,,,,,316.6349,347.4584,0,1,30.2978,,0,10,10,177,1,pseudoword,0,REAL,FALSA
,,,,,,,,,663193f4e88fc3a7917655de,001,2024-06-30_08h15.50.153,empathy_intonation_perc,2024.1.4,Win32,60.24096386,,,,,,,,,,,,,,147,alla,,,,,,347.471,355.217,1,0,7.2209,,0,11,11,146,1,pseudoword,0,REAL,FALSA
,,,,,,,,,663193f4e88fc3a7917655de,001,2024-06-30_08h15.50.153,empathy_intonation_perc,2024.1.4,Win32,60.24096386,,,,,,,,,,,,,,76,chocar,,,,,,355.2297,368.9997,1,0,13.2457,,0,12,12,75,1,non_cognate,1,REAL,FALSA
,,,,,,,,,663193f4e88fc3a7917655de,001,2024-06-30_08h15.50.153,empathy_intonation_perc,2024.1.4,Win32,60.24096386,,,,,,,,,,,,,,38,halo,,,,,,369.0117,384.7847,1,0,15.2474,,0,13,13,37,1,two_way_cognate,1,REAL,FALSA
,,,,,,,,,663193f4e88fc3a7917655de,001,2024-06-30_08h15.50.153,empathy_intonation_perc,2024.1.4,Win32,60.24096386,,,,,,,,,,,,,,131,fuar,,,,,,384.7963,399.8691,1,0,14.5446,,0,14,14,130,1,pseudoword,0,REAL,FALSA
,,,,,,,,,663193f4e88fc3a7917655de,001,2024-06-30_08h15.50.153,empathy_intonation_perc,2024.1.4,Win32,60.24096386,,,,,,,,,,,,,,168,cobén,,,,,,399.8829,410.4317,0,1,10.0223,,0,15,15,167,1,pseudoword,0,REAL,FALSA
,,,,,,,,,663193f4e88fc3a7917655de,001,2024-06-30_08h15.50.153,empathy_intonation_perc,2024.1.4,Win32,60.24096386,,,,,,,,,,,,,,161,civas,,,,,,410.4451,421.9117,1,0,10.94,,0,16,16,160,1,pseudoword,0,REAL,FALSA
,,,,,,,,,663193f4e88fc3a7917655de,001,2024-06-30_08h15.50.153,empathy_intonation_perc,2024.1.4,Win32,60.24096386,,,,,,,,,,,,,,154,harvé,,,,,,421.9258,435.4104,1,0,12.9594,,0,17,17,153,1,pseudoword,0,REAL,FALSA
,,,,,,,,,663193f4e88fc3a7917655de,001,2024-06-30_08h15.50.153,empathy_intonation_perc,2024.1.4,Win32,60.24096386,,,,,,,,,,,,,,30,fiscal,,,,,,435.4228,446.4069,1,0,10.4563,,0,18,18,29,1,two_way_cognate,1,REAL,FALSA
,,,,,,,,,663193f4e88fc3a7917655de,001,2024-06-30_08h15.50.153,empathy_intonation_perc,2024.1.4,Win32,60.24096386,,,,,,,,,,,,,,116,grigir,,,,,,446.4194,460.056,0,1,13.1103,,0,19,19,115,1,pseudoword,0,REAL,FALSA
,,,,,,,,,663193f4e88fc3a7917655de,001,2024-06-30_08h15.50.153,empathy_intonation_perc,2024.1.4,Win32,60.24096386,,,,,,,,,,,,,,163,olzan,,,,,,460.0683,472.6537,0,1,12.0606,,0,20,20,162,1,pseudoword,0,REAL,FALSA
,,,,,,,,,663193f4e88fc3a7917655de,001,2024-06-30_08h15.50.153,empathy_intonation_perc,2024.1.4,Win32,60.24096386,,,,,,,,,,,,,,111,monue,,,,,,472.6666,483.9505,1,0,10.7563,,0,21,21,110,1,pseudoword,0,REAL,FALSA
,,,,,,,,,663193f4e88fc3a7917655de,001,2024-06-30_08h15.50.153,empathy_intonation_perc,2024.1.4,Win32,60.24096386,,,,,,,,,,,,,,12,dogma,,,,,,483.9625,494.5961,1,0,10.1078,,0,22,22,11,1,three_way_cognate,1,REAL,FALSA
,,,,,,,,,663193f4e88fc3a7917655de,001,2024-06-30_08h15.50.153,empathy_intonation_perc,2024.1.4,Win32,60.24096386,,,,,,,,,,,,,,19,mafia,,,,,,494.6083,504.2239,1,0,9.0901,,0,23,23,18,1,three_way_cognate,1,REAL,FALSA
,,,,,,,,,663193f4e88fc3a7917655de,001,2024-06-30_08h15.50.153,empathy_intonation_perc,2024.1.4,Win32,60.24096386,,,,,,,,,,,,,,62,pegar,,,,,,504.2362,513.9187,1,0,9.1571,,0,24,24,61,1,non_cognate,1,REAL,FALSA
,,,,,,,,,663193f4e88fc3a7917655de,001,2024-06-30_08h15.50.153,empathy_intonation_perc,2024.1.4,Win32,60.24096386,,,,,,,,,,,,,,117,morrá,,,,,,513.9306,529.6703,1,0,15.2135,,0,25,25,116,1,pseudoword,0,REAL,FALSA
,,,,,,,,,663193f4e88fc3a7917655de,001,2024-06-30_08h15.50.153,empathy_intonation_perc,2024.1.4,Win32,60.24096386,,,,,,,,,,,,,,90,venado,,,,,,529.6824,539.3312,1,0,9.1235,,0,26,26,89,1,non_cognate,1,REAL,FALSA
,,,,,,,,,663193f4e88fc3a7917655de,001,2024-06-30_08h15.50.153,empathy_intonation_perc,2024.1.4,Win32,60.24096386,,,,,,,,,,,,,,69,tiza,,,,,,539.3434,552.2129,1,0,12.3439,,0,27,27,68,1,non_cognate,1,REAL,FALSA
,,,,,,,,,663193f4e88fc3a7917655de,001,2024-06-30_08h15.50.153,empathy_intonation_perc,2024.1.4,Win32,60.24096386,,,,,,,,,,,,,,45,total,,,,,,552.2247,567.0138,1,0,14.2612,,0,28,28,44,1,two_way_cognate,1,REAL,FALSA
,,,,,,,,,663193f4e88fc3a7917655de,001,2024-06-30_08h15.50.153,empathy_intonation_perc,2024.1.4,Win32,60.24096386,,,,,,,,,,,,,,98,martir,,,,,,567.026,578.2098,1,0,10.6582,,0,29,29,97,1,pseudoword,0,REAL,FALSA
,,,,,,,,,663193f4e88fc3a7917655de,001,2024-06-30_08h15.50.153,empathy_intonation_perc,2024.1.4,Win32,60.24096386,,,,,,,,,,,,,,56,pico,,,,,,578.2213,587.8713,1,0,9.1228,,0,30,30,55,1,non_cognate,1,REAL,FALSA
,,,,,,,,,663193f4e88fc3a7917655de,001,2024-06-30_08h15.50.153,empathy_intonation_perc,2024.1.4,Win32,60.24096386,,,,,,,,,,,,,,72,rostro,,,,,,587.8832,598.0996,1,0,9.6916,,0,31,31,71,1,non_cognate,1,REAL,FALSA
,,,,,,,,,663193f4e88fc3a7917655de,001,2024-06-30_08h15.50.153,empathy_intonation_perc,2024.1.4,Win32,60.24096386,,,,,,,,,,,,,,179,suelet,,,,,,598.1129,616.9883,0,1,18.3489,,0,32,32,178,1,pseudoword,0,REAL,FALSA
,,,,,,,,,663193f4e88fc3a7917655de,001,2024-06-30_08h15.50.153,empathy_intonation_perc,2024.1.4,Win32,60.24096386,,,,,,,,,,,,,,20,trauma,,,,,,617.0015,635.7271,1,0,18.1991,,0,33,33,19,1,three_way_cognate,1,REAL,FALSA
,,,,,,,,,663193f4e88fc3a7917655de,001,2024-06-30_08h15.50.153,empathy_intonation_perc,2024.1.4,Win32,60.24096386,,,,,,,,,,,,,,113,nasce,,,,,,635.739,648.0423,1,0,11.7772,,0,34,34,112,1,pseudoword,0,REAL,FALSA
,,,,,,,,,663193f4e88fc3a7917655de,001,2024-06-30_08h15.50.153,empathy_intonation_perc,2024.1.4,Win32,60.24096386,,,,,,,,,,,,,,125,ceme,,,,,,648.0544,661.9908,0,1,13.4117,,0,35,35,124,1,pseudoword,0,REAL,FALSA
,,,,,,,,,663193f4e88fc3a7917655de,001,2024-06-30_08h15.50.153,empathy_intonation_perc,2024.1.4,Win32,60.24096386,,,,,,,,,,,,,,184,huenos,,,,,,662.0027,674.5218,1,0,11.9938,,0,36,36,183,1,pseudoword,0,REAL,FALSA
,,,,,,,,,663193f4e88fc3a7917655de,001,2024-06-30_08h15.50.153,empathy_intonation_perc,2024.1.4,Win32,60.24096386,,,,,,,,,,,,,,41,pasta,,,,,,674.5335,684.6173,1,0,9.5572,,0,37,37,40,1,two_way_cognate,1,REAL,FALSA
,,,,,,,,,663193f4e88fc3a7917655de,001,2024-06-30_08h15.50.153,empathy_intonation_perc,2024.1.4,Win32,60.24096386,,,,,,,,,,,,,,139,sasos,,,,,,684.6296,698.1663,0,1,13.0117,,0,38,38,138,1,pseudoword,0,REAL,FALSA
,,,,,,,,,663193f4e88fc3a7917655de,001,2024-06-30_08h15.50.153,empathy_intonation_perc,2024.1.4,Win32,60.24096386,,,,,,,,,,,,,,52,blando,,,,,,698.1781,707.2101,1,0,8.5059,,0,39,39,51,1,non_cognate,1,REAL,FALSA
,,,,,,,,,663193f4e88fc3a7917655de,001,2024-06-30_08h15.50.153,empathy_intonation_perc,2024.1.4,Win32,60.24096386,,,,,,,,,,,,,,85,enorme,,,,,,707.2224,718.7398,1,0,10.9912,,0,40,40,84,1,non_cognate,1,REAL,FALSA
,,,,,,,,,663193f4e88fc3a7917655de,001,2024-06-30_08h15.50.153,empathy_intonation_perc,2024.1.4,Win32,60.24096386,,,,,,,,,,,,,,165,chote,,,,,,718.7518,728.7019,1,0,9.4238,,0,41,41,164,1,pseudoword,0,REAL,FALSA
,,,,,,,,,663193f4e88fc3a7917655de,001,2024-06-30_08h15.50.153,empathy_intonation_perc,2024.1.4,Win32,60.24096386,,,,,,,,,,,,,,5,extra,,,,,,728.7139,738.6133,1,0,9.3744,,0,42,42,4,1,three_way_cognate,1,REAL,FALSA
,,,,,,,,,663193f4e88fc3a7917655de,001,2024-06-30_08h15.50.153,empathy_intonation_perc,2024.1.4,Win32,60.24096386,,,,,,,,,,,,,,187,nomata,,,,,,738.6256,749.0252,0,1,9.8752,,0,43,43,186,1,pseudoword,0,REAL,FALSA
,,,,,,,,,663193f4e88fc3a7917655de,001,2024-06-30_08h15.50.153,empathy_intonation_perc,2024.1.4,Win32,60.24096386,,,,,,,,,,,,,,132,nocó,,,,,,749.038,762.4746,1,0,12.9127,,0,44,44,131,1,pseudoword,0,REAL,FALSA
,,,,,,,,,663193f4e88fc3a7917655de,001,2024-06-30_08h15.50.153,empathy_intonation_perc,2024.1.4,Win32,60.24096386,,,,,,,,,,,,,,108,jauda,,,,,,762.4869,773.1031,0,1,10.0914,,0,45,45,107,1,pseudoword,0,REAL,FALSA
,,,,,,,,,663193f4e88fc3a7917655de,001,2024-06-30_08h15.50.153,empathy_intonation_perc,2024.1.4,Win32,60.24096386,,,,,,,,,,,,,,171,gotro,,,,,,773.1158,784.0173,1,0,10.3789,,0,46,46,170,1,pseudoword,0,REAL,FALSA
,,,,,,,,,663193f4e88fc3a7917655de,001,2024-06-30_08h15.50.153,empathy_intonation_perc,2024.1.4,Win32,60.24096386,,,,,,,,,,,,,,21,hotel,,,,,,784.03,787.7078,1,0,3.1558,,0,47,47,20,1,three_way_cognate,1,REAL,FALSA
,,,,,,,,,663193f4e88fc3a7917655de,001,2024-06-30_08h15.50.153,empathy_intonation_perc,2024.1.4,Win32,60.24096386,,,,,,,,,,,,,,186,rizate,,,,,,787.7085,798.4162,1,0,10.1748,,0,48,48,185,1,pseudoword,0,REAL,FALSA
,,,,,,,,,663193f4e88fc3a7917655de,001,2024-06-30_08h15.50.153,empathy_intonation_perc,2024.1.4,Win32,60.24096386,,,,,,,,,,,,,,175,tradía,,,,,,798.4287,808.0772,1,0,9.1231,,0,49,49,174,1,pseudoword,0,REAL,FALSA
,,,,,,,,,663193f4e88fc3a7917655de,001,2024-06-30_08h15.50.153,empathy_intonation_perc,2024.1.4,Win32,60.24096386,,,,,,,,,,,,,,97,nocita,,,,,,808.089,822.9944,0,1,14.3781,,0,50,50,96,1,pseudoword,0,REAL,FALSA
,,,,,,,,,663193f4e88fc3a7917655de,001,2024-06-30_08h15.50.153,empathy_intonation_perc,2024.1.4,Win32,60.24096386,,,,,,,,,,,,,,81,sacar,,,,,,823.0066,836.0763,1,0,12.5447,,0,51,51,80,1,non_cognate,1,REAL,FALSA
,,,,,,,,,663193f4e88fc3a7917655de,001,2024-06-30_08h15.50.153,empathy_intonation_perc,2024.1.4,Win32,60.24096386,,,,,,,,,,,,,,192,próces,,,,,,836.0883,846.5553,1,0,9.9398,,0,52,52,191,1,pseudoword,0,REAL,FALSA
,,,,,,,,,663193f4e88fc3a7917655de,001,2024-06-30_08h15.50.153,empathy_intonation_perc,2024.1.4,Win32,60.24096386,,,,,,,,,,,,,,39,casual,,,,,,846.5678,857.034,0,1,9.9411,,0,53,53,38,1,two_way_cognate,1,REAL,FALSA
,,,,,,,,,663193f4e88fc3a7917655de,001,2024-06-30_08h15.50.153,empathy_intonation_perc,2024.1.4,Win32,60.24096386,,,,,,,,,,,,,,63,hilo,,,,,,857.0471,866.3619,1,0,8.7877,,0,54,54,62,1,non_cognate,1,REAL,FALSA
,,,,,,,,,663193f4e88fc3a7917655de,001,2024-06-30_08h15.50.153,empathy_intonation_perc,2024.1.4,Win32,60.24096386,,,,,,,,,,,,,,129,vinzó,,,,,,866.3741,876.3565,0,1,9.455,,0,55,55,128,1,pseudoword,0,REAL,FALSA
,,,,,,,,,663193f4e88fc3a7917655de,001,2024-06-30_08h15.50.153,empathy_intonation_perc,2024.1.4,Win32,60.24096386,,,,,,,,,,,,,,104,estulo,,,,,,876.3692,891.7412,1,0,14.8469,,0,56,56,103,1,pseudoword,0,REAL,FALSA
,,,,,,,,,663193f4e88fc3a7917655de,001,2024-06-30_08h15.50.153,empathy_intonation_perc,2024.1.4,Win32,60.24096386,,,,,,,,,,,,,,177,entodo,,,,,,891.7535,908.7112,1,0,16.4318,,0,57,57,176,1,pseudoword,0,REAL,FALSA
,,,,,,,,,663193f4e88fc3a7917655de,001,2024-06-30_08h15.50.153,empathy_intonation_perc,2024.1.4,Win32,60.24096386,,,,,,,,,,,,,,46,mortal,,,,,,908.7236,925.0301,1,0,15.7814,,0,58,58,45,1,two_way_cognate,1,REAL,FALSA
,,,,,,,,,663193f4e88fc3a7917655de,001,2024-06-30_08h15.50.153,empathy_intonation_perc,2024.1.4,Win32,60.24096386,,,,,,,,,,,,,,16,chat,,,,,,925.0434,942.9177,0,1,17.3499,,0,59,59,15,1,three_way_cognate,1,REAL,FALSA
,,,,,,,,,663193f4e88fc3a7917655de,001,2024-06-30_08h15.50.153,empathy_intonation_perc,2024.1.4,Win32,60.24096386,,,,,,,,,,,,,,110,densó,,,,,,942.9305,951.6441,1,0,8.1891,,0,60,60,109,1,pseudoword,0,REAL,FALSA
,,,,,,,,,663193f4e88fc3a7917655de,001,2024-06-30_08h15.50.153,empathy_intonation_perc,2024.1.4,Win32,60.24096386,,,,,,,,,,,,,,149,emén,,,,,,951.6563,963.6084,1,0,11.4246,,0,61,61,148,1,pseudoword,0,REAL,FALSA
,,,,,,,,,663193f4e88fc3a7917655de,001,2024-06-30_08h15.50.153,empathy_intonation_perc,2024.1.4,Win32,60.24096386,,,,,,,,,,,,,,91,equipo,,,,,,963.6208,977.0908,1,0,12.9448,,0,62,62,90,1,non_cognate,1,REAL,FALSA
,,,,,,,,,663193f4e88fc3a7917655de,001,2024-06-30_08h15.50.153,empathy_intonation_perc,2024.1.4,Win32,60.24096386,,,,,,,,,,,,,,172,dogue,,,,,,977.1027,985.9353,0,1,8.3099,,0,63,63,171,1,pseudoword,0,REAL,FALSA
,,,,,,,,,663193f4e88fc3a7917655de,001,2024-06-30_08h15.50.153,empathy_intonation_perc,2024.1.4,Win32,60.24096386,,,,,,,,,,,,,,183,edioso,,,,,,985.9472,998.8322,0,1,12.3608,,0,64,64,182,1,pseudoword,0,REAL,FALSA
,,,,,,,,,663193f4e88fc3a7917655de,001,2024-06-30_08h15.50.153,empathy_intonation_perc,2024.1.4,Win32,60.24096386,,,,,,,,,,,,,,106,diebro,,,,,,998.8443,1010.4961,0,1,11.1241,,0,65,65,105,1,pseudoword,0,REAL,FALSA
,,,,,,,,,663193f4e88fc3a7917655de,001,2024-06-30_08h15.50.153,empathy_intonation_perc,2024.1.4,Win32,60.24096386,,,,,,,,,,,,,,17,clan,,,,,,1010.5082,1019.957,1,0,8.9234,,0,66,66,16,1,three_way_cognate,1,REAL,FALSA
,,,,,,,,,663193f4e88fc3a7917655de,001,2024-06-30_08h15.50.153,empathy_intonation_perc,2024.1.4,Win32,60.24096386,,,,,,,,,,,,,,138,tator,,,,,,1019.9691,1034.057,0,1,13.5624,,0,67,67,137,1,pseudoword,0,REAL,FALSA
,,,,,,,,,663193f4e88fc3a7917655de,001,2024-06-30_08h15.50.153,empathy_intonation_perc,2024.1.4,Win32,60.24096386,,,,,,,,,,,,,,86,cuenco,,,,,,1034.0691,1050.6429,1,0,16.0478,,0,68,68,85,1,non_cognate,1,REAL,FALSA
,,,,,,,,,663193f4e88fc3a7917655de,001,2024-06-30_08h15.50.153,empathy_intonation_perc,2024.1.4,Win32,60.24096386,,,,,,,,,,,,,,176,gripar,,,,,,1050.6555,1059.5696,0,1,8.3893,,0,69,69,175,1,pseudoword,0,REAL,FALSA
,,,,,,,,,663193f4e88fc3a7917655de,001,2024-06-30_08h15.50.153,empathy_intonation_perc,2024.1.4,Win32,60.24096386,,,,,,,,,,,,,,42,rumor,,,,,,1059.5816,1068.1966,1,0,8.0875,,0,70,70,41,1,two_way_cognate,1,REAL,FALSA
,,,,,,,,,663193f4e88fc3a7917655de,001,2024-06-30_08h15.50.153,empathy_intonation_perc,2024.1.4,Win32,60.24096386,,,,,,,,,,,,,,102,coyo,,,,,,1068.2088,1078.2083,0,1,9.474,,0,71,71,101,1,pseudoword,0,REAL,FALSA
,,,,,,,,,663193f4e88fc3a7917655de,001,2024-06-30_08h15.50.153,empathy_intonation_perc,2024.1.4,Win32,60.24096386,,,,,,,,,,,,,,182,desaro,,,,,,1078.2208,1090.1716,0,1,11.4268,,0,72,72,181,1,pseudoword,0,REAL,FALSA
,,,,,,,,,663193f4e88fc3a7917655de,001,2024-06-30_08h15.50.153,empathy_intonation_perc,2024.1.4,Win32,60.24096386,,,,,,,,,,,,,,119,esís,,,,,,1090.1853,1099.433,0,1,8.7219,,0,73,73,118,1,pseudoword,0,REAL,FALSA
,,,,,,,,,663193f4e88fc3a7917655de,001,2024-06-30_08h15.50.153,empathy_intonation_perc,2024.1.4,Win32,60.24096386,,,,,,,,,,,,,,73,llevar,,,,,,1099.4454,1109.9282,1,0,9.9579,,0,74,74,72,1,non_cognate,1,REAL,FALSA
,,,,,,,,,663193f4e88fc3a7917655de,001,2024-06-30_08h15.50.153,empathy_intonation_perc,2024.1.4,Win32,60.24096386,,,,,,,,,,,,,,174,pabea,,,,,,1109.9402,1120.7749,0,1,10.3113,,0,75,75,173,1,pseudoword,0,REAL,FALSA
,,,,,,,,,663193f4e88fc3a7917655de,001,2024-06-30_08h15.50.153,empathy_intonation_perc,2024.1.4,Win32,60.24096386,,,,,,,,,,,,,,49,teñir,,,,,,1120.7874,1131.1032,1,0,9.7893,,0,76,76,48,1,non_cognate,1,REAL,FALSA
,,,,,,,,,663193f4e88fc3a7917655de,001,2024-06-30_08h15.50.153,empathy_intonation_perc,2024.1.4,Win32,60.24096386,,,,,,,,,,,,,,48,pelvis,,,,,,1131.1155,1139.8466,1,0,8.2066,,0,77,77,47,1,two_way_cognate,1,REAL,FALSA
,,,,,,,,,663193f4e88fc3a7917655de,001,2024-06-30_08h15.50.153,empathy_intonation_perc,2024.1.4,Win32,60.24096386,,,,,,,,,,,,,,135,panté,,,,,,1139.8591,1161.3717,1,0,20.9881,,0,78,78,134,1,pseudoword,0,REAL,FALSA
,,,,,,,,,663193f4e88fc3a7917655de,001,2024-06-30_08h15.50.153,empathy_intonation_perc,2024.1.4,Win32,60.24096386,,,,,,,,,,,,,,185,aljizo,,,,,,1161.3841,1199.0488,1,0,37.1394,,0,79,79,184,1,pseudoword,0,REAL,FALSA
,,,,,,,,,663193f4e88fc3a7917655de,001,2024-06-30_08h15.50.153,empathy_intonation_perc,2024.1.4,Win32,60.24096386,,,,,,,,,,,,,,24,retina,,,,,,1199.0608,1222.8432,1,0,23.2567,,0,80,80,23,1,three_way_cognate,1,REAL,FALSA
,,,,,,,,,663193f4e88fc3a7917655de,001,2024-06-30_08h15.50.153,empathy_intonation_perc,2024.1.4,Win32,60.24096386,,,,,,,,,,,,,,151,prías,,,,,,1222.8554,1245.2358,1,0,21.8517,,0,81,81,150,1,pseudoword,0,REAL,FALSA
,,,,,,,,,663193f4e88fc3a7917655de,001,2024-06-30_08h15.50.153,empathy_intonation_perc,2024.1.4,Win32,60.24096386,,,,,,,,,,,,,,164,tecia,,,,,,1245.2479,1254.2797,1,0,8.506,,0,82,82,163,1,pseudoword,0,REAL,FALSA
,,,,,,,,,663193f4e88fc3a7917655de,001,2024-06-30_08h15.50.153,empathy_intonation_perc,2024.1.4,Win32,60.24096386,,,,,,,,,,,,,,50,sierra,,,,,,1254.2921,1267.4113,1,0,12.5944,,0,83,83,49,1,non_cognate,1,REAL,FALSA
,,,,,,,,,663193f4e88fc3a7917655de,001,2024-06-30_08h15.50.153,empathy_intonation_perc,2024.1.4,Win32,60.24096386,,,,,,,,,,,,,,157,seled,,,,,,1267.4237,1281.0271,1,0,13.0788,,0,84,84,156,1,pseudoword,0,REAL,FALSA
,,,,,,,,,663193f4e88fc3a7917655de,001,2024-06-30_08h15.50.153,empathy_intonation_perc,2024.1.4,Win32,60.24096386,,,,,,,,,,,,,,166,anfia,,,,,,1281.0386,1304.872,0,1,23.3049,,0,85,85,165,1,pseudoword,0,REAL,FALSA
,,,,,,,,,663193f4e88fc3a7917655de,001,2024-06-30_08h15.50.153,empathy_intonation_perc,2024.1.4,Win32,60.24096386,,,,,,,,,,,,,,22,mango,,,,,,1304.8841,1316.5188,1,0,11.1091,,0,86,86,21,1,three_way_cognate,1,REAL,FALSA
,,,,,,,,,663193f4e88fc3a7917655de,001,2024-06-30_08h15.50.153,empathy_intonation_perc,2024.1.4,Win32,60.24096386,,,,,,,,,,,,,,103,vueras,,,,,,1316.5309,1331.7866,1,0,14.7316,,0,87,87,102,1,pseudoword,0,REAL,FALSA
,,,,,,,,,663193f4e88fc3a7917655de,001,2024-06-30_08h15.50.153,empathy_intonation_perc,2024.1.4,Win32,60.24096386,,,,,,,,,,,,,,23,plural,,,,,,1331.8,1344.5343,1,0,12.2099,,0,88,88,22,1,three_way_cognate,1,REAL,FALSA
,,,,,,,,,663193f4e88fc3a7917655de,001,2024-06-30_08h15.50.153,empathy_intonation_perc,2024.1.4,Win32,60.24096386,,,,,,,,,,,,,,10,drama,,,,,,1344.547,1359.4849,1,0,14.4112,,0,89,89,9,1,three_way_cognate,1,REAL,FALSA
,,,,,,,,,663193f4e88fc3a7917655de,001,2024-06-30_08h15.50.153,empathy_intonation_perc,2024.1.4,Win32,60.24096386,,,,,,,,,,,,,,6,horror,,,,,,1359.4976,1371.8165,1,0,11.79,,0,90,90,5,1,three_way_cognate,1,REAL,FALSA
,,,,,,,,,663193f4e88fc3a7917655de,001,2024-06-30_08h15.50.153,empathy_intonation_perc,2024.1.4,Win32,60.24096386,,,,,,,,,,,,,,100,épinas,,,,,,1371.8298,1384.1137,1,0,11.7581,,0,91,91,99,1,pseudoword,0,REAL,FALSA
,,,,,,,,,663193f4e88fc3a7917655de,001,2024-06-30_08h15.50.153,empathy_intonation_perc,2024.1.4,Win32,60.24096386,,,,,,,,,,,,,,114,dibrea,,,,,,1384.1261,1401.0503,1,0,16.3968,,0,92,92,113,1,pseudoword,0,REAL,FALSA
,,,,,,,,,663193f4e88fc3a7917655de,001,2024-06-30_08h15.50.153,empathy_intonation_perc,2024.1.4,Win32,60.24096386,,,,,,,,,,,,,,37,torso,,,,,,1401.0637,1411.9128,1,0,10.3245,,0,93,93,36,1,two_way_cognate,1,REAL,FALSA
,,,,,,,,,663193f4e88fc3a7917655de,001,2024-06-30_08h15.50.153,empathy_intonation_perc,2024.1.4,Win32,60.24096386,,,,,,,,,,,,,,1,moral,,,,,,1411.9252,1427.631,0,1,15.1805,,0,94,94,0,1,three_way_cognate,1,REAL,FALSA
,,,,,,,,,663193f4e88fc3a7917655de,001,2024-06-30_08h15.50.153,empathy_intonation_perc,2024.1.4,Win32,60.24096386,,,,,,,,,,,,,,158,babrá,,,,,,1427.6429,1439.5953,1,0,11.4261,,0,95,95,157,1,pseudoword,0,REAL,FALSA
,,,,,,,,,663193f4e88fc3a7917655de,001,2024-06-30_08h15.50.153,empathy_intonation_perc,2024.1.4,Win32,60.24096386,,,,,,,,,,,,,,180,pupica,,,,,,1439.6079,1451.6259,0,1,11.4934,,0,96,96,179,1,pseudoword,0,REAL,FALSA
,,,,,,,,,663193f4e88fc3a7917655de,001,2024-06-30_08h15.50.153,empathy_intonation_perc,2024.1.4,Win32,60.24096386,,,,,,,,,,,,,,99,bugor,,,,,,1451.639,1468.1967,0,1,16.0331,,0,97,97,98,1,pseudoword,0,REAL,FALSA
,,,,,,,,,663193f4e88fc3a7917655de,001,2024-06-30_08h15.50.153,empathy_intonation_perc,2024.1.4,Win32,60.24096386,,,,,,,,,,,,,,4,flora,,,,,,1468.2095,1479.2411,1,0,10.509,,0,98,98,3,1,three_way_cognate,1,REAL,FALSA
,,,,,,,,,663193f4e88fc3a7917655de,001,2024-06-30_08h15.50.153,empathy_intonation_perc,2024.1.4,Win32,60.24096386,,,,,,,,,,,,,,140,chorde,,,,,,1479.2527,1489.7701,1,0,9.9924,,0,99,99,139,1,pseudoword,0,REAL,FALSA
,,,,,,,,,663193f4e88fc3a7917655de,001,2024-06-30_08h15.50.153,empathy_intonation_perc,2024.1.4,Win32,60.24096386,,,,,,,,,,,,,,160,fomeó,,,,,,1489.7826,1523.81,1,0,33.502,,0,100,100,159,1,pseudoword,0,REAL,FALSA
,,,,,,,,,663193f4e88fc3a7917655de,001,2024-06-30_08h15.50.153,empathy_intonation_perc,2024.1.4,Win32,60.24096386,,,,,,,,,,,,,,126,tobre,,,,,,1523.8238,1538.3267,1,0,13.977,,0,101,101,125,1,pseudoword,0,REAL,FALSA
,,,,,,,,,663193f4e88fc3a7917655de,001,2024-06-30_08h15.50.153,empathy_intonation_perc,2024.1.4,Win32,60.24096386,,,,,,,,,,,,,,57,regalo,,,,,,1538.339,1548.0544,1,0,9.19,,0,102,102,56,1,non_cognate,1,REAL,FALSA
,,,,,,,,,663193f4e88fc3a7917655de,001,2024-06-30_08h15.50.153,empathy_intonation_perc,2024.1.4,Win32,60.24096386,,,,,,,,,,,,,,134,molor,,,,,,1548.0677,1559.0339,1,0,10.4398,,0,103,103,133,1,pseudoword,0,REAL,FALSA
,,,,,,,,,663193f4e88fc3a7917655de,001,2024-06-30_08h15.50.153,empathy_intonation_perc,2024.1.4,Win32,60.24096386,,,,,,,,,,,,,,80,cuenco,,,,,,1559.0455,1568.5953,1,0,9.0215,,0,104,104,79,1,non_cognate,1,REAL,FALSA
,,,,,,,,,663193f4e88fc3a7917655de,001,2024-06-30_08h15.50.153,empathy_intonation_perc,2024.1.4,Win32,60.24096386,,,,,,,,,,,,,,127,vien,,,,,,1568.6072,1576.1411,1,0,7.009,,0,105,105,126,1,pseudoword,0,REAL,FALSA
,,,,,,,,,663193f4e88fc3a7917655de,001,2024-06-30_08h15.50.153,empathy_intonation_perc,2024.1.4,Win32,60.24096386,,,,,,,,,,,,,,148,gino,,,,,,1576.1514,1583.0951,1,0,6.42,,0,106,106,147,1,pseudoword,0,REAL,FALSA
,,,,,,,,,663193f4e88fc3a7917655de,001,2024-06-30_08h15.50.153,empathy_intonation_perc,2024.1.4,Win32,60.24096386,,,,,,,,,,,,,,11,golf,,,,,,1583.1075,1589.0019,1,0,5.369,,0,107,107,10,1,three_way_cognate,1,REAL,FALSA
,,,,,,,,,663193f4e88fc3a7917655de,001,2024-06-30_08h15.50.153,empathy_intonation_perc,2024.1.4,Win32,60.24096386,,,,,,,,,,,,,,74,ala,,,,,,1589.013,1597.4118,1,0,7.8719,,0,108,108,73,1,non_cognate,1,REAL,FALSA
,,,,,,,,,663193f4e88fc3a7917655de,001,2024-06-30_08h15.50.153,empathy_intonation_perc,2024.1.4,Win32,60.24096386,,,,,,,,,,,,,,124,lobe,,,,,,1597.4239,1612.7312,0,1,14.7848,,0,109,109,123,1,pseudoword,0,REAL,FALSA
,,,,,,,,,663193f4e88fc3a7917655de,001,2024-06-30_08h15.50.153,empathy_intonation_perc,2024.1.4,Win32,60.24096386,,,,,,,,,,,,,,14,aura,,,,,,1612.7452,1622.9748,1,0,9.7068,,0,110,110,13,1,three_way_cognate,1,REAL,FALSA
,,,,,,,,,663193f4e88fc3a7917655de,001,2024-06-30_08h15.50.153,empathy_intonation_perc,2024.1.4,Win32,60.24096386,,,,,,,,,,,,,,92,flecha,,,,,,1622.9864,1630.3167,1,0,6.8035,,0,111,111,91,1,non_cognate,1,REAL,FALSA
,,,,,,,,,663193f4e88fc3a7917655de,001,2024-06-30_08h15.50.153,empathy_intonation_perc,2024.1.4,Win32,60.24096386,,,,,,,,,,,,,,130,dubo,,,,,,1630.3286,1639.7447,1,0,8.8897,,0,112,112,129,1,pseudoword,0,REAL,FALSA
,,,,,,,,,663193f4e88fc3a7917655de,001,2024-06-30_08h15.50.153,empathy_intonation_perc,2024.1.4,Win32,60.24096386,,,,,,,,,,,,,,122,boñaz,,,,,,1639.7571,1657.7991,1,0,17.5167,,0,113,113,121,1,pseudoword,0,REAL,FALSA
,,,,,,,,,663193f4e88fc3a7917655de,001,2024-06-30_08h15.50.153,empathy_intonation_perc,2024.1.4,Win32,60.24096386,,,,,,,,,,,,,,123,arane,,,,,,1657.812,1669.529,1,0,11.1927,,0,114,114,122,1,pseudoword,0,REAL,FALSA
,,,,,,,,,663193f4e88fc3a7917655de,001,2024-06-30_08h15.50.153,empathy_intonation_perc,2024.1.4,Win32,60.24096386,,,,,,,,,,,,,,136,hueas,,,,,,1669.5411,1677.9558,1,0,7.8883,,0,115,115,135,1,pseudoword,0,REAL,FALSA
,,,,,,,,,663193f4e88fc3a7917655de,001,2024-06-30_08h15.50.153,empathy_intonation_perc,2024.1.4,Win32,60.24096386,,,,,,,,,,,,,,88,percha,,,,,,1677.9682,1685.1805,1,0,6.6879,,0,116,116,87,1,non_cognate,1,REAL,FALSA
,,,,,,,,,663193f4e88fc3a7917655de,001,2024-06-30_08h15.50.153,empathy_intonation_perc,2024.1.4,Win32,60.24096386,,,,,,,,,,,,,,101,losco,,,,,,1685.1921,1692.9562,1,0,7.2351,,0,117,117,100,1,pseudoword,0,REAL,FALSA
,,,,,,,,,663193f4e88fc3a7917655de,001,2024-06-30_08h15.50.153,empathy_intonation_perc,2024.1.4,Win32,60.24096386,,,,,,,,,,,,,,53,punta,,,,,,1692.9679,1695.893,1,0,2.3997,,0,118,118,52,1,non_cognate,1,REAL,FALSA
,,,,,,,,,663193f4e88fc3a7917655de,001,2024-06-30_08h15.50.153,empathy_intonation_perc,2024.1.4,Win32,60.24096386,,,,,,,,,,,,,,66,aleta,,,,,,1695.8937,1704.3028,1,0,7.8701,,0,119,119,65,1,non_cognate,1,REAL,FALSA
,,,,,,,,,663193f4e88fc3a7917655de,001,2024-06-30_08h15.50.153,empathy_intonation_perc,2024.1.4,Win32,60.24096386,,,,,,,,,,,,,,162,cengo,,,,,,1704.3149,1711.6781,1,0,6.834,,0,120,120,161,1,pseudoword,0,REAL,FALSA
,,,,,,,,,663193f4e88fc3a7917655de,001,2024-06-30_08h15.50.153,empathy_intonation_perc,2024.1.4,Win32,60.24096386,,,,,,,,,,,,,,26,enigma,,,,,,1711.6893,1721.5065,1,0,9.29,,0,121,121,25,1,two_way_cognate,1,REAL,FALSA
,,,,,,,,,663193f4e88fc3a7917655de,001,2024-06-30_08h15.50.153,empathy_intonation_perc,2024.1.4,Win32,60.24096386,,,,,,,,,,,,,,47,color,,,,,,1721.5214,1724.226,1,0,2.18,,0,122,122,46,1,two_way_cognate,1,REAL,FALSA
,,,,,,,,,663193f4e88fc3a7917655de,001,2024-06-30_08h15.50.153,empathy_intonation_perc,2024.1.4,Win32,60.24096386,,,,,,,,,,,,,,170,diabo,,,,,,1724.2268,1735.6894,1,0,10.9268,,0,123,123,169,1,pseudoword,0,REAL,FALSA
,,,,,,,,,663193f4e88fc3a7917655de,001,2024-06-30_08h15.50.153,empathy_intonation_perc,2024.1.4,Win32,60.24096386,,,,,,,,,,,,,,84,aviso,,,,,,1735.703,1739.761,1,0,3.531,,0,124,124,83,1,non_cognate,1,REAL,FALSA
,,,,,,,,,663193f4e88fc3a7917655de,001,2024-06-30_08h15.50.153,empathy_intonation_perc,2024.1.4,Win32,60.24096386,,,,,,,,,,,,,,146,gió,,,,,,1739.7739,1796.1939,1,0,55.8973,,0,125,125,145,1,pseudoword,0,REAL,FALSA
,,,,,,,,,663193f4e88fc3a7917655de,001,2024-06-30_08h15.50.153,empathy_intonation_perc,2024.1.4,Win32,60.24096386,,,,,,,,,,,,,,71,torta,,,,,,1796.2068,1798.4456,1,0,1.7151,,0,126,126,70,1,non_cognate,1,REAL,FALSA
,,,,,,,,,663193f4e88fc3a7917655de,001,2024-06-30_08h15.50.153,empathy_intonation_perc,2024.1.4,Win32,60.24096386,,,,,,,,,,,,,,156,ozoso,,,,,,1798.4463,1824.8934,0,1,25.9089,,0,127,127,155,1,pseudoword,0,REAL,FALSA
,,,,,,,,,663193f4e88fc3a7917655de,001,2024-06-30_08h15.50.153,empathy_intonation_perc,2024.1.4,Win32,60.24096386,,,,,,,,,,,,,,152,prave,,,,,,1824.9062,1840.2942,0,1,14.8621,,0,128,128,151,1,pseudoword,0,REAL,FALSA
,,,,,,,,,663193f4e88fc3a7917655de,001,2024-06-30_08h15.50.153,empathy_intonation_perc,2024.1.4,Win32,60.24096386,,,,,,,,,,,,,,118,bará,,,,,,1840.3059,1846.4349,1,0,5.6023,,0,129,129,117,1,pseudoword,0,REAL,FALSA
,,,,,,,,,663193f4e88fc3a7917655de,001,2024-06-30_08h15.50.153,empathy_intonation_perc,2024.1.4,Win32,60.24096386,,,,,,,,,,,,,,75,patada,,,,,,1846.4471,1855.9295,1,0,8.9545,,0,130,130,74,1,non_cognate,1,REAL,FALSA
,,,,,,,,,663193f4e88fc3a7917655de,001,2024-06-30_08h15.50.153,empathy_intonation_perc,2024.1.4,Win32,60.24096386,,,,,,,,,,,,,,2,tumor,,,,,,1855.9454,1858.4322,1,0,1.9621,,0,131,131,1,1,three_way_cognate,1,REAL,FALSA
,,,,,,,,,663193f4e88fc3a7917655de,001,2024-06-30_08h15.50.153,empathy_intonation_perc,2024.1.4,Win32,60.24096386,,,,,,,,,,,,,,191,frasis,,,,,,1858.4333,1897.4275,1,0,38.4557,,0,132,132,190,1,pseudoword,0,REAL,FALSA
,,,,,,,,,663193f4e88fc3a7917655de,001,2024-06-30_08h15.50.153,empathy_intonation_perc,2024.1.4,Win32,60.24096386,,,,,,,,,,,,,,153,golla,,,,,,1897.4399,1910.0591,1,0,12.0917,,0,133,133,152,1,pseudoword,0,REAL,FALSA
,,,,,,,,,663193f4e88fc3a7917655de,001,2024-06-30_08h15.50.153,empathy_intonation_perc,2024.1.4,Win32,60.24096386,,,,,,,,,,,,,,25,vigor,,,,,,1910.0719,1920.3206,1,0,9.7257,,0,134,134,24,1,two_way_cognate,1,REAL,FALSA
,,,,,,,,,663193f4e88fc3a7917655de,001,2024-06-30_08h15.50.153,empathy_intonation_perc,2024.1.4,Win32,60.24096386,,,,,,,,,,,,,,142,parre,,,,,,1920.3343,1956.5464,0,1,35.6876,,0,135,135,141,1,pseudoword,0,REAL,FALSA
,,,,,,,,,663193f4e88fc3a7917655de,001,2024-06-30_08h15.50.153,empathy_intonation_perc,2024.1.4,Win32,60.24096386,,,,,,,,,,,,,,67,llamar,,,,,,1956.5587,1958.7156,1,0,1.6311,,0,136,136,66,1,non_cognate,1,REAL,FALSA
,,,,,,,,,663193f4e88fc3a7917655de,001,2024-06-30_08h15.50.153,empathy_intonation_perc,2024.1.4,Win32,60.24096386,,,,,,,,,,,,,,58,colcha,,,,,,1958.7166,1985.0292,1,0,25.7764,,0,137,137,57,1,non_cognate,1,REAL,FALSA
,,,,,,,,,663193f4e88fc3a7917655de,001,2024-06-30_08h15.50.153,empathy_intonation_perc,2024.1.4,Win32,60.24096386,,,,,,,,,,,,,,79,suelo,,,,,,1985.0414,1986.4309,1,0,0.8645,,0,138,138,78,1,non_cognate,1,REAL,FALSA
,,,,,,,,,663193f4e88fc3a7917655de,001,2024-06-30_08h15.50.153,empathy_intonation_perc,2024.1.4,Win32,60.24096386,,,,,,,,,,,,,,112,samón,,,,,,1986.4318,2005.2708,0,1,18.2962,,0,139,139,111,1,pseudoword,0,REAL,FALSA
,,,,,,,,,663193f4e88fc3a7917655de,001,2024-06-30_08h15.50.153,empathy_intonation_perc,2024.1.4,Win32,60.24096386,,,,,,,,,,,,,,128,pelí,,,,,,2005.2841,2019.4862,1,0,13.6789,,0,140,140,127,1,pseudoword,0,REAL,FALSA
,,,,,,,,,663193f4e88fc3a7917655de,001,2024-06-30_08h15.50.153,empathy_intonation_perc,2024.1.4,Win32,60.24096386,,,,,,,,,,,,,,83,hálito,,,,,,2019.498,2038.9916,1,0,18.968,,0,141,141,82,1,non_cognate,1,REAL,FALSA
,,,,,,,,,663193f4e88fc3a7917655de,001,2024-06-30_08h15.50.153,empathy_intonation_perc,2024.1.4,Win32,60.24096386,,,,,,,,,,,,,,188,amplir,,,,,,2039.0042,2067.5923,1,0,28.0617,,0,142,142,187,1,pseudoword,0,REAL,FALSA
,,,,,,,,,663193f4e88fc3a7917655de,001,2024-06-30_08h15.50.153,empathy_intonation_perc,2024.1.4,Win32,60.24096386,,,,,,,,,,,,,,15,test,,,,,,2067.6046,2069.7281,1,0,1.5987,,0,143,143,14,1,three_way_cognate,1,REAL,FALSA
,,,,,,,,,663193f4e88fc3a7917655de,001,2024-06-30_08h15.50.153,empathy_intonation_perc,2024.1.4,Win32,60.24096386,,,,,,,,,,,,,,36,viable,,,,,,2069.729,2079.5395,1,0,9.2737,,0,144,144,35,1,two_way_cognate,1,REAL,FALSA
,,,,,,,,,663193f4e88fc3a7917655de,001,2024-06-30_08h15.50.153,empathy_intonation_perc,2024.1.4,Win32,60.24096386,,,,,,,,,,,,,,115,lidena,,,,,,2079.5515,2089.6009,1,0,9.524,,0,145,145,114,1,pseudoword,0,REAL,FALSA
,,,,,,,,,663193f4e88fc3a7917655de,001,2024-06-30_08h15.50.153,empathy_intonation_perc,2024.1.4,Win32,60.24096386,,,,,,,,,,,,,,43,honor,,,,,,2089.6125,2101.6986,1,0,11.5581,,0,146,146,42,1,two_way_cognate,1,REAL,FALSA
,,,,,,,,,663193f4e88fc3a7917655de,001,2024-06-30_08h15.50.153,empathy_intonation_perc,2024.1.4,Win32,60.24096386,,,,,,,,,,,,,,65,guerra,,,,,,2101.7107,2103.701,1,0,1.4643,,0,147,147,64,1,non_cognate,1,REAL,FALSA
,,,,,,,,,663193f4e88fc3a7917655de,001,2024-06-30_08h15.50.153,empathy_intonation_perc,2024.1.4,Win32,60.24096386,,,,,,,,,,,,,,150,cricó,,,,,,2103.7019,2105.119,1,0,0.876,,0,148,148,149,1,pseudoword,0,REAL,FALSA
,,,,,,,,,663193f4e88fc3a7917655de,001,2024-06-30_08h15.50.153,empathy_intonation_perc,2024.1.4,Win32,60.24096386,,,,,,,,,,,,,,82,brillo,,,,,,2105.1198,2106.5872,1,0,0.9311,,0,149,149,81,1,non_cognate,1,REAL,FALSA
,,,,,,,,,663193f4e88fc3a7917655de,001,2024-06-30_08h15.50.153,empathy_intonation_perc,2024.1.4,Win32,60.24096386,,,,,,,,,,,,,,68,puñal,,,,,,2106.5881,2127.295,1,0,20.1655,,0,150,150,67,1,non_cognate,1,REAL,FALSA
,,,,,,,,,663193f4e88fc3a7917655de,001,2024-06-30_08h15.50.153,empathy_intonation_perc,2024.1.4,Win32,60.24096386,,,,,,,,,,,,,,155,kugis,,,,,,2127.307,2151.6731,0,1,23.8408,,0,151,151,154,1,pseudoword,0,REAL,FALSA
,,,,,,,,,663193f4e88fc3a7917655de,001,2024-06-30_08h15.50.153,empathy_intonation_perc,2024.1.4,Win32,60.24096386,,,,,,,,,,,,,,18,altar,,,,,,2151.6853,2154.6431,1,0,2.432,,0,152,152,17,1,three_way_cognate,1,REAL,FALSA
,,,,,,,,,663193f4e88fc3a7917655de,001,2024-06-30_08h15.50.153,empathy_intonation_perc,2024.1.4,Win32,60.24096386,,,,,,,,,,,,,,189,medium,,,,,,2154.644,2156.646,1,0,1.4679,,0,153,153,188,1,pseudoword,0,REAL,FALSA
,,,,,,,,,663193f4e88fc3a7917655de,001,2024-06-30_08h15.50.153,empathy_intonation_perc,2024.1.4,Win32,60.24096386,,,,,,,,,,,,,,144,diroco,,,,,,2156.6469,2204.0006,0,1,46.8137,,0,154,154,143,1,pseudoword,0,REAL,FALSA
,,,,,,,,,663193f4e88fc3a7917655de,001,2024-06-30_08h15.50.153,empathy_intonation_perc,2024.1.4,Win32,60.24096386,,,,,,,,,,,,,,27,piano,,,,,,2204.0129,2206.387,1,0,1.8485,,0,155,155,26,1,two_way_cognate,1,REAL,FALSA
,,,,,,,,,663193f4e88fc3a7917655de,001,2024-06-30_08h15.50.153,empathy_intonation_perc,2024.1.4,Win32,60.24096386,,,,,,,,,,,,,,78,rendir,,,,,,2206.388,2216.9324,1,0,10.0084,,0,156,156,77,1,non_cognate,1,REAL,FALSA
,,,,,,,,,663193f4e88fc3a7917655de,001,2024-06-30_08h15.50.153,empathy_intonation_perc,2024.1.4,Win32,60.24096386,,,,,,,,,,,,,,70,ánimo,,,,,,2216.9449,2218.3506,1,0,0.8804,,0,157,157,69,1,non_cognate,1,REAL,FALSA
,,,,,,,,,663193f4e88fc3a7917655de,001,2024-06-30_08h15.50.153,empathy_intonation_perc,2024.1.4,Win32,60.24096386,,,,,,,,,,,,,,64,rizado,,,,,,2218.3516,2230.768,1,0,11.8769,,0,158,158,63,1,non_cognate,1,REAL,FALSA
,,,,,,,,,663193f4e88fc3a7917655de,001,2024-06-30_08h15.50.153,empathy_intonation_perc,2024.1.4,Win32,60.24096386,,,,,,,,,,,,,,55,maldad,,,,,,2230.7814,2242.3452,1,0,11.0405,,0,159,159,54,1,non_cognate,1,REAL,FALSA
,,,,,,,,,663193f4e88fc3a7917655de,001,2024-06-30_08h15.50.153,empathy_intonation_perc,2024.1.4,Win32,60.24096386,,,,,,,,,,,,,,93,tapa,,,,,,2242.3588,2253.4247,1,0,10.5412,,0,160,160,92,1,non_cognate,1,REAL,FALSA
,,,,,,,,,663193f4e88fc3a7917655de,001,2024-06-30_08h15.50.153,empathy_intonation_perc,2024.1.4,Win32,60.24096386,,,,,,,,,,,,,,133,conso,,,,,,2253.4365,2266.6068,1,0,12.6448,,0,161,161,132,1,pseudoword,0,REAL,FALSA
,,,,,,,,,663193f4e88fc3a7917655de,001,2024-06-30_08h15.50.153,empathy_intonation_perc,2024.1.4,Win32,60.24096386,,,,,,,,,,,,,,7,albino,,,,,,2266.6187,2280.1729,1,0,13.0287,,0,162,162,6,1,three_way_cognate,1,REAL,FALSA
,,,,,,,,,663193f4e88fc3a7917655de,001,2024-06-30_08h15.50.153,empathy_intonation_perc,2024.1.4,Win32,60.24096386,,,,,,,,,,,,,,77,suave,,,,,,2280.1852,2281.4752,1,0,0.7624,,0,163,163,76,1,non_cognate,1,REAL,FALSA
,,,,,,,,,663193f4e88fc3a7917655de,001,2024-06-30_08h15.50.153,empathy_intonation_perc,2024.1.4,Win32,60.24096386,,,,,,,,,,,,,,54,tapón,,,,,,2281.4765,2282.609,1,0,0.5925,,0,164,164,53,1,non_cognate,1,REAL,FALSA
,,,,,,,,,663193f4e88fc3a7917655de,001,2024-06-30_08h15.50.153,empathy_intonation_perc,2024.1.4,Win32,60.24096386,,,,,,,,,,,,,,29,clamor,,,,,,2282.6099,2301.2973,1,0,18.1463,,0,165,165,28,1,two_way_cognate,1,REAL,FALSA
,,,,,,,,,663193f4e88fc3a7917655de,001,2024-06-30_08h15.50.153,empathy_intonation_perc,2024.1.4,Win32,60.24096386,,,,,,,,,,,,,,8,kilo,,,,,,2301.3093,2303.8834,1,0,2.0487,,0,166,166,7,1,three_way_cognate,1,REAL,FALSA
,,,,,,,,,663193f4e88fc3a7917655de,001,2024-06-30_08h15.50.153,empathy_intonation_perc,2024.1.4,Win32,60.24096386,,,,,,,,,,,,,,9,portal,,,,,,2303.8841,2306.186,1,0,1.7626,,0,167,167,8,1,three_way_cognate,1,REAL,FALSA
,,,,,,,,,663193f4e88fc3a7917655de,001,2024-06-30_08h15.50.153,empathy_intonation_perc,2024.1.4,Win32,60.24096386,,,,,,,,,,,,,,3,disco,,,,,,2306.1869,2307.6052,1,0,0.8835,,0,168,168,2,1,three_way_cognate,1,REAL,FALSA
,,,,,,,,,663193f4e88fc3a7917655de,001,2024-06-30_08h15.50.153,empathy_intonation_perc,2024.1.4,Win32,60.24096386,,,,,,,,,,,,,,40,pelvis,,,,,,2307.6062,2309.4402,1,0,1.2939,,0,169,169,39,1,two_way_cognate,1,REAL,FALSA
,,,,,,,,,663193f4e88fc3a7917655de,001,2024-06-30_08h15.50.153,empathy_intonation_perc,2024.1.4,Win32,60.24096386,,,,,,,,,,,,,,87,muleta,,,,,,2309.4411,2324.1906,1,0,14.2129,,0,170,170,86,1,non_cognate,1,REAL,FALSA
,,,,,,,,,663193f4e88fc3a7917655de,001,2024-06-30_08h15.50.153,empathy_intonation_perc,2024.1.4,Win32,60.24096386,,,,,,,,,,,,,,34,actor,,,,,,2324.2028,2326.0594,1,0,1.331,,0,171,171,33,1,two_way_cognate,1,REAL,FALSA
,,,,,,,,,663193f4e88fc3a7917655de,001,2024-06-30_08h15.50.153,empathy_intonation_perc,2024.1.4,Win32,60.24096386,,,,,,,,,,,,,,137,trugo,,,,,,2326.0603,2342.6452,1,0,16.0447,,0,172,172,136,1,pseudoword,0,REAL,FALSA
,,,,,,,,,663193f4e88fc3a7917655de,001,2024-06-30_08h15.50.153,empathy_intonation_perc,2024.1.4,Win32,60.24096386,,,,,,,,,,,,,,28,ardor,,,,,,2342.6582,2343.763,1,0,0.5775,,0,173,173,27,1,two_way_cognate,1,REAL,FALSA
,,,,,,,,,663193f4e88fc3a7917655de,001,2024-06-30_08h15.50.153,empathy_intonation_perc,2024.1.4,Win32,60.24096386,,,,,,,,,,,,,,107,plago,,,,,,2343.7638,2344.8143,1,0,0.5096,,0,174,174,106,1,pseudoword,0,REAL,FALSA
,,,,,,,,,663193f4e88fc3a7917655de,001,2024-06-30_08h15.50.153,empathy_intonation_perc,2024.1.4,Win32,60.24096386,,,,,,,,,,,,,,145,rúo,,,,,,2344.8153,2346.0827,1,0,0.7257,,0,175,175,144,1,pseudoword,0,REAL,FALSA
,,,,,,,,,663193f4e88fc3a7917655de,001,2024-06-30_08h15.50.153,empathy_intonation_perc,2024.1.4,Win32,60.24096386,,,,,,,,,,,,,,159,trcia,,,,,,2346.0836,2349.1197,0,1,2.5023,,0,176,176,158,1,pseudoword,0,REAL,FALSA
,,,,,,,,,663193f4e88fc3a7917655de,001,2024-06-30_08h15.50.153,empathy_intonation_perc,2024.1.4,Win32,60.24096386,,,,,,,,,,,,,,109,laras,,,,,,2349.1321,2350.8549,1,0,1.1968,,0,177,177,108,1,pseudoword,0,REAL,FALSA
,,,,,,,,,663193f4e88fc3a7917655de,001,2024-06-30_08h15.50.153,empathy_intonation_perc,2024.1.4,Win32,60.24096386,,,,,,,,,,,,,,169,pitis,,,,,,2350.8559,2352.1232,1,0,0.7264,,0,178,178,168,1,pseudoword,0,REAL,FALSA
,,,,,,,,,663193f4e88fc3a7917655de,001,2024-06-30_08h15.50.153,empathy_intonation_perc,2024.1.4,Win32,60.24096386,,,,,,,,,,,,,,44,editor,,,,,,2352.124,2353.3408,1,0,0.6762,,0,179,179,43,1,two_way_cognate,1,REAL,FALSA
,,,,,,,,,663193f4e88fc3a7917655de,001,2024-06-30_08h15.50.153,empathy_intonation_perc,2024.1.4,Win32,60.24096386,,,,,,,,,,,,,,96,caro,,,,,,2353.3416,2354.8596,1,0,0.9785,,0,180,180,95,1,non_cognate,1,REAL,FALSA
,,,,,,,,,663193f4e88fc3a7917655de,001,2024-06-30_08h15.50.153,empathy_intonation_perc,2024.1.4,Win32,60.24096386,,,,,,,,,,,,,,59,feo,,,,,,2354.8606,2364.5208,1,0,9.1184,,0,181,181,58,1,non_cognate,1,REAL,FALSA
,,,,,,,,,663193f4e88fc3a7917655de,001,2024-06-30_08h15.50.153,empathy_intonation_perc,2024.1.4,Win32,60.24096386,,,,,,,,,,,,,,181,gravés,,,,,,2364.5332,2366.0393,1,0,0.9786,,0,182,182,180,1,pseudoword,0,REAL,FALSA
,,,,,,,,,663193f4e88fc3a7917655de,001,2024-06-30_08h15.50.153,empathy_intonation_perc,2024.1.4,Win32,60.24096386,,,,,,,,,,,,,,89,muñeca,,,,,,2366.0403,2367.2237,1,0,0.642,,0,183,183,88,1,non_cognate,1,REAL,FALSA
,,,,,,,,,663193f4e88fc3a7917655de,001,2024-06-30_08h15.50.153,empathy_intonation_perc,2024.1.4,Win32,60.24096386,,,,,,,,,,,,,,35,aurora,,,,,,2367.2245,2368.5105,1,0,0.7464,,0,184,184,34,1,two_way_cognate,1,REAL,FALSA
,,,,,,,,,663193f4e88fc3a7917655de,001,2024-06-30_08h15.50.153,empathy_intonation_perc,2024.1.4,Win32,60.24096386,,,,,,,,,,,,,,141,virios,,,,,,2368.5116,2371.7829,0,1,2.7412,,0,185,185,140,1,pseudoword,0,REAL,FALSA
,,,,,,,,,663193f4e88fc3a7917655de,001,2024-06-30_08h15.50.153,empathy_intonation_perc,2024.1.4,Win32,60.24096386,,,,,,,,,,,,,,167,dobbo,,,,,,2371.7969,2387.5474,0,1,15.2139,,0,186,186,166,1,pseudoword,0,REAL,FALSA
,,,,,,,,,663193f4e88fc3a7917655de,001,2024-06-30_08h15.50.153,empathy_intonation_perc,2024.1.4,Win32,60.24096386,,,,,,,,,,,,,,13,plan,,,,,,2387.5597,2389.6333,1,0,1.5474,,0,187,187,12,1,three_way_cognate,1,REAL,FALSA
,,,,,,,,,663193f4e88fc3a7917655de,001,2024-06-30_08h15.50.153,empathy_intonation_perc,2024.1.4,Win32,60.24096386,,,,,,,,,,,,,,105,leniz,,,,,,2389.6343,2415.0127,1,0,24.839,,0,188,188,104,1,pseudoword,0,REAL,FALSA
,,,,,,,,,663193f4e88fc3a7917655de,001,2024-06-30_08h15.50.153,empathy_intonation_perc,2024.1.4,Win32,60.24096386,,,,,,,,,,,,,,33,collar,,,,,,2415.0248,2416.4143,1,0,0.864,,0,189,189,32,1,two_way_cognate,1,REAL,FALSA
,,,,,,,,,663193f4e88fc3a7917655de,001,2024-06-30_08h15.50.153,empathy_intonation_perc,2024.1.4,Win32,60.24096386,,,,,,,,,,,,,,120,mauja,,,,,,2416.4151,2417.9004,1,0,0.9462,,0,190,190,119,1,pseudoword,0,REAL,FALSA
,,,,,,,,,663193f4e88fc3a7917655de,001,2024-06-30_08h15.50.153,empathy_intonation_perc,2024.1.4,Win32,60.24096386,,,,,,,,,,,,,,190,asumie,,,,,,2417.901,2420.3188,0,1,1.8771,,0,191,191,189,1,pseudoword,0,REAL,FALSA
