lextale_instructions.started,lextale_instructions.stopped,lextale_instructions_loop.thisRepN,lextale_instructions_loop.thisTrialN,lextale_instructions_loop.thisN,lextale_instructions_loop.thisIndex,lextale_instructions_loop.ran,instructions_text,continue_text,participant,session,date,expName,psychopyVersion,OS,frameRate,lextale_practice.started,lextale_practice.stopped,key_resp_lextale_practice.keys,key_resp_lextale_practice.corr,key_resp_lextale_practice.rt,key_resp_lextale_practice.duration,lextale_practice_feedback.started,lextale_practice_feedback.stopped,lextale_practice_trials.thisRepN,lextale_practice_trials.thisTrialN,lextale_practice_trials.thisN,lextale_practice_trials.thisIndex,lextale_practice_trials.ran,stim,word,correct_response,prac_button_real,prac_button_false,lextale_check.started,lextale_check.stopped,lextale_trial.started,lextale_trial.stopped,key_resp_lextale_trial.keys,key_resp_lextale_trial.corr,key_resp_lextale_trial.rt,key_resp_lextale_trial.duration,lextail_trials.thisRepN,lextail_trials.thisTrialN,lextail_trials.thisN,lextail_trials.thisIndex,lextail_trials.ran,type,correct_reponse,button_real,button_false
0.0024,7.7399,0,0,0,0,1,"Este es un test de vocabulario en español. 
  
  A continuación vas a ver 90 secuencias de letras que parecen 'españolas'.
  
  Solo algunas de ellas son palabras de verdad.",(presiona la barra espaciadora para continuar),66697abfce8185370e15dc8c,001,2024-06-30_05h32.33.862,empathy_intonation_perc,2024.1.4,Win32,59.88023952,,,,,,,,,,,,,,,,,,,,,,,,,,,,,,,,,,,
7.7491,9.0524,0,1,1,1,1,"Por favor, señala las palabras que tú conoces (aquellas que estás convencido que son palabras españolas, incluso aunque no seas capaz de dar el significado preciso).",(presiona la barra espaciadora para continuar),66697abfce8185370e15dc8c,001,2024-06-30_05h32.33.862,empathy_intonation_perc,2024.1.4,Win32,59.88023952,,,,,,,,,,,,,,,,,,,,,,,,,,,,,,,,,,,
9.0528,19.9096,0,2,2,2,1,Pero cuidado: los errores se penalizan. Por eso no tiene sentido tratar de incrementar tu puntuación marcando como reales palabras que nunca has visto.,(presiona la barra espaciadora para continuar),66697abfce8185370e15dc8c,001,2024-06-30_05h32.33.862,empathy_intonation_perc,2024.1.4,Win32,59.88023952,,,,,,,,,,,,,,,,,,,,,,,,,,,,,,,,,,,
19.9209,24.457,0,3,3,3,1,"Presiona la tecla 1 si piensas que es una palabra real y la tecla 
  0 si piensas que es una palabra falsa. 
  
  Vamos a practicar un poco...",(presiona la barra espaciadora para continuar),66697abfce8185370e15dc8c,001,2024-06-30_05h32.33.862,empathy_intonation_perc,2024.1.4,Win32,59.88023952,,,,,,,,,,,,,,,,,,,,,,,,,,,,,,,,,,,
,,,,,,,,,66697abfce8185370e15dc8c,001,2024-06-30_05h32.33.862,empathy_intonation_perc,2024.1.4,Win32,59.88023952,24.4704,26.3434,1,0,1.3526,,26.3437,27.3383,0,0,0,0,1,0,depiste,0,REAL,FALSA,,,,,,,,,,,,,,,,,
,,,,,,,,,66697abfce8185370e15dc8c,001,2024-06-30_05h32.33.862,empathy_intonation_perc,2024.1.4,Win32,59.88023952,27.3391,28.7695,1,1,0.8992,,28.7696,29.7691,0,1,1,1,1,0,sí,1,REAL,FALSA,,,,,,,,,,,,,,,,,
,,,,,,,,,66697abfce8185370e15dc8c,001,2024-06-30_05h32.33.862,empathy_intonation_perc,2024.1.4,Win32,59.88023952,29.7701,31.1011,1,0,0.7948,,31.1013,32.1001,0,2,2,2,1,0,coné,0,REAL,FALSA,,,,,,,,,,,,,,,,,
,,,,,,,,,66697abfce8185370e15dc8c,001,2024-06-30_05h32.33.862,empathy_intonation_perc,2024.1.4,Win32,59.88023952,32.1315,35.1809,0,1,2.5272,,35.181,36.1801,0,3,3,3,1,0,calpar,0,REAL,FALSA,,,,,,,,,,,,,,,,,
,,,,,,,,,66697abfce8185370e15dc8c,001,2024-06-30_05h32.33.862,empathy_intonation_perc,2024.1.4,Win32,59.88023952,36.2108,37.6288,1,0,0.8943,,37.6289,38.628,0,4,4,4,1,0,joten,0,REAL,FALSA,,,,,,,,,,,,,,,,,
,,,,,,,,,66697abfce8185370e15dc8c,001,2024-06-30_05h32.33.862,empathy_intonation_perc,2024.1.4,Win32,59.88023952,38.6293,39.8935,0,0,0.733,,39.8937,40.8931,0,5,5,5,1,0,sacapuntas,1,REAL,FALSA,,,,,,,,,,,,,,,,,
,,,,,,,,,66697abfce8185370e15dc8c,001,2024-06-30_05h32.33.862,empathy_intonation_perc,2024.1.4,Win32,59.88023952,40.8945,42.2915,0,1,0.8608,,42.2916,43.291,0,6,6,6,1,0,priba,0,REAL,FALSA,,,,,,,,,,,,,,,,,
,,,,,,,,,66697abfce8185370e15dc8c,001,2024-06-30_05h32.33.862,empathy_intonation_perc,2024.1.4,Win32,59.88023952,43.2925,44.5726,0,1,0.743,,44.5727,45.5732,0,7,7,7,1,0,pelasula,0,REAL,FALSA,,,,,,,,,,,,,,,,,
,,,,,,,,,66697abfce8185370e15dc8c,001,2024-06-30_05h32.33.862,empathy_intonation_perc,2024.1.4,Win32,59.88023952,45.5744,46.7712,1,1,0.6609,,46.7714,47.7708,0,8,8,8,1,0,bien,1,REAL,FALSA,,,,,,,,,,,,,,,,,
,,,,,,,,,66697abfce8185370e15dc8c,001,2024-06-30_05h32.33.862,empathy_intonation_perc,2024.1.4,Win32,59.88023952,47.7722,48.9529,1,1,0.6455,,48.953,49.9522,0,9,9,9,1,0,casa,1,REAL,FALSA,,,,,,,,,,,,,,,,,
,,,,,,,,,66697abfce8185370e15dc8c,001,2024-06-30_05h32.33.862,empathy_intonation_perc,2024.1.4,Win32,59.88023952,49.9536,51.2009,0,1,0.7103,,51.2011,52.2003,0,10,10,10,1,0,lejo,0,REAL,FALSA,,,,,,,,,,,,,,,,,
,,,,,,,,,66697abfce8185370e15dc8c,001,2024-06-30_05h32.33.862,empathy_intonation_perc,2024.1.4,Win32,59.88023952,52.2319,53.4659,0,1,0.7118,,53.4662,54.4656,0,11,11,11,1,0,pretantas,0,REAL,FALSA,,,,,,,,,,,,,,,,,
,,,,,,,,,66697abfce8185370e15dc8c,001,2024-06-30_05h32.33.862,empathy_intonation_perc,2024.1.4,Win32,59.88023952,,,,,,,,,,,,,,,,,,,54.4676,55.1986,,,,,,,,,,,,,,,
,,,,,,,,,66697abfce8185370e15dc8c,001,2024-06-30_05h32.33.862,empathy_intonation_perc,2024.1.4,Win32,59.88023952,,,,,,,,,,,,,,100,épinas,,,,,,55.2336,56.4472,1,0,0.6807,,0,0,0,99,1,pseudoword,0,REAL,FALSA
,,,,,,,,,66697abfce8185370e15dc8c,001,2024-06-30_05h32.33.862,empathy_intonation_perc,2024.1.4,Win32,59.88023952,,,,,,,,,,,,,,192,próces,,,,,,56.4483,57.6462,1,0,0.6614,,0,1,1,191,1,pseudoword,0,REAL,FALSA
,,,,,,,,,66697abfce8185370e15dc8c,001,2024-06-30_05h32.33.862,empathy_intonation_perc,2024.1.4,Win32,59.88023952,,,,,,,,,,,,,,89,muñeca,,,,,,57.6475,58.8613,0,1,0.6786,,0,2,2,88,1,non_cognate,1,REAL,FALSA
,,,,,,,,,66697abfce8185370e15dc8c,001,2024-06-30_05h32.33.862,empathy_intonation_perc,2024.1.4,Win32,59.88023952,,,,,,,,,,,,,,11,golf,,,,,,58.8625,59.9271,1,0,0.5278,,0,3,3,10,1,three_way_cognate,1,REAL,FALSA
,,,,,,,,,66697abfce8185370e15dc8c,001,2024-06-30_05h32.33.862,empathy_intonation_perc,2024.1.4,Win32,59.88023952,,,,,,,,,,,,,,1,moral,,,,,,59.9281,61.0094,1,0,0.5439,,0,4,4,0,1,three_way_cognate,1,REAL,FALSA
,,,,,,,,,66697abfce8185370e15dc8c,001,2024-06-30_05h32.33.862,empathy_intonation_perc,2024.1.4,Win32,59.88023952,,,,,,,,,,,,,,14,aura,,,,,,61.0106,62.1251,1,0,0.5849,,0,5,5,13,1,three_way_cognate,1,REAL,FALSA
,,,,,,,,,66697abfce8185370e15dc8c,001,2024-06-30_05h32.33.862,empathy_intonation_perc,2024.1.4,Win32,59.88023952,,,,,,,,,,,,,,155,kugis,,,,,,62.1263,63.191,0,1,0.5312,,0,6,6,154,1,pseudoword,0,REAL,FALSA
,,,,,,,,,66697abfce8185370e15dc8c,001,2024-06-30_05h32.33.862,empathy_intonation_perc,2024.1.4,Win32,59.88023952,,,,,,,,,,,,,,165,chote,,,,,,63.1921,64.0739,1,0,0.3476,,0,7,7,164,1,pseudoword,0,REAL,FALSA
,,,,,,,,,66697abfce8185370e15dc8c,001,2024-06-30_05h32.33.862,empathy_intonation_perc,2024.1.4,Win32,59.88023952,,,,,,,,,,,,,,146,gió,,,,,,64.0752,65.1729,1,0,0.564,,0,8,8,145,1,pseudoword,0,REAL,FALSA
,,,,,,,,,66697abfce8185370e15dc8c,001,2024-06-30_05h32.33.862,empathy_intonation_perc,2024.1.4,Win32,59.88023952,,,,,,,,,,,,,,19,mafia,,,,,,65.174,66.272,1,0,0.565,,0,9,9,18,1,three_way_cognate,1,REAL,FALSA
,,,,,,,,,66697abfce8185370e15dc8c,001,2024-06-30_05h32.33.862,empathy_intonation_perc,2024.1.4,Win32,59.88023952,,,,,,,,,,,,,,130,dubo,,,,,,66.2731,67.3375,0,1,0.5333,,0,10,10,129,1,pseudoword,0,REAL,FALSA
,,,,,,,,,66697abfce8185370e15dc8c,001,2024-06-30_05h32.33.862,empathy_intonation_perc,2024.1.4,Win32,59.88023952,,,,,,,,,,,,,,33,collar,,,,,,67.3387,68.3701,1,0,0.5001,,0,11,11,32,1,two_way_cognate,1,REAL,FALSA
,,,,,,,,,66697abfce8185370e15dc8c,001,2024-06-30_05h32.33.862,empathy_intonation_perc,2024.1.4,Win32,59.88023952,,,,,,,,,,,,,,108,jauda,,,,,,68.3711,69.5208,1,0,0.6204,,0,12,12,107,1,pseudoword,0,REAL,FALSA
,,,,,,,,,66697abfce8185370e15dc8c,001,2024-06-30_05h32.33.862,empathy_intonation_perc,2024.1.4,Win32,59.88023952,,,,,,,,,,,,,,23,plural,,,,,,69.5218,70.5684,1,0,0.5118,,0,13,13,22,1,three_way_cognate,1,REAL,FALSA
,,,,,,,,,66697abfce8185370e15dc8c,001,2024-06-30_05h32.33.862,empathy_intonation_perc,2024.1.4,Win32,59.88023952,,,,,,,,,,,,,,42,rumor,,,,,,70.5695,71.684,1,0,0.5768,,0,14,14,41,1,two_way_cognate,1,REAL,FALSA
,,,,,,,,,66697abfce8185370e15dc8c,001,2024-06-30_05h32.33.862,empathy_intonation_perc,2024.1.4,Win32,59.88023952,,,,,,,,,,,,,,147,alla,,,,,,71.6851,72.8164,0,1,0.5932,,0,15,15,146,1,pseudoword,0,REAL,FALSA
,,,,,,,,,66697abfce8185370e15dc8c,001,2024-06-30_05h32.33.862,empathy_intonation_perc,2024.1.4,Win32,59.88023952,,,,,,,,,,,,,,169,pitis,,,,,,72.8175,74.1486,0,1,0.7966,,0,16,16,168,1,pseudoword,0,REAL,FALSA
,,,,,,,,,66697abfce8185370e15dc8c,001,2024-06-30_05h32.33.862,empathy_intonation_perc,2024.1.4,Win32,59.88023952,,,,,,,,,,,,,,28,ardor,,,,,,74.1499,75.2146,1,0,0.5331,,0,17,17,27,1,two_way_cognate,1,REAL,FALSA
,,,,,,,,,66697abfce8185370e15dc8c,001,2024-06-30_05h32.33.862,empathy_intonation_perc,2024.1.4,Win32,59.88023952,,,,,,,,,,,,,,94,forro,,,,,,75.2158,76.3803,1,0,0.6354,,0,18,18,93,1,non_cognate,1,REAL,FALSA
,,,,,,,,,66697abfce8185370e15dc8c,001,2024-06-30_05h32.33.862,empathy_intonation_perc,2024.1.4,Win32,59.88023952,,,,,,,,,,,,,,140,chorde,,,,,,76.3817,77.7623,1,0,0.8474,,0,19,19,139,1,pseudoword,0,REAL,FALSA
,,,,,,,,,66697abfce8185370e15dc8c,001,2024-06-30_05h32.33.862,empathy_intonation_perc,2024.1.4,Win32,59.88023952,,,,,,,,,,,,,,18,altar,,,,,,77.7634,78.8116,1,0,0.5155,,0,20,20,17,1,three_way_cognate,1,REAL,FALSA
,,,,,,,,,66697abfce8185370e15dc8c,001,2024-06-30_05h32.33.862,empathy_intonation_perc,2024.1.4,Win32,59.88023952,,,,,,,,,,,,,,149,emén,,,,,,78.813,79.9608,0,1,0.6116,,0,21,21,148,1,pseudoword,0,REAL,FALSA
,,,,,,,,,66697abfce8185370e15dc8c,001,2024-06-30_05h32.33.862,empathy_intonation_perc,2024.1.4,Win32,59.88023952,,,,,,,,,,,,,,51,listo,,,,,,79.9622,81.0596,1,0,0.5625,,0,22,22,50,1,non_cognate,1,REAL,FALSA
,,,,,,,,,66697abfce8185370e15dc8c,001,2024-06-30_05h32.33.862,empathy_intonation_perc,2024.1.4,Win32,59.88023952,,,,,,,,,,,,,,122,boñaz,,,,,,81.0609,82.1754,1,0,0.5809,,0,23,23,121,1,pseudoword,0,REAL,FALSA
,,,,,,,,,66697abfce8185370e15dc8c,001,2024-06-30_05h32.33.862,empathy_intonation_perc,2024.1.4,Win32,59.88023952,,,,,,,,,,,,,,183,edioso,,,,,,82.1762,83.2743,1,0,0.5666,,0,24,24,182,1,pseudoword,0,REAL,FALSA
,,,,,,,,,66697abfce8185370e15dc8c,001,2024-06-30_05h32.33.862,empathy_intonation_perc,2024.1.4,Win32,59.88023952,,,,,,,,,,,,,,60,siglo,,,,,,83.2751,84.4742,0,1,0.6647,,0,25,25,59,1,non_cognate,1,REAL,FALSA
,,,,,,,,,66697abfce8185370e15dc8c,001,2024-06-30_05h32.33.862,empathy_intonation_perc,2024.1.4,Win32,59.88023952,,,,,,,,,,,,,,31,civil,,,,,,84.4759,85.5728,1,0,0.5648,,0,26,26,30,1,two_way_cognate,1,REAL,FALSA
,,,,,,,,,66697abfce8185370e15dc8c,001,2024-06-30_05h32.33.862,empathy_intonation_perc,2024.1.4,Win32,59.88023952,,,,,,,,,,,,,,10,drama,,,,,,85.5742,86.6218,1,0,0.5101,,0,27,27,9,1,three_way_cognate,1,REAL,FALSA
,,,,,,,,,66697abfce8185370e15dc8c,001,2024-06-30_05h32.33.862,empathy_intonation_perc,2024.1.4,Win32,59.88023952,,,,,,,,,,,,,,175,tradía,,,,,,86.623,87.904,1,0,0.7489,,0,28,28,174,1,pseudoword,0,REAL,FALSA
,,,,,,,,,66697abfce8185370e15dc8c,001,2024-06-30_05h32.33.862,empathy_intonation_perc,2024.1.4,Win32,59.88023952,,,,,,,,,,,,,,67,llamar,,,,,,87.9051,89.0531,0,1,0.6111,,0,29,29,66,1,non_cognate,1,REAL,FALSA
,,,,,,,,,66697abfce8185370e15dc8c,001,2024-06-30_05h32.33.862,empathy_intonation_perc,2024.1.4,Win32,59.88023952,,,,,,,,,,,,,,30,fiscal,,,,,,89.0544,90.1213,1,0,0.5371,,0,30,30,29,1,two_way_cognate,1,REAL,FALSA
,,,,,,,,,66697abfce8185370e15dc8c,001,2024-06-30_05h32.33.862,empathy_intonation_perc,2024.1.4,Win32,59.88023952,,,,,,,,,,,,,,15,test,,,,,,90.1227,91.1182,1,0,0.4642,,0,31,31,14,1,three_way_cognate,1,REAL,FALSA
,,,,,,,,,66697abfce8185370e15dc8c,001,2024-06-30_05h32.33.862,empathy_intonation_perc,2024.1.4,Win32,59.88023952,,,,,,,,,,,,,,118,bará,,,,,,91.1194,92.4005,1,0,0.7475,,0,32,32,117,1,pseudoword,0,REAL,FALSA
,,,,,,,,,66697abfce8185370e15dc8c,001,2024-06-30_05h32.33.862,empathy_intonation_perc,2024.1.4,Win32,59.88023952,,,,,,,,,,,,,,27,piano,,,,,,92.4018,93.4995,1,0,0.5632,,0,33,33,26,1,two_way_cognate,1,REAL,FALSA
,,,,,,,,,66697abfce8185370e15dc8c,001,2024-06-30_05h32.33.862,empathy_intonation_perc,2024.1.4,Win32,59.88023952,,,,,,,,,,,,,,63,hilo,,,,,,93.5005,94.7652,1,0,0.7313,,0,34,34,62,1,non_cognate,1,REAL,FALSA
,,,,,,,,,66697abfce8185370e15dc8c,001,2024-06-30_05h32.33.862,empathy_intonation_perc,2024.1.4,Win32,59.88023952,,,,,,,,,,,,,,127,vien,,,,,,94.766,95.8974,1,0,0.5959,,0,35,35,126,1,pseudoword,0,REAL,FALSA
,,,,,,,,,66697abfce8185370e15dc8c,001,2024-06-30_05h32.33.862,empathy_intonation_perc,2024.1.4,Win32,59.88023952,,,,,,,,,,,,,,151,prías,,,,,,95.8986,96.9965,0,1,0.5615,,0,36,36,150,1,pseudoword,0,REAL,FALSA
,,,,,,,,,66697abfce8185370e15dc8c,001,2024-06-30_05h32.33.862,empathy_intonation_perc,2024.1.4,Win32,59.88023952,,,,,,,,,,,,,,88,percha,,,,,,96.9977,98.2456,1,0,0.7108,,0,37,37,87,1,non_cognate,1,REAL,FALSA
,,,,,,,,,66697abfce8185370e15dc8c,001,2024-06-30_05h32.33.862,empathy_intonation_perc,2024.1.4,Win32,59.88023952,,,,,,,,,,,,,,107,plago,,,,,,98.2468,99.4613,0,1,0.6806,,0,38,38,106,1,pseudoword,0,REAL,FALSA
,,,,,,,,,66697abfce8185370e15dc8c,001,2024-06-30_05h32.33.862,empathy_intonation_perc,2024.1.4,Win32,59.88023952,,,,,,,,,,,,,,16,chat,,,,,,99.4625,100.4605,1,0,0.4709,,0,39,39,15,1,three_way_cognate,1,REAL,FALSA
,,,,,,,,,66697abfce8185370e15dc8c,001,2024-06-30_05h32.33.862,empathy_intonation_perc,2024.1.4,Win32,59.88023952,,,,,,,,,,,,,,131,fuar,,,,,,100.4617,101.6765,0,1,0.6809,,0,40,40,130,1,pseudoword,0,REAL,FALSA
,,,,,,,,,66697abfce8185370e15dc8c,001,2024-06-30_05h32.33.862,empathy_intonation_perc,2024.1.4,Win32,59.88023952,,,,,,,,,,,,,,80,cuenco,,,,,,101.6775,103.0582,1,0,0.8463,,0,41,41,79,1,non_cognate,1,REAL,FALSA
,,,,,,,,,66697abfce8185370e15dc8c,001,2024-06-30_05h32.33.862,empathy_intonation_perc,2024.1.4,Win32,59.88023952,,,,,,,,,,,,,,57,regalo,,,,,,103.0593,104.2572,0,1,0.6651,,0,42,42,56,1,non_cognate,1,REAL,FALSA
,,,,,,,,,66697abfce8185370e15dc8c,001,2024-06-30_05h32.33.862,empathy_intonation_perc,2024.1.4,Win32,59.88023952,,,,,,,,,,,,,,164,tecia,,,,,,104.2585,105.4896,0,1,0.698,,0,43,43,163,1,pseudoword,0,REAL,FALSA
,,,,,,,,,66697abfce8185370e15dc8c,001,2024-06-30_05h32.33.862,empathy_intonation_perc,2024.1.4,Win32,59.88023952,,,,,,,,,,,,,,184,huenos,,,,,,105.491,106.4889,1,0,0.4683,,0,44,44,183,1,pseudoword,0,REAL,FALSA
,,,,,,,,,66697abfce8185370e15dc8c,001,2024-06-30_05h32.33.862,empathy_intonation_perc,2024.1.4,Win32,59.88023952,,,,,,,,,,,,,,119,esís,,,,,,106.4902,107.5048,1,0,0.4792,,0,45,45,118,1,pseudoword,0,REAL,FALSA
,,,,,,,,,66697abfce8185370e15dc8c,001,2024-06-30_05h32.33.862,empathy_intonation_perc,2024.1.4,Win32,59.88023952,,,,,,,,,,,,,,13,plan,,,,,,107.5065,108.6365,1,0,0.5973,,0,46,46,12,1,three_way_cognate,1,REAL,FALSA
,,,,,,,,,66697abfce8185370e15dc8c,001,2024-06-30_05h32.33.862,empathy_intonation_perc,2024.1.4,Win32,59.88023952,,,,,,,,,,,,,,71,torta,,,,,,108.6371,109.7028,1,0,0.5281,,0,47,47,70,1,non_cognate,1,REAL,FALSA
,,,,,,,,,66697abfce8185370e15dc8c,001,2024-06-30_05h32.33.862,empathy_intonation_perc,2024.1.4,Win32,59.88023952,,,,,,,,,,,,,,97,nocita,,,,,,109.7039,110.8185,1,0,0.581,,0,48,48,96,1,pseudoword,0,REAL,FALSA
,,,,,,,,,66697abfce8185370e15dc8c,001,2024-06-30_05h32.33.862,empathy_intonation_perc,2024.1.4,Win32,59.88023952,,,,,,,,,,,,,,132,nocó,,,,,,110.8199,111.901,0,1,0.5461,,0,49,49,131,1,pseudoword,0,REAL,FALSA
,,,,,,,,,66697abfce8185370e15dc8c,001,2024-06-30_05h32.33.862,empathy_intonation_perc,2024.1.4,Win32,59.88023952,,,,,,,,,,,,,,129,vinzó,,,,,,111.9021,113.2665,0,1,0.8286,,0,50,50,128,1,pseudoword,0,REAL,FALSA
,,,,,,,,,66697abfce8185370e15dc8c,001,2024-06-30_05h32.33.862,empathy_intonation_perc,2024.1.4,Win32,59.88023952,,,,,,,,,,,,,,72,rostro,,,,,,113.2676,114.5155,1,0,0.7117,,0,51,51,71,1,non_cognate,1,REAL,FALSA
,,,,,,,,,66697abfce8185370e15dc8c,001,2024-06-30_05h32.33.862,empathy_intonation_perc,2024.1.4,Win32,59.88023952,,,,,,,,,,,,,,161,civas,,,,,,114.5165,115.8478,0,1,0.7952,,0,52,52,160,1,pseudoword,0,REAL,FALSA
,,,,,,,,,66697abfce8185370e15dc8c,001,2024-06-30_05h32.33.862,empathy_intonation_perc,2024.1.4,Win32,59.88023952,,,,,,,,,,,,,,39,casual,,,,,,115.8489,116.8636,1,0,0.4771,,0,53,53,38,1,two_way_cognate,1,REAL,FALSA
,,,,,,,,,66697abfce8185370e15dc8c,001,2024-06-30_05h32.33.862,empathy_intonation_perc,2024.1.4,Win32,59.88023952,,,,,,,,,,,,,,115,lidena,,,,,,116.8648,118.0626,0,1,0.6623,,0,54,54,114,1,pseudoword,0,REAL,FALSA
,,,,,,,,,66697abfce8185370e15dc8c,001,2024-06-30_05h32.33.862,empathy_intonation_perc,2024.1.4,Win32,59.88023952,,,,,,,,,,,,,,112,samón,,,,,,118.0638,119.1794,0,1,0.5848,,0,55,55,111,1,pseudoword,0,REAL,FALSA
,,,,,,,,,66697abfce8185370e15dc8c,001,2024-06-30_05h32.33.862,empathy_intonation_perc,2024.1.4,Win32,59.88023952,,,,,,,,,,,,,,54,tapón,,,,,,119.1811,120.3107,0,1,0.5958,,0,56,56,53,1,non_cognate,1,REAL,FALSA
,,,,,,,,,66697abfce8185370e15dc8c,001,2024-06-30_05h32.33.862,empathy_intonation_perc,2024.1.4,Win32,59.88023952,,,,,,,,,,,,,,101,losco,,,,,,120.3119,121.3104,1,0,0.4694,,0,57,57,100,1,pseudoword,0,REAL,FALSA
,,,,,,,,,66697abfce8185370e15dc8c,001,2024-06-30_05h32.33.862,empathy_intonation_perc,2024.1.4,Win32,59.88023952,,,,,,,,,,,,,,59,feo,,,,,,121.3126,122.6588,1,0,0.8104,,0,58,58,58,1,non_cognate,1,REAL,FALSA
,,,,,,,,,66697abfce8185370e15dc8c,001,2024-06-30_05h32.33.862,empathy_intonation_perc,2024.1.4,Win32,59.88023952,,,,,,,,,,,,,,64,rizado,,,,,,122.66,123.9744,0,1,0.7826,,0,59,59,63,1,non_cognate,1,REAL,FALSA
,,,,,,,,,66697abfce8185370e15dc8c,001,2024-06-30_05h32.33.862,empathy_intonation_perc,2024.1.4,Win32,59.88023952,,,,,,,,,,,,,,139,sasos,,,,,,123.9758,125.3732,0,1,0.862,,0,60,60,138,1,pseudoword,0,REAL,FALSA
,,,,,,,,,66697abfce8185370e15dc8c,001,2024-06-30_05h32.33.862,empathy_intonation_perc,2024.1.4,Win32,59.88023952,,,,,,,,,,,,,,56,pico,,,,,,125.3744,126.389,1,0,0.4795,,0,61,61,55,1,non_cognate,1,REAL,FALSA
,,,,,,,,,66697abfce8185370e15dc8c,001,2024-06-30_05h32.33.862,empathy_intonation_perc,2024.1.4,Win32,59.88023952,,,,,,,,,,,,,,53,punta,,,,,,126.3902,127.7379,0,1,0.8127,,0,62,62,52,1,non_cognate,1,REAL,FALSA
,,,,,,,,,66697abfce8185370e15dc8c,001,2024-06-30_05h32.33.862,empathy_intonation_perc,2024.1.4,Win32,59.88023952,,,,,,,,,,,,,,41,pasta,,,,,,127.7392,128.7871,1,0,0.5154,,0,63,63,40,1,two_way_cognate,1,REAL,FALSA
,,,,,,,,,66697abfce8185370e15dc8c,001,2024-06-30_05h32.33.862,empathy_intonation_perc,2024.1.4,Win32,59.88023952,,,,,,,,,,,,,,179,suelet,,,,,,128.7884,129.9533,0,1,0.6319,,0,64,64,178,1,pseudoword,0,REAL,FALSA
,,,,,,,,,66697abfce8185370e15dc8c,001,2024-06-30_05h32.33.862,empathy_intonation_perc,2024.1.4,Win32,59.88023952,,,,,,,,,,,,,,9,portal,,,,,,129.9545,130.9691,1,0,0.4782,,0,65,65,8,1,three_way_cognate,1,REAL,FALSA
,,,,,,,,,66697abfce8185370e15dc8c,001,2024-06-30_05h32.33.862,empathy_intonation_perc,2024.1.4,Win32,59.88023952,,,,,,,,,,,,,,68,puñal,,,,,,130.9702,132.1178,0,1,0.6146,,0,66,66,67,1,non_cognate,1,REAL,FALSA
,,,,,,,,,66697abfce8185370e15dc8c,001,2024-06-30_05h32.33.862,empathy_intonation_perc,2024.1.4,Win32,59.88023952,,,,,,,,,,,,,,82,brillo,,,,,,132.1191,133.117,1,0,0.4682,,0,67,67,81,1,non_cognate,1,REAL,FALSA
,,,,,,,,,66697abfce8185370e15dc8c,001,2024-06-30_05h32.33.862,empathy_intonation_perc,2024.1.4,Win32,59.88023952,,,,,,,,,,,,,,58,colcha,,,,,,133.1184,134.2661,0,1,0.616,,0,68,68,57,1,non_cognate,1,REAL,FALSA
,,,,,,,,,66697abfce8185370e15dc8c,001,2024-06-30_05h32.33.862,empathy_intonation_perc,2024.1.4,Win32,59.88023952,,,,,,,,,,,,,,98,martir,,,,,,134.2674,135.3984,0,1,0.5958,,0,69,69,97,1,pseudoword,0,REAL,FALSA
,,,,,,,,,66697abfce8185370e15dc8c,001,2024-06-30_05h32.33.862,empathy_intonation_perc,2024.1.4,Win32,59.88023952,,,,,,,,,,,,,,66,aleta,,,,,,135.3998,136.5329,0,1,0.6056,,0,70,70,65,1,non_cognate,1,REAL,FALSA
,,,,,,,,,66697abfce8185370e15dc8c,001,2024-06-30_05h32.33.862,empathy_intonation_perc,2024.1.4,Win32,59.88023952,,,,,,,,,,,,,,91,equipo,,,,,,136.5347,137.6302,1,0,0.5636,,0,71,71,90,1,non_cognate,1,REAL,FALSA
,,,,,,,,,66697abfce8185370e15dc8c,001,2024-06-30_05h32.33.862,empathy_intonation_perc,2024.1.4,Win32,59.88023952,,,,,,,,,,,,,,44,editor,,,,,,137.6317,138.7793,1,0,0.6168,,0,72,72,43,1,two_way_cognate,1,REAL,FALSA
,,,,,,,,,66697abfce8185370e15dc8c,001,2024-06-30_05h32.33.862,empathy_intonation_perc,2024.1.4,Win32,59.88023952,,,,,,,,,,,,,,173,mibro,,,,,,138.7807,140.061,0,1,0.7438,,0,73,73,172,1,pseudoword,0,REAL,FALSA
,,,,,,,,,66697abfce8185370e15dc8c,001,2024-06-30_05h32.33.862,empathy_intonation_perc,2024.1.4,Win32,59.88023952,,,,,,,,,,,,,,135,panté,,,,,,140.0615,141.4767,0,1,0.8784,,0,74,74,134,1,pseudoword,0,REAL,FALSA
,,,,,,,,,66697abfce8185370e15dc8c,001,2024-06-30_05h32.33.862,empathy_intonation_perc,2024.1.4,Win32,59.88023952,,,,,,,,,,,,,,142,parre,,,,,,141.4777,142.6257,1,0,0.618,,0,75,75,141,1,pseudoword,0,REAL,FALSA
,,,,,,,,,66697abfce8185370e15dc8c,001,2024-06-30_05h32.33.862,empathy_intonation_perc,2024.1.4,Win32,59.88023952,,,,,,,,,,,,,,106,diebro,,,,,,142.6268,143.9914,0,1,0.834,,0,76,76,105,1,pseudoword,0,REAL,FALSA
,,,,,,,,,66697abfce8185370e15dc8c,001,2024-06-30_05h32.33.862,empathy_intonation_perc,2024.1.4,Win32,59.88023952,,,,,,,,,,,,,,182,desaro,,,,,,143.9928,145.174,1,0,0.6467,,0,77,77,181,1,pseudoword,0,REAL,FALSA
,,,,,,,,,66697abfce8185370e15dc8c,001,2024-06-30_05h32.33.862,empathy_intonation_perc,2024.1.4,Win32,59.88023952,,,,,,,,,,,,,,150,cricó,,,,,,145.1753,146.323,0,1,0.6135,,0,78,78,149,1,pseudoword,0,REAL,FALSA
,,,,,,,,,66697abfce8185370e15dc8c,001,2024-06-30_05h32.33.862,empathy_intonation_perc,2024.1.4,Win32,59.88023952,,,,,,,,,,,,,,111,monue,,,,,,146.3242,147.6387,1,0,0.7803,,0,79,79,110,1,pseudoword,0,REAL,FALSA
,,,,,,,,,66697abfce8185370e15dc8c,001,2024-06-30_05h32.33.862,empathy_intonation_perc,2024.1.4,Win32,59.88023952,,,,,,,,,,,,,,65,guerra,,,,,,147.64,148.9039,1,0,0.7331,,0,80,80,64,1,non_cognate,1,REAL,FALSA
,,,,,,,,,66697abfce8185370e15dc8c,001,2024-06-30_05h32.33.862,empathy_intonation_perc,2024.1.4,Win32,59.88023952,,,,,,,,,,,,,,61,aduana,,,,,,148.905,149.6204,0,1,0.1813,,0,81,81,60,1,non_cognate,1,REAL,FALSA
,,,,,,,,,66697abfce8185370e15dc8c,001,2024-06-30_05h32.33.862,empathy_intonation_perc,2024.1.4,Win32,59.88023952,,,,,,,,,,,,,,162,cengo,,,,,,149.6218,151.0524,1,0,0.8957,,0,82,82,161,1,pseudoword,0,REAL,FALSA
,,,,,,,,,66697abfce8185370e15dc8c,001,2024-06-30_05h32.33.862,empathy_intonation_perc,2024.1.4,Win32,59.88023952,,,,,,,,,,,,,,171,gotro,,,,,,151.0539,152.2016,0,1,0.613,,0,83,83,170,1,pseudoword,0,REAL,FALSA
,,,,,,,,,66697abfce8185370e15dc8c,001,2024-06-30_05h32.33.862,empathy_intonation_perc,2024.1.4,Win32,59.88023952,,,,,,,,,,,,,,181,gravés,,,,,,152.203,153.301,1,0,0.5659,,0,84,84,180,1,pseudoword,0,REAL,FALSA
,,,,,,,,,66697abfce8185370e15dc8c,001,2024-06-30_05h32.33.862,empathy_intonation_perc,2024.1.4,Win32,59.88023952,,,,,,,,,,,,,,191,frasis,,,,,,153.302,154.5995,1,0,0.7631,,0,85,85,190,1,pseudoword,0,REAL,FALSA
,,,,,,,,,66697abfce8185370e15dc8c,001,2024-06-30_05h32.33.862,empathy_intonation_perc,2024.1.4,Win32,59.88023952,,,,,,,,,,,,,,177,entodo,,,,,,154.6009,155.732,0,1,0.5977,,0,86,86,176,1,pseudoword,0,REAL,FALSA
,,,,,,,,,66697abfce8185370e15dc8c,001,2024-06-30_05h32.33.862,empathy_intonation_perc,2024.1.4,Win32,59.88023952,,,,,,,,,,,,,,144,diroco,,,,,,155.7333,156.9142,0,1,0.6474,,0,87,87,143,1,pseudoword,0,REAL,FALSA
,,,,,,,,,66697abfce8185370e15dc8c,001,2024-06-30_05h32.33.862,empathy_intonation_perc,2024.1.4,Win32,59.88023952,,,,,,,,,,,,,,3,disco,,,,,,156.9154,158.0298,1,0,0.5822,,0,88,88,2,1,three_way_cognate,1,REAL,FALSA
,,,,,,,,,66697abfce8185370e15dc8c,001,2024-06-30_05h32.33.862,empathy_intonation_perc,2024.1.4,Win32,59.88023952,,,,,,,,,,,,,,168,cobén,,,,,,158.0312,159.1458,0,1,0.5831,,0,89,89,167,1,pseudoword,0,REAL,FALSA
,,,,,,,,,66697abfce8185370e15dc8c,001,2024-06-30_05h32.33.862,empathy_intonation_perc,2024.1.4,Win32,59.88023952,,,,,,,,,,,,,,55,maldad,,,,,,159.1469,160.3449,0,1,0.665,,0,90,90,54,1,non_cognate,1,REAL,FALSA
,,,,,,,,,66697abfce8185370e15dc8c,001,2024-06-30_05h32.33.862,empathy_intonation_perc,2024.1.4,Win32,59.88023952,,,,,,,,,,,,,,159,trcia,,,,,,160.3461,161.4765,0,1,0.5917,,0,91,91,158,1,pseudoword,0,REAL,FALSA
,,,,,,,,,66697abfce8185370e15dc8c,001,2024-06-30_05h32.33.862,empathy_intonation_perc,2024.1.4,Win32,59.88023952,,,,,,,,,,,,,,2,tumor,,,,,,161.4769,162.5262,1,0,0.5192,,0,92,92,1,1,three_way_cognate,1,REAL,FALSA
,,,,,,,,,66697abfce8185370e15dc8c,001,2024-06-30_05h32.33.862,empathy_intonation_perc,2024.1.4,Win32,59.88023952,,,,,,,,,,,,,,20,trauma,,,,,,162.5274,163.6754,1,0,0.6117,,0,93,93,19,1,three_way_cognate,1,REAL,FALSA
,,,,,,,,,66697abfce8185370e15dc8c,001,2024-06-30_05h32.33.862,empathy_intonation_perc,2024.1.4,Win32,59.88023952,,,,,,,,,,,,,,85,enorme,,,,,,163.6767,164.6913,0,1,0.4815,,0,94,94,84,1,non_cognate,1,REAL,FALSA
,,,,,,,,,66697abfce8185370e15dc8c,001,2024-06-30_05h32.33.862,empathy_intonation_perc,2024.1.4,Win32,59.88023952,,,,,,,,,,,,,,138,tator,,,,,,164.6924,165.8736,0,1,0.6479,,0,95,95,137,1,pseudoword,0,REAL,FALSA
,,,,,,,,,66697abfce8185370e15dc8c,001,2024-06-30_05h32.33.862,empathy_intonation_perc,2024.1.4,Win32,59.88023952,,,,,,,,,,,,,,12,dogma,,,,,,165.8753,167.0888,0,1,0.6771,,0,96,96,11,1,three_way_cognate,1,REAL,FALSA
,,,,,,,,,66697abfce8185370e15dc8c,001,2024-06-30_05h32.33.862,empathy_intonation_perc,2024.1.4,Win32,59.88023952,,,,,,,,,,,,,,76,chocar,,,,,,167.0894,168.2218,0,1,0.597,,0,97,97,75,1,non_cognate,1,REAL,FALSA
,,,,,,,,,66697abfce8185370e15dc8c,001,2024-06-30_05h32.33.862,empathy_intonation_perc,2024.1.4,Win32,59.88023952,,,,,,,,,,,,,,148,gino,,,,,,168.2233,169.3712,1,0,0.6117,,0,98,98,147,1,pseudoword,0,REAL,FALSA
,,,,,,,,,66697abfce8185370e15dc8c,001,2024-06-30_05h32.33.862,empathy_intonation_perc,2024.1.4,Win32,59.88023952,,,,,,,,,,,,,,113,nasce,,,,,,169.3725,170.4546,0,1,0.553,,0,99,99,112,1,pseudoword,0,REAL,FALSA
,,,,,,,,,66697abfce8185370e15dc8c,001,2024-06-30_05h32.33.862,empathy_intonation_perc,2024.1.4,Win32,59.88023952,,,,,,,,,,,,,,124,lobe,,,,,,170.4557,171.6356,0,1,0.6456,,0,100,100,123,1,pseudoword,0,REAL,FALSA
,,,,,,,,,66697abfce8185370e15dc8c,001,2024-06-30_05h32.33.862,empathy_intonation_perc,2024.1.4,Win32,59.88023952,,,,,,,,,,,,,,189,medium,,,,,,171.6369,172.6517,1,0,0.4854,,0,101,101,188,1,pseudoword,0,REAL,FALSA
,,,,,,,,,66697abfce8185370e15dc8c,001,2024-06-30_05h32.33.862,empathy_intonation_perc,2024.1.4,Win32,59.88023952,,,,,,,,,,,,,,90,venado,,,,,,172.6536,174.0008,0,1,0.8119,,0,102,102,89,1,non_cognate,1,REAL,FALSA
,,,,,,,,,66697abfce8185370e15dc8c,001,2024-06-30_05h32.33.862,empathy_intonation_perc,2024.1.4,Win32,59.88023952,,,,,,,,,,,,,,166,anfia,,,,,,174.002,175.116,0,1,0.5782,,0,103,103,165,1,pseudoword,0,REAL,FALSA
,,,,,,,,,66697abfce8185370e15dc8c,001,2024-06-30_05h32.33.862,empathy_intonation_perc,2024.1.4,Win32,59.88023952,,,,,,,,,,,,,,133,conso,,,,,,175.1173,176.3483,1,0,0.7004,,0,104,104,132,1,pseudoword,0,REAL,FALSA
,,,,,,,,,66697abfce8185370e15dc8c,001,2024-06-30_05h32.33.862,empathy_intonation_perc,2024.1.4,Win32,59.88023952,,,,,,,,,,,,,,35,aurora,,,,,,176.3497,177.5474,1,0,0.6605,,0,105,105,34,1,two_way_cognate,1,REAL,FALSA
,,,,,,,,,66697abfce8185370e15dc8c,001,2024-06-30_05h32.33.862,empathy_intonation_perc,2024.1.4,Win32,59.88023952,,,,,,,,,,,,,,78,rendir,,,,,,177.5489,178.6465,0,1,0.5618,,0,106,106,77,1,non_cognate,1,REAL,FALSA
,,,,,,,,,66697abfce8185370e15dc8c,001,2024-06-30_05h32.33.862,empathy_intonation_perc,2024.1.4,Win32,59.88023952,,,,,,,,,,,,,,84,aviso,,,,,,178.6474,179.912,0,1,0.7291,,0,107,107,83,1,non_cognate,1,REAL,FALSA
,,,,,,,,,66697abfce8185370e15dc8c,001,2024-06-30_05h32.33.862,empathy_intonation_perc,2024.1.4,Win32,59.88023952,,,,,,,,,,,,,,99,bugor,,,,,,179.9131,181.0444,1,0,0.5969,,0,108,108,98,1,pseudoword,0,REAL,FALSA
,,,,,,,,,66697abfce8185370e15dc8c,001,2024-06-30_05h32.33.862,empathy_intonation_perc,2024.1.4,Win32,59.88023952,,,,,,,,,,,,,,93,tapa,,,,,,181.0453,182.2265,0,1,0.6455,,0,109,109,92,1,non_cognate,1,REAL,FALSA
,,,,,,,,,66697abfce8185370e15dc8c,001,2024-06-30_05h32.33.862,empathy_intonation_perc,2024.1.4,Win32,59.88023952,,,,,,,,,,,,,,104,estulo,,,,,,182.2277,183.6591,1,0,0.8939,,0,110,110,103,1,pseudoword,0,REAL,FALSA
,,,,,,,,,66697abfce8185370e15dc8c,001,2024-06-30_05h32.33.862,empathy_intonation_perc,2024.1.4,Win32,59.88023952,,,,,,,,,,,,,,43,honor,,,,,,183.66,184.7582,1,0,0.5605,,0,111,111,42,1,two_way_cognate,1,REAL,FALSA
,,,,,,,,,66697abfce8185370e15dc8c,001,2024-06-30_05h32.33.862,empathy_intonation_perc,2024.1.4,Win32,59.88023952,,,,,,,,,,,,,,103,vueras,,,,,,184.7596,185.9238,1,0,0.6287,,0,112,112,102,1,pseudoword,0,REAL,FALSA
,,,,,,,,,66697abfce8185370e15dc8c,001,2024-06-30_05h32.33.862,empathy_intonation_perc,2024.1.4,Win32,59.88023952,,,,,,,,,,,,,,96,caro,,,,,,185.9251,187.0396,1,0,0.5779,,0,113,113,95,1,non_cognate,1,REAL,FALSA
,,,,,,,,,66697abfce8185370e15dc8c,001,2024-06-30_05h32.33.862,empathy_intonation_perc,2024.1.4,Win32,59.88023952,,,,,,,,,,,,,,152,prave,,,,,,187.0409,188.2553,0,1,0.678,,0,114,114,151,1,pseudoword,0,REAL,FALSA
,,,,,,,,,66697abfce8185370e15dc8c,001,2024-06-30_05h32.33.862,empathy_intonation_perc,2024.1.4,Win32,59.88023952,,,,,,,,,,,,,,22,mango,,,,,,188.2567,189.3377,1,0,0.5459,,0,115,115,21,1,three_way_cognate,1,REAL,FALSA
,,,,,,,,,66697abfce8185370e15dc8c,001,2024-06-30_05h32.33.862,empathy_intonation_perc,2024.1.4,Win32,59.88023952,,,,,,,,,,,,,,62,pegar,,,,,,189.3391,190.4367,0,1,0.5681,,0,116,116,61,1,non_cognate,1,REAL,FALSA
,,,,,,,,,66697abfce8185370e15dc8c,001,2024-06-30_05h32.33.862,empathy_intonation_perc,2024.1.4,Win32,59.88023952,,,,,,,,,,,,,,29,clamor,,,,,,190.438,191.5359,0,1,0.563,,0,117,117,28,1,two_way_cognate,1,REAL,FALSA
,,,,,,,,,66697abfce8185370e15dc8c,001,2024-06-30_05h32.33.862,empathy_intonation_perc,2024.1.4,Win32,59.88023952,,,,,,,,,,,,,,105,leniz,,,,,,191.5374,192.5519,0,1,0.4775,,0,118,118,104,1,pseudoword,0,REAL,FALSA
,,,,,,,,,66697abfce8185370e15dc8c,001,2024-06-30_05h32.33.862,empathy_intonation_perc,2024.1.4,Win32,59.88023952,,,,,,,,,,,,,,95,listo,,,,,,192.5531,193.5509,1,0,0.462,,0,119,119,94,1,non_cognate,1,REAL,FALSA
,,,,,,,,,66697abfce8185370e15dc8c,001,2024-06-30_05h32.33.862,empathy_intonation_perc,2024.1.4,Win32,59.88023952,,,,,,,,,,,,,,114,dibrea,,,,,,193.552,194.5667,0,1,0.4796,,0,120,120,113,1,pseudoword,0,REAL,FALSA
,,,,,,,,,66697abfce8185370e15dc8c,001,2024-06-30_05h32.33.862,empathy_intonation_perc,2024.1.4,Win32,59.88023952,,,,,,,,,,,,,,7,albino,,,,,,194.568,195.7493,1,0,0.6457,,0,121,121,6,1,three_way_cognate,1,REAL,FALSA
,,,,,,,,,66697abfce8185370e15dc8c,001,2024-06-30_05h32.33.862,empathy_intonation_perc,2024.1.4,Win32,59.88023952,,,,,,,,,,,,,,73,llevar,,,,,,195.7506,196.8985,0,1,0.6117,,0,122,122,72,1,non_cognate,1,REAL,FALSA
,,,,,,,,,66697abfce8185370e15dc8c,001,2024-06-30_05h32.33.862,empathy_intonation_perc,2024.1.4,Win32,59.88023952,,,,,,,,,,,,,,157,seled,,,,,,196.8996,198.014,0,1,0.5786,,0,123,123,156,1,pseudoword,0,REAL,FALSA
,,,,,,,,,66697abfce8185370e15dc8c,001,2024-06-30_05h32.33.862,empathy_intonation_perc,2024.1.4,Win32,59.88023952,,,,,,,,,,,,,,48,pelvis,,,,,,198.0152,199.2462,1,0,0.696,,0,124,124,47,1,two_way_cognate,1,REAL,FALSA
,,,,,,,,,66697abfce8185370e15dc8c,001,2024-06-30_05h32.33.862,empathy_intonation_perc,2024.1.4,Win32,59.88023952,,,,,,,,,,,,,,134,molor,,,,,,199.2476,200.4619,0,1,0.6816,,0,125,125,133,1,pseudoword,0,REAL,FALSA
,,,,,,,,,66697abfce8185370e15dc8c,001,2024-06-30_05h32.33.862,empathy_intonation_perc,2024.1.4,Win32,59.88023952,,,,,,,,,,,,,,121,barbs,,,,,,200.4633,201.611,1,0,0.6138,,0,126,126,120,1,pseudoword,0,REAL,FALSA
,,,,,,,,,66697abfce8185370e15dc8c,001,2024-06-30_05h32.33.862,empathy_intonation_perc,2024.1.4,Win32,59.88023952,,,,,,,,,,,,,,74,ala,,,,,,201.6123,202.6767,1,0,0.5307,,0,127,127,73,1,non_cognate,1,REAL,FALSA
,,,,,,,,,66697abfce8185370e15dc8c,001,2024-06-30_05h32.33.862,empathy_intonation_perc,2024.1.4,Win32,59.88023952,,,,,,,,,,,,,,32,animal,,,,,,202.6781,203.7934,1,0,0.5795,,0,128,128,31,1,two_way_cognate,1,REAL,FALSA
,,,,,,,,,66697abfce8185370e15dc8c,001,2024-06-30_05h32.33.862,empathy_intonation_perc,2024.1.4,Win32,59.88023952,,,,,,,,,,,,,,137,trugo,,,,,,203.7947,205.0922,0,1,0.7628,,0,129,129,136,1,pseudoword,0,REAL,FALSA
,,,,,,,,,66697abfce8185370e15dc8c,001,2024-06-30_05h32.33.862,empathy_intonation_perc,2024.1.4,Win32,59.88023952,,,,,,,,,,,,,,77,suave,,,,,,205.0934,206.2904,1,0,0.6597,,0,130,130,76,1,non_cognate,1,REAL,FALSA
,,,,,,,,,66697abfce8185370e15dc8c,001,2024-06-30_05h32.33.862,empathy_intonation_perc,2024.1.4,Win32,59.88023952,,,,,,,,,,,,,,8,kilo,,,,,,206.2917,207.373,1,0,0.5453,,0,131,131,7,1,three_way_cognate,1,REAL,FALSA
,,,,,,,,,66697abfce8185370e15dc8c,001,2024-06-30_05h32.33.862,empathy_intonation_perc,2024.1.4,Win32,59.88023952,,,,,,,,,,,,,,190,asumie,,,,,,207.3744,208.5219,0,1,0.6127,,0,132,132,189,1,pseudoword,0,REAL,FALSA
,,,,,,,,,66697abfce8185370e15dc8c,001,2024-06-30_05h32.33.862,empathy_intonation_perc,2024.1.4,Win32,59.88023952,,,,,,,,,,,,,,176,gripar,,,,,,208.5234,209.8712,1,0,0.8116,,0,133,133,175,1,pseudoword,0,REAL,FALSA
,,,,,,,,,66697abfce8185370e15dc8c,001,2024-06-30_05h32.33.862,empathy_intonation_perc,2024.1.4,Win32,59.88023952,,,,,,,,,,,,,,46,mortal,,,,,,209.8727,210.8701,1,0,0.4631,,0,134,134,45,1,two_way_cognate,1,REAL,FALSA
,,,,,,,,,66697abfce8185370e15dc8c,001,2024-06-30_05h32.33.862,empathy_intonation_perc,2024.1.4,Win32,59.88023952,,,,,,,,,,,,,,186,rizate,,,,,,210.8714,211.9358,0,1,0.5267,,0,135,135,185,1,pseudoword,0,REAL,FALSA
,,,,,,,,,66697abfce8185370e15dc8c,001,2024-06-30_05h32.33.862,empathy_intonation_perc,2024.1.4,Win32,59.88023952,,,,,,,,,,,,,,87,muleta,,,,,,211.9372,213.1351,0,1,0.6652,,0,136,136,86,1,non_cognate,1,REAL,FALSA
,,,,,,,,,66697abfce8185370e15dc8c,001,2024-06-30_05h32.33.862,empathy_intonation_perc,2024.1.4,Win32,59.88023952,,,,,,,,,,,,,,187,nomata,,,,,,213.1363,214.3506,0,1,0.6856,,0,137,137,186,1,pseudoword,0,REAL,FALSA
,,,,,,,,,66697abfce8185370e15dc8c,001,2024-06-30_05h32.33.862,empathy_intonation_perc,2024.1.4,Win32,59.88023952,,,,,,,,,,,,,,126,tobre,,,,,,214.3523,215.3997,1,0,0.5134,,0,138,138,125,1,pseudoword,0,REAL,FALSA
,,,,,,,,,66697abfce8185370e15dc8c,001,2024-06-30_05h32.33.862,empathy_intonation_perc,2024.1.4,Win32,59.88023952,,,,,,,,,,,,,,156,ozoso,,,,,,215.4011,216.6155,0,1,0.683,,0,139,139,155,1,pseudoword,0,REAL,FALSA
,,,,,,,,,66697abfce8185370e15dc8c,001,2024-06-30_05h32.33.862,empathy_intonation_perc,2024.1.4,Win32,59.88023952,,,,,,,,,,,,,,125,ceme,,,,,,216.617,217.5977,1,0,0.4446,,0,140,140,124,1,pseudoword,0,REAL,FALSA
,,,,,,,,,66697abfce8185370e15dc8c,001,2024-06-30_05h32.33.862,empathy_intonation_perc,2024.1.4,Win32,59.88023952,,,,,,,,,,,,,,123,arane,,,,,,217.5991,219.0133,0,1,0.8782,,0,141,141,122,1,pseudoword,0,REAL,FALSA
,,,,,,,,,66697abfce8185370e15dc8c,001,2024-06-30_05h32.33.862,empathy_intonation_perc,2024.1.4,Win32,59.88023952,,,,,,,,,,,,,,47,color,,,,,,219.0147,220.112,1,0,0.5607,,0,142,142,46,1,two_way_cognate,1,REAL,FALSA
,,,,,,,,,66697abfce8185370e15dc8c,001,2024-06-30_05h32.33.862,empathy_intonation_perc,2024.1.4,Win32,59.88023952,,,,,,,,,,,,,,24,retina,,,,,,220.1128,221.3114,1,0,0.6617,,0,143,143,23,1,three_way_cognate,1,REAL,FALSA
,,,,,,,,,66697abfce8185370e15dc8c,001,2024-06-30_05h32.33.862,empathy_intonation_perc,2024.1.4,Win32,59.88023952,,,,,,,,,,,,,,45,total,,,,,,221.3128,222.311,1,0,0.4638,,0,144,144,44,1,two_way_cognate,1,REAL,FALSA
,,,,,,,,,66697abfce8185370e15dc8c,001,2024-06-30_05h32.33.862,empathy_intonation_perc,2024.1.4,Win32,59.88023952,,,,,,,,,,,,,,185,aljizo,,,,,,222.312,223.4761,0,1,0.6304,,0,145,145,184,1,pseudoword,0,REAL,FALSA
,,,,,,,,,66697abfce8185370e15dc8c,001,2024-06-30_05h32.33.862,empathy_intonation_perc,2024.1.4,Win32,59.88023952,,,,,,,,,,,,,,21,hotel,,,,,,223.4773,224.426,1,0,0.4155,,0,146,146,20,1,three_way_cognate,1,REAL,FALSA
,,,,,,,,,66697abfce8185370e15dc8c,001,2024-06-30_05h32.33.862,empathy_intonation_perc,2024.1.4,Win32,59.88023952,,,,,,,,,,,,,,81,sacar,,,,,,224.4273,225.5916,0,1,0.6365,,0,147,147,80,1,non_cognate,1,REAL,FALSA
,,,,,,,,,66697abfce8185370e15dc8c,001,2024-06-30_05h32.33.862,empathy_intonation_perc,2024.1.4,Win32,59.88023952,,,,,,,,,,,,,,49,teñir,,,,,,225.5928,226.7736,0,1,0.6475,,0,148,148,48,1,non_cognate,1,REAL,FALSA
,,,,,,,,,66697abfce8185370e15dc8c,001,2024-06-30_05h32.33.862,empathy_intonation_perc,2024.1.4,Win32,59.88023952,,,,,,,,,,,,,,37,torso,,,,,,226.7746,228.0892,1,0,0.7791,,0,149,149,36,1,two_way_cognate,1,REAL,FALSA
,,,,,,,,,66697abfce8185370e15dc8c,001,2024-06-30_05h32.33.862,empathy_intonation_perc,2024.1.4,Win32,59.88023952,,,,,,,,,,,,,,174,pabea,,,,,,228.0906,229.6401,0,1,1.0189,,0,150,150,173,1,pseudoword,0,REAL,FALSA
,,,,,,,,,66697abfce8185370e15dc8c,001,2024-06-30_05h32.33.862,empathy_intonation_perc,2024.1.4,Win32,59.88023952,,,,,,,,,,,,,,163,olzan,,,,,,229.6416,230.7204,0,1,0.5451,,0,151,151,162,1,pseudoword,0,REAL,FALSA
,,,,,,,,,66697abfce8185370e15dc8c,001,2024-06-30_05h32.33.862,empathy_intonation_perc,2024.1.4,Win32,59.88023952,,,,,,,,,,,,,,25,vigor,,,,,,230.7219,231.9372,1,0,0.6866,,0,152,152,24,1,two_way_cognate,1,REAL,FALSA
,,,,,,,,,66697abfce8185370e15dc8c,001,2024-06-30_05h32.33.862,empathy_intonation_perc,2024.1.4,Win32,59.88023952,,,,,,,,,,,,,,69,tiza,,,,,,231.9385,233.1021,0,1,0.6281,,0,153,153,68,1,non_cognate,1,REAL,FALSA
,,,,,,,,,66697abfce8185370e15dc8c,001,2024-06-30_05h32.33.862,empathy_intonation_perc,2024.1.4,Win32,59.88023952,,,,,,,,,,,,,,117,morrá,,,,,,233.1032,234.4516,0,1,0.8166,,0,154,154,116,1,pseudoword,0,REAL,FALSA
,,,,,,,,,66697abfce8185370e15dc8c,001,2024-06-30_05h32.33.862,empathy_intonation_perc,2024.1.4,Win32,59.88023952,,,,,,,,,,,,,,40,pelvis,,,,,,234.453,235.6665,1,0,0.6792,,0,155,155,39,1,two_way_cognate,1,REAL,FALSA
,,,,,,,,,66697abfce8185370e15dc8c,001,2024-06-30_05h32.33.862,empathy_intonation_perc,2024.1.4,Win32,59.88023952,,,,,,,,,,,,,,4,flora,,,,,,235.6678,236.8319,1,0,0.6306,,0,156,156,3,1,three_way_cognate,1,REAL,FALSA
,,,,,,,,,66697abfce8185370e15dc8c,001,2024-06-30_05h32.33.862,empathy_intonation_perc,2024.1.4,Win32,59.88023952,,,,,,,,,,,,,,128,pelí,,,,,,236.8332,237.8646,0,1,0.4953,,0,157,157,127,1,pseudoword,0,REAL,FALSA
,,,,,,,,,66697abfce8185370e15dc8c,001,2024-06-30_05h32.33.862,empathy_intonation_perc,2024.1.4,Win32,59.88023952,,,,,,,,,,,,,,26,enigma,,,,,,237.8659,238.9804,1,0,0.5779,,0,158,158,25,1,two_way_cognate,1,REAL,FALSA
,,,,,,,,,66697abfce8185370e15dc8c,001,2024-06-30_05h32.33.862,empathy_intonation_perc,2024.1.4,Win32,59.88023952,,,,,,,,,,,,,,36,viable,,,,,,238.9818,240.1621,1,0,0.6444,,0,159,159,35,1,two_way_cognate,1,REAL,FALSA
,,,,,,,,,66697abfce8185370e15dc8c,001,2024-06-30_05h32.33.862,empathy_intonation_perc,2024.1.4,Win32,59.88023952,,,,,,,,,,,,,,5,extra,,,,,,240.1628,241.2615,1,0,0.5672,,0,160,160,4,1,three_way_cognate,1,REAL,FALSA
,,,,,,,,,66697abfce8185370e15dc8c,001,2024-06-30_05h32.33.862,empathy_intonation_perc,2024.1.4,Win32,59.88023952,,,,,,,,,,,,,,79,suelo,,,,,,241.2626,242.3943,0,1,0.5967,,0,161,161,78,1,non_cognate,1,REAL,FALSA
,,,,,,,,,66697abfce8185370e15dc8c,001,2024-06-30_05h32.33.862,empathy_intonation_perc,2024.1.4,Win32,59.88023952,,,,,,,,,,,,,,6,horror,,,,,,242.3953,243.4436,1,0,0.5183,,0,162,162,5,1,three_way_cognate,1,REAL,FALSA
,,,,,,,,,66697abfce8185370e15dc8c,001,2024-06-30_05h32.33.862,empathy_intonation_perc,2024.1.4,Win32,59.88023952,,,,,,,,,,,,,,145,rúo,,,,,,243.445,244.5115,0,1,0.5378,,0,163,163,144,1,pseudoword,0,REAL,FALSA
,,,,,,,,,66697abfce8185370e15dc8c,001,2024-06-30_05h32.33.862,empathy_intonation_perc,2024.1.4,Win32,59.88023952,,,,,,,,,,,,,,50,sierra,,,,,,244.5134,245.7082,1,0,0.6632,,0,164,164,49,1,non_cognate,1,REAL,FALSA
,,,,,,,,,66697abfce8185370e15dc8c,001,2024-06-30_05h32.33.862,empathy_intonation_perc,2024.1.4,Win32,59.88023952,,,,,,,,,,,,,,172,dogue,,,,,,245.7094,247.007,1,0,0.7674,,0,165,165,171,1,pseudoword,0,REAL,FALSA
,,,,,,,,,66697abfce8185370e15dc8c,001,2024-06-30_05h32.33.862,empathy_intonation_perc,2024.1.4,Win32,59.88023952,,,,,,,,,,,,,,102,coyo,,,,,,247.0084,248.0393,0,1,0.4956,,0,166,166,101,1,pseudoword,0,REAL,FALSA
,,,,,,,,,66697abfce8185370e15dc8c,001,2024-06-30_05h32.33.862,empathy_intonation_perc,2024.1.4,Win32,59.88023952,,,,,,,,,,,,,,86,cuenco,,,,,,248.0408,248.9554,1,0,0.3803,,0,167,167,85,1,non_cognate,1,REAL,FALSA
,,,,,,,,,66697abfce8185370e15dc8c,001,2024-06-30_05h32.33.862,empathy_intonation_perc,2024.1.4,Win32,59.88023952,,,,,,,,,,,,,,178,inichó,,,,,,248.9569,250.0711,0,1,0.5801,,0,168,168,177,1,pseudoword,0,REAL,FALSA
,,,,,,,,,66697abfce8185370e15dc8c,001,2024-06-30_05h32.33.862,empathy_intonation_perc,2024.1.4,Win32,59.88023952,,,,,,,,,,,,,,116,grigir,,,,,,250.0723,251.1535,0,1,0.5465,,0,169,169,115,1,pseudoword,0,REAL,FALSA
,,,,,,,,,66697abfce8185370e15dc8c,001,2024-06-30_05h32.33.862,empathy_intonation_perc,2024.1.4,Win32,59.88023952,,,,,,,,,,,,,,52,blando,,,,,,251.1548,252.3033,1,0,0.6133,,0,170,170,51,1,non_cognate,1,REAL,FALSA
,,,,,,,,,66697abfce8185370e15dc8c,001,2024-06-30_05h32.33.862,empathy_intonation_perc,2024.1.4,Win32,59.88023952,,,,,,,,,,,,,,170,diabo,,,,,,252.3054,253.6183,0,1,0.7784,,0,171,171,169,1,pseudoword,0,REAL,FALSA
,,,,,,,,,66697abfce8185370e15dc8c,001,2024-06-30_05h32.33.862,empathy_intonation_perc,2024.1.4,Win32,59.88023952,,,,,,,,,,,,,,34,actor,,,,,,253.6196,254.7174,1,0,0.5662,,0,172,172,33,1,two_way_cognate,1,REAL,FALSA
,,,,,,,,,66697abfce8185370e15dc8c,001,2024-06-30_05h32.33.862,empathy_intonation_perc,2024.1.4,Win32,59.88023952,,,,,,,,,,,,,,92,flecha,,,,,,254.7188,255.8499,0,1,0.5959,,0,173,173,91,1,non_cognate,1,REAL,FALSA
,,,,,,,,,66697abfce8185370e15dc8c,001,2024-06-30_05h32.33.862,empathy_intonation_perc,2024.1.4,Win32,59.88023952,,,,,,,,,,,,,,180,pupica,,,,,,255.8519,257.0499,0,1,0.6696,,0,174,174,179,1,pseudoword,0,REAL,FALSA
,,,,,,,,,66697abfce8185370e15dc8c,001,2024-06-30_05h32.33.862,empathy_intonation_perc,2024.1.4,Win32,59.88023952,,,,,,,,,,,,,,160,fomeó,,,,,,257.0522,258.2144,0,1,0.6296,,0,175,175,159,1,pseudoword,0,REAL,FALSA
,,,,,,,,,66697abfce8185370e15dc8c,001,2024-06-30_05h32.33.862,empathy_intonation_perc,2024.1.4,Win32,59.88023952,,,,,,,,,,,,,,153,golla,,,,,,258.2155,259.4641,0,1,0.7186,,0,176,176,152,1,pseudoword,0,REAL,FALSA
,,,,,,,,,66697abfce8185370e15dc8c,001,2024-06-30_05h32.33.862,empathy_intonation_perc,2024.1.4,Win32,59.88023952,,,,,,,,,,,,,,75,patada,,,,,,259.4654,260.5293,0,1,0.5293,,0,177,177,74,1,non_cognate,1,REAL,FALSA
,,,,,,,,,66697abfce8185370e15dc8c,001,2024-06-30_05h32.33.862,empathy_intonation_perc,2024.1.4,Win32,59.88023952,,,,,,,,,,,,,,70,ánimo,,,,,,260.5306,261.6449,0,1,0.578,,0,178,178,69,1,non_cognate,1,REAL,FALSA
,,,,,,,,,66697abfce8185370e15dc8c,001,2024-06-30_05h32.33.862,empathy_intonation_perc,2024.1.4,Win32,59.88023952,,,,,,,,,,,,,,188,amplir,,,,,,261.6462,262.7774,0,1,0.5961,,0,179,179,187,1,pseudoword,0,REAL,FALSA
,,,,,,,,,66697abfce8185370e15dc8c,001,2024-06-30_05h32.33.862,empathy_intonation_perc,2024.1.4,Win32,59.88023952,,,,,,,,,,,,,,143,hurcos,,,,,,262.7786,263.7768,1,0,0.4665,,0,180,180,142,1,pseudoword,0,REAL,FALSA
,,,,,,,,,66697abfce8185370e15dc8c,001,2024-06-30_05h32.33.862,empathy_intonation_perc,2024.1.4,Win32,59.88023952,,,,,,,,,,,,,,158,babrá,,,,,,263.7779,264.8757,0,1,0.5685,,0,181,181,157,1,pseudoword,0,REAL,FALSA
,,,,,,,,,66697abfce8185370e15dc8c,001,2024-06-30_05h32.33.862,empathy_intonation_perc,2024.1.4,Win32,59.88023952,,,,,,,,,,,,,,120,mauja,,,,,,264.877,266.2245,0,1,0.8117,,0,182,182,119,1,pseudoword,0,REAL,FALSA
,,,,,,,,,66697abfce8185370e15dc8c,001,2024-06-30_05h32.33.862,empathy_intonation_perc,2024.1.4,Win32,59.88023952,,,,,,,,,,,,,,110,densó,,,,,,266.2259,267.2737,0,1,0.5162,,0,183,183,109,1,pseudoword,0,REAL,FALSA
,,,,,,,,,66697abfce8185370e15dc8c,001,2024-06-30_05h32.33.862,empathy_intonation_perc,2024.1.4,Win32,59.88023952,,,,,,,,,,,,,,136,hueas,,,,,,267.2749,268.2729,0,1,0.4633,,0,184,184,135,1,pseudoword,0,REAL,FALSA
,,,,,,,,,66697abfce8185370e15dc8c,001,2024-06-30_05h32.33.862,empathy_intonation_perc,2024.1.4,Win32,59.88023952,,,,,,,,,,,,,,38,halo,,,,,,268.274,269.2221,1,0,0.416,,0,185,185,37,1,two_way_cognate,1,REAL,FALSA
,,,,,,,,,66697abfce8185370e15dc8c,001,2024-06-30_05h32.33.862,empathy_intonation_perc,2024.1.4,Win32,59.88023952,,,,,,,,,,,,,,83,hálito,,,,,,269.2244,270.2879,0,1,0.5298,,0,186,186,82,1,non_cognate,1,REAL,FALSA
,,,,,,,,,66697abfce8185370e15dc8c,001,2024-06-30_05h32.33.862,empathy_intonation_perc,2024.1.4,Win32,59.88023952,,,,,,,,,,,,,,17,clan,,,,,,270.2892,271.2536,1,0,0.4318,,0,187,187,16,1,three_way_cognate,1,REAL,FALSA
,,,,,,,,,66697abfce8185370e15dc8c,001,2024-06-30_05h32.33.862,empathy_intonation_perc,2024.1.4,Win32,59.88023952,,,,,,,,,,,,,,154,harvé,,,,,,271.2548,272.253,1,0,0.4627,,0,188,188,153,1,pseudoword,0,REAL,FALSA
,,,,,,,,,66697abfce8185370e15dc8c,001,2024-06-30_05h32.33.862,empathy_intonation_perc,2024.1.4,Win32,59.88023952,,,,,,,,,,,,,,109,laras,,,,,,272.2544,273.2023,1,0,0.4126,,0,189,189,108,1,pseudoword,0,REAL,FALSA
,,,,,,,,,66697abfce8185370e15dc8c,001,2024-06-30_05h32.33.862,empathy_intonation_perc,2024.1.4,Win32,59.88023952,,,,,,,,,,,,,,167,dobbo,,,,,,273.2036,274.3348,0,1,0.5957,,0,190,190,166,1,pseudoword,0,REAL,FALSA
,,,,,,,,,66697abfce8185370e15dc8c,001,2024-06-30_05h32.33.862,empathy_intonation_perc,2024.1.4,Win32,59.88023952,,,,,,,,,,,,,,141,virios,,,,,,274.3359,275.4838,0,1,0.6136,,0,191,191,140,1,pseudoword,0,REAL,FALSA
