lextale_instructions.started,lextale_instructions.stopped,lextale_instructions_loop.thisRepN,lextale_instructions_loop.thisTrialN,lextale_instructions_loop.thisN,lextale_instructions_loop.thisIndex,lextale_instructions_loop.ran,instructions_text,continue_text,participant,session,date,expName,psychopyVersion,OS,frameRate,lextale_practice.started,lextale_practice.stopped,key_resp_lextale_practice.keys,key_resp_lextale_practice.corr,key_resp_lextale_practice.rt,key_resp_lextale_practice.duration,lextale_practice_feedback.started,lextale_practice_feedback.stopped,lextale_practice_trials.thisRepN,lextale_practice_trials.thisTrialN,lextale_practice_trials.thisN,lextale_practice_trials.thisIndex,lextale_practice_trials.ran,stim,word,correct_response,prac_button_real,prac_button_false,lextale_check.started,lextale_check.stopped,lextale_trial.started,lextale_trial.stopped,key_resp_lextale_trial.keys,key_resp_lextale_trial.corr,key_resp_lextale_trial.rt,key_resp_lextale_trial.duration,lextail_trials.thisRepN,lextail_trials.thisTrialN,lextail_trials.thisN,lextail_trials.thisIndex,lextail_trials.ran,type,correct_reponse,button_real,button_false
0.0064,183.7215,0,0,0,0,1,"Este es un test de vocabulario en español. 
  
  A continuación vas a ver 90 secuencias de letras que parecen 'españolas'.
  
  Solo algunas de ellas son palabras de verdad.",(presiona la barra espaciadora para continuar),666d61258a386185e18da5f8,001,2024-06-30_12h17.23.995,empathy_intonation_perc,2024.1.4,Win32,39.84063745,,,,,,,,,,,,,,,,,,,,,,,,,,,,,,,,,,,
183.723,288.5866,0,1,1,1,1,"Por favor, señala las palabras que tú conoces (aquellas que estás convencido que son palabras españolas, incluso aunque no seas capaz de dar el significado preciso).",(presiona la barra espaciadora para continuar),666d61258a386185e18da5f8,001,2024-06-30_12h17.23.995,empathy_intonation_perc,2024.1.4,Win32,39.84063745,,,,,,,,,,,,,,,,,,,,,,,,,,,,,,,,,,,
288.6002,326.9161,0,2,2,2,1,Pero cuidado: los errores se penalizan. Por eso no tiene sentido tratar de incrementar tu puntuación marcando como reales palabras que nunca has visto.,(presiona la barra espaciadora para continuar),666d61258a386185e18da5f8,001,2024-06-30_12h17.23.995,empathy_intonation_perc,2024.1.4,Win32,39.84063745,,,,,,,,,,,,,,,,,,,,,,,,,,,,,,,,,,,
326.9429,346.2813,0,3,3,3,1,"Presiona la tecla 1 si piensas que es una palabra real y la tecla 
  0 si piensas que es una palabra falsa. 
  
  Vamos a practicar un poco...",(presiona la barra espaciadora para continuar),666d61258a386185e18da5f8,001,2024-06-30_12h17.23.995,empathy_intonation_perc,2024.1.4,Win32,39.84063745,,,,,,,,,,,,,,,,,,,,,,,,,,,,,,,,,,,
,,,,,,,,,666d61258a386185e18da5f8,001,2024-06-30_12h17.23.995,empathy_intonation_perc,2024.1.4,Win32,39.84063745,346.301,437.2792,1,0,90.4399,,437.3043,438.2834,0,0,0,0,1,0,depiste,0,REAL,FALSA,,,,,,,,,,,,,,,,,
,,,,,,,,,666d61258a386185e18da5f8,001,2024-06-30_12h17.23.995,empathy_intonation_perc,2024.1.4,Win32,39.84063745,438.2855,456.4419,1,1,17.6096,,456.4422,457.4474,0,1,1,1,1,0,sí,1,REAL,FALSA,,,,,,,,,,,,,,,,,
,,,,,,,,,666d61258a386185e18da5f8,001,2024-06-30_12h17.23.995,empathy_intonation_perc,2024.1.4,Win32,39.84063745,457.4664,475.4804,1,0,17.4842,,475.4806,476.487,0,2,2,2,1,0,coné,0,REAL,FALSA,,,,,,,,,,,,,,,,,
,,,,,,,,,666d61258a386185e18da5f8,001,2024-06-30_12h17.23.995,empathy_intonation_perc,2024.1.4,Win32,39.84063745,476.5011,489.2634,0,1,12.2263,,489.2635,490.2695,0,3,3,3,1,0,calpar,0,REAL,FALSA,,,,,,,,,,,,,,,,,
,,,,,,,,,666d61258a386185e18da5f8,001,2024-06-30_12h17.23.995,empathy_intonation_perc,2024.1.4,Win32,39.84063745,490.2951,495.1489,0,1,4.3303,,495.1492,496.1545,0,4,4,4,1,0,joten,0,REAL,FALSA,,,,,,,,,,,,,,,,,
,,,,,,,,,666d61258a386185e18da5f8,001,2024-06-30_12h17.23.995,empathy_intonation_perc,2024.1.4,Win32,39.84063745,496.177,503.3985,1,1,6.6905,,503.3987,504.404,0,5,5,5,1,0,sacapuntas,1,REAL,FALSA,,,,,,,,,,,,,,,,,
,,,,,,,,,666d61258a386185e18da5f8,001,2024-06-30_12h17.23.995,empathy_intonation_perc,2024.1.4,Win32,39.84063745,504.4268,516.3753,0,1,11.4174,,516.3754,517.3812,0,6,6,6,1,0,priba,0,REAL,FALSA,,,,,,,,,,,,,,,,,
,,,,,,,,,666d61258a386185e18da5f8,001,2024-06-30_12h17.23.995,empathy_intonation_perc,2024.1.4,Win32,39.84063745,517.3965,526.5614,0,1,8.622,,526.5615,527.5673,0,7,7,7,1,0,pelasula,0,REAL,FALSA,,,,,,,,,,,,,,,,,
,,,,,,,,,666d61258a386185e18da5f8,001,2024-06-30_12h17.23.995,empathy_intonation_perc,2024.1.4,Win32,39.84063745,527.5798,534.1067,1,1,5.98,,534.1067,535.1128,0,8,8,8,1,0,bien,1,REAL,FALSA,,,,,,,,,,,,,,,,,
,,,,,,,,,666d61258a386185e18da5f8,001,2024-06-30_12h17.23.995,empathy_intonation_perc,2024.1.4,Win32,39.84063745,535.1358,545.3745,1,1,9.7002,,545.3747,546.3802,0,9,9,9,1,0,casa,1,REAL,FALSA,,,,,,,,,,,,,,,,,
,,,,,,,,,666d61258a386185e18da5f8,001,2024-06-30_12h17.23.995,empathy_intonation_perc,2024.1.4,Win32,39.84063745,546.3966,556.2395,0,1,9.2962,,556.2396,557.2455,0,10,10,10,1,0,lejo,0,REAL,FALSA,,,,,,,,,,,,,,,,,
,,,,,,,,,666d61258a386185e18da5f8,001,2024-06-30_12h17.23.995,empathy_intonation_perc,2024.1.4,Win32,39.84063745,557.271,565.4966,0,1,7.696,,565.4967,566.5007,0,11,11,11,1,0,pretantas,0,REAL,FALSA,,,,,,,,,,,,,,,,,
,,,,,,,,,666d61258a386185e18da5f8,001,2024-06-30_12h17.23.995,empathy_intonation_perc,2024.1.4,Win32,39.84063745,,,,,,,,,,,,,,,,,,,566.5021,576.3617,,,,,,,,,,,,,,,
,,,,,,,,,666d61258a386185e18da5f8,001,2024-06-30_12h17.23.995,empathy_intonation_perc,2024.1.4,Win32,39.84063745,,,,,,,,,,,,,,116,grigir,,,,,,576.4157,583.2025,0,1,6.2313,,0,0,0,115,1,pseudoword,0,REAL,FALSA
,,,,,,,,,666d61258a386185e18da5f8,001,2024-06-30_12h17.23.995,empathy_intonation_perc,2024.1.4,Win32,39.84063745,,,,,,,,,,,,,,147,alla,,,,,,583.2266,592.2556,1,0,8.4998,,0,1,1,146,1,pseudoword,0,REAL,FALSA
,,,,,,,,,666d61258a386185e18da5f8,001,2024-06-30_12h17.23.995,empathy_intonation_perc,2024.1.4,Win32,39.84063745,,,,,,,,,,,,,,56,pico,,,,,,592.2808,598.6184,1,0,5.8141,,0,2,2,55,1,non_cognate,1,REAL,FALSA
,,,,,,,,,666d61258a386185e18da5f8,001,2024-06-30_12h17.23.995,empathy_intonation_perc,2024.1.4,Win32,39.84063745,,,,,,,,,,,,,,29,clamor,,,,,,598.6325,605.2831,0,1,6.1069,,0,3,3,28,1,two_way_cognate,1,REAL,FALSA
,,,,,,,,,666d61258a386185e18da5f8,001,2024-06-30_12h17.23.995,empathy_intonation_perc,2024.1.4,Win32,39.84063745,,,,,,,,,,,,,,6,horror,,,,,,605.2964,611.9736,1,0,6.1279,,0,4,4,5,1,three_way_cognate,1,REAL,FALSA
,,,,,,,,,666d61258a386185e18da5f8,001,2024-06-30_12h17.23.995,empathy_intonation_perc,2024.1.4,Win32,39.84063745,,,,,,,,,,,,,,53,punta,,,,,,611.9988,617.5823,1,0,5.0524,,0,5,5,52,1,non_cognate,1,REAL,FALSA
,,,,,,,,,666d61258a386185e18da5f8,001,2024-06-30_12h17.23.995,empathy_intonation_perc,2024.1.4,Win32,39.84063745,,,,,,,,,,,,,,157,seled,,,,,,617.6079,624.2223,0,1,6.0875,,0,6,6,156,1,pseudoword,0,REAL,FALSA
,,,,,,,,,666d61258a386185e18da5f8,001,2024-06-30_12h17.23.995,empathy_intonation_perc,2024.1.4,Win32,39.84063745,,,,,,,,,,,,,,79,suelo,,,,,,624.2495,630.1072,1,0,5.326,,0,7,7,78,1,non_cognate,1,REAL,FALSA
,,,,,,,,,666d61258a386185e18da5f8,001,2024-06-30_12h17.23.995,empathy_intonation_perc,2024.1.4,Win32,39.84063745,,,,,,,,,,,,,,10,drama,,,,,,630.1297,639.664,1,0,8.9989,,0,8,8,9,1,three_way_cognate,1,REAL,FALSA
,,,,,,,,,666d61258a386185e18da5f8,001,2024-06-30_12h17.23.995,empathy_intonation_perc,2024.1.4,Win32,39.84063745,,,,,,,,,,,,,,43,honor,,,,,,639.678,646.279,1,0,6.0591,,0,9,9,42,1,two_way_cognate,1,REAL,FALSA
,,,,,,,,,666d61258a386185e18da5f8,001,2024-06-30_12h17.23.995,empathy_intonation_perc,2024.1.4,Win32,39.84063745,,,,,,,,,,,,,,139,sasos,,,,,,646.306,651.8373,0,1,5.0029,,0,10,10,138,1,pseudoword,0,REAL,FALSA
,,,,,,,,,666d61258a386185e18da5f8,001,2024-06-30_12h17.23.995,empathy_intonation_perc,2024.1.4,Win32,39.84063745,,,,,,,,,,,,,,163,olzan,,,,,,651.8525,659.3825,0,1,6.9859,,0,11,11,162,1,pseudoword,0,REAL,FALSA
,,,,,,,,,666d61258a386185e18da5f8,001,2024-06-30_12h17.23.995,empathy_intonation_perc,2024.1.4,Win32,39.84063745,,,,,,,,,,,,,,51,listo,,,,,,659.3998,664.7901,1,0,4.8564,,0,12,12,50,1,non_cognate,1,REAL,FALSA
,,,,,,,,,666d61258a386185e18da5f8,001,2024-06-30_12h17.23.995,empathy_intonation_perc,2024.1.4,Win32,39.84063745,,,,,,,,,,,,,,103,vueras,,,,,,664.816,672.6871,1,0,7.3461,,0,13,13,102,1,pseudoword,0,REAL,FALSA
,,,,,,,,,666d61258a386185e18da5f8,001,2024-06-30_12h17.23.995,empathy_intonation_perc,2024.1.4,Win32,39.84063745,,,,,,,,,,,,,,102,coyo,,,,,,672.7119,678.9998,0,1,5.7552,,0,14,14,101,1,pseudoword,0,REAL,FALSA
,,,,,,,,,666d61258a386185e18da5f8,001,2024-06-30_12h17.23.995,empathy_intonation_perc,2024.1.4,Win32,39.84063745,,,,,,,,,,,,,,88,percha,,,,,,679.0179,687.9284,0,1,8.3804,,0,15,15,87,1,non_cognate,1,REAL,FALSA
,,,,,,,,,666d61258a386185e18da5f8,001,2024-06-30_12h17.23.995,empathy_intonation_perc,2024.1.4,Win32,39.84063745,,,,,,,,,,,,,,134,molor,,,,,,687.9533,693.9649,0,1,5.4755,,0,16,16,133,1,pseudoword,0,REAL,FALSA
,,,,,,,,,666d61258a386185e18da5f8,001,2024-06-30_12h17.23.995,empathy_intonation_perc,2024.1.4,Win32,39.84063745,,,,,,,,,,,,,,191,frasis,,,,,,693.9894,705.031,1,0,10.5173,,0,17,17,190,1,pseudoword,0,REAL,FALSA
,,,,,,,,,666d61258a386185e18da5f8,001,2024-06-30_12h17.23.995,empathy_intonation_perc,2024.1.4,Win32,39.84063745,,,,,,,,,,,,,,67,llamar,,,,,,705.0578,711.3943,1,0,5.8114,,0,18,18,66,1,non_cognate,1,REAL,FALSA
,,,,,,,,,666d61258a386185e18da5f8,001,2024-06-30_12h17.23.995,empathy_intonation_perc,2024.1.4,Win32,39.84063745,,,,,,,,,,,,,,166,anfia,,,,,,711.423,721.2026,0,1,9.2327,,0,19,19,165,1,pseudoword,0,REAL,FALSA
,,,,,,,,,666d61258a386185e18da5f8,001,2024-06-30_12h17.23.995,empathy_intonation_perc,2024.1.4,Win32,39.84063745,,,,,,,,,,,,,,71,torta,,,,,,721.2174,731.7912,1,0,10.0338,,0,20,20,70,1,non_cognate,1,REAL,FALSA
,,,,,,,,,666d61258a386185e18da5f8,001,2024-06-30_12h17.23.995,empathy_intonation_perc,2024.1.4,Win32,39.84063745,,,,,,,,,,,,,,171,gotro,,,,,,731.8164,737.1984,0,1,4.8517,,0,21,21,170,1,pseudoword,0,REAL,FALSA
,,,,,,,,,666d61258a386185e18da5f8,001,2024-06-30_12h17.23.995,empathy_intonation_perc,2024.1.4,Win32,39.84063745,,,,,,,,,,,,,,160,fomeó,,,,,,737.2107,744.3413,0,1,6.5822,,0,22,22,159,1,pseudoword,0,REAL,FALSA
,,,,,,,,,666d61258a386185e18da5f8,001,2024-06-30_12h17.23.995,empathy_intonation_perc,2024.1.4,Win32,39.84063745,,,,,,,,,,,,,,145,rúo,,,,,,744.3655,753.7227,0,1,8.8219,,0,23,23,144,1,pseudoword,0,REAL,FALSA
,,,,,,,,,666d61258a386185e18da5f8,001,2024-06-30_12h17.23.995,empathy_intonation_perc,2024.1.4,Win32,39.84063745,,,,,,,,,,,,,,9,portal,,,,,,753.7504,760.8154,1,0,6.5317,,0,24,24,8,1,three_way_cognate,1,REAL,FALSA
,,,,,,,,,666d61258a386185e18da5f8,001,2024-06-30_12h17.23.995,empathy_intonation_perc,2024.1.4,Win32,39.84063745,,,,,,,,,,,,,,52,blando,,,,,,760.8381,766.399,1,0,5.0351,,0,25,25,51,1,non_cognate,1,REAL,FALSA
,,,,,,,,,666d61258a386185e18da5f8,001,2024-06-30_12h17.23.995,empathy_intonation_perc,2024.1.4,Win32,39.84063745,,,,,,,,,,,,,,168,cobén,,,,,,766.4133,772.8117,0,1,5.8567,,0,26,26,167,1,pseudoword,0,REAL,FALSA
,,,,,,,,,666d61258a386185e18da5f8,001,2024-06-30_12h17.23.995,empathy_intonation_perc,2024.1.4,Win32,39.84063745,,,,,,,,,,,,,,22,mango,,,,,,772.825,778.6718,1,0,5.2956,,0,27,27,21,1,three_way_cognate,1,REAL,FALSA
,,,,,,,,,666d61258a386185e18da5f8,001,2024-06-30_12h17.23.995,empathy_intonation_perc,2024.1.4,Win32,39.84063745,,,,,,,,,,,,,,113,nasce,,,,,,778.686,785.8653,1,0,6.6298,,0,28,28,112,1,pseudoword,0,REAL,FALSA
,,,,,,,,,666d61258a386185e18da5f8,001,2024-06-30_12h17.23.995,empathy_intonation_perc,2024.1.4,Win32,39.84063745,,,,,,,,,,,,,,45,total,,,,,,785.8909,790.2917,1,0,3.87,,0,29,29,44,1,two_way_cognate,1,REAL,FALSA
,,,,,,,,,666d61258a386185e18da5f8,001,2024-06-30_12h17.23.995,empathy_intonation_perc,2024.1.4,Win32,39.84063745,,,,,,,,,,,,,,172,dogue,,,,,,790.3159,795.3471,0,1,4.5032,,0,30,30,171,1,pseudoword,0,REAL,FALSA
,,,,,,,,,666d61258a386185e18da5f8,001,2024-06-30_12h17.23.995,empathy_intonation_perc,2024.1.4,Win32,39.84063745,,,,,,,,,,,,,,44,editor,,,,,,795.3686,802.8418,1,0,6.9323,,0,31,31,43,1,two_way_cognate,1,REAL,FALSA
,,,,,,,,,666d61258a386185e18da5f8,001,2024-06-30_12h17.23.995,empathy_intonation_perc,2024.1.4,Win32,39.84063745,,,,,,,,,,,,,,19,mafia,,,,,,802.8566,820.9001,0,1,17.498,,0,32,32,18,1,three_way_cognate,1,REAL,FALSA
,,,,,,,,,666d61258a386185e18da5f8,001,2024-06-30_12h17.23.995,empathy_intonation_perc,2024.1.4,Win32,39.84063745,,,,,,,,,,,,,,170,diabo,,,,,,820.9263,869.7929,0,1,48.3344,,0,33,33,169,1,pseudoword,0,REAL,FALSA
,,,,,,,,,666d61258a386185e18da5f8,001,2024-06-30_12h17.23.995,empathy_intonation_perc,2024.1.4,Win32,39.84063745,,,,,,,,,,,,,,94,forro,,,,,,869.8064,927.288,0,1,56.9479,,0,34,34,93,1,non_cognate,1,REAL,FALSA
,,,,,,,,,666d61258a386185e18da5f8,001,2024-06-30_12h17.23.995,empathy_intonation_perc,2024.1.4,Win32,39.84063745,,,,,,,,,,,,,,57,regalo,,,,,,927.3148,974.9986,1,0,47.1535,,0,35,35,56,1,non_cognate,1,REAL,FALSA
,,,,,,,,,666d61258a386185e18da5f8,001,2024-06-30_12h17.23.995,empathy_intonation_perc,2024.1.4,Win32,39.84063745,,,,,,,,,,,,,,144,diroco,,,,,,975.0258,983.7761,0,1,8.2336,,0,36,36,143,1,pseudoword,0,REAL,FALSA
,,,,,,,,,666d61258a386185e18da5f8,001,2024-06-30_12h17.23.995,empathy_intonation_perc,2024.1.4,Win32,39.84063745,,,,,,,,,,,,,,78,rendir,,,,,,983.8016,990.4659,1,0,6.1374,,0,37,37,77,1,non_cognate,1,REAL,FALSA
,,,,,,,,,666d61258a386185e18da5f8,001,2024-06-30_12h17.23.995,empathy_intonation_perc,2024.1.4,Win32,39.84063745,,,,,,,,,,,,,,132,nocó,,,,,,990.4831,996.603,0,1,5.5755,,0,38,38,131,1,pseudoword,0,REAL,FALSA
,,,,,,,,,666d61258a386185e18da5f8,001,2024-06-30_12h17.23.995,empathy_intonation_perc,2024.1.4,Win32,39.84063745,,,,,,,,,,,,,,55,maldad,,,,,,996.6204,1007.2166,1,0,10.0571,,0,39,39,54,1,non_cognate,1,REAL,FALSA
,,,,,,,,,666d61258a386185e18da5f8,001,2024-06-30_12h17.23.995,empathy_intonation_perc,2024.1.4,Win32,39.84063745,,,,,,,,,,,,,,142,parre,,,,,,1007.2348,1015.3659,0,1,7.5894,,0,40,40,141,1,pseudoword,0,REAL,FALSA
,,,,,,,,,666d61258a386185e18da5f8,001,2024-06-30_12h17.23.995,empathy_intonation_perc,2024.1.4,Win32,39.84063745,,,,,,,,,,,,,,187,nomata,,,,,,1015.3935,1023.5641,0,1,7.6213,,0,41,41,186,1,pseudoword,0,REAL,FALSA
,,,,,,,,,666d61258a386185e18da5f8,001,2024-06-30_12h17.23.995,empathy_intonation_perc,2024.1.4,Win32,39.84063745,,,,,,,,,,,,,,65,guerra,,,,,,1023.5774,1027.9181,1,0,3.8078,,0,42,42,64,1,non_cognate,1,REAL,FALSA
,,,,,,,,,666d61258a386185e18da5f8,001,2024-06-30_12h17.23.995,empathy_intonation_perc,2024.1.4,Win32,39.84063745,,,,,,,,,,,,,,33,collar,,,,,,1027.9423,1035.561,1,0,7.087,,0,43,43,32,1,two_way_cognate,1,REAL,FALSA
,,,,,,,,,666d61258a386185e18da5f8,001,2024-06-30_12h17.23.995,empathy_intonation_perc,2024.1.4,Win32,39.84063745,,,,,,,,,,,,,,164,tecia,,,,,,1035.5735,1041.396,0,1,5.2722,,0,44,44,163,1,pseudoword,0,REAL,FALSA
,,,,,,,,,666d61258a386185e18da5f8,001,2024-06-30_12h17.23.995,empathy_intonation_perc,2024.1.4,Win32,39.84063745,,,,,,,,,,,,,,117,morrá,,,,,,1041.41,1046.0738,0,1,4.1304,,0,45,45,116,1,pseudoword,0,REAL,FALSA
,,,,,,,,,666d61258a386185e18da5f8,001,2024-06-30_12h17.23.995,empathy_intonation_perc,2024.1.4,Win32,39.84063745,,,,,,,,,,,,,,27,piano,,,,,,1046.0874,1050.6768,1,0,4.0547,,0,46,46,26,1,two_way_cognate,1,REAL,FALSA
,,,,,,,,,666d61258a386185e18da5f8,001,2024-06-30_12h17.23.995,empathy_intonation_perc,2024.1.4,Win32,39.84063745,,,,,,,,,,,,,,98,martir,,,,,,1050.6992,1057.2407,0,1,6.0015,,0,47,47,97,1,pseudoword,0,REAL,FALSA
,,,,,,,,,666d61258a386185e18da5f8,001,2024-06-30_12h17.23.995,empathy_intonation_perc,2024.1.4,Win32,39.84063745,,,,,,,,,,,,,,105,leniz,,,,,,1057.2534,1063.6042,0,1,5.8069,,0,48,48,104,1,pseudoword,0,REAL,FALSA
,,,,,,,,,666d61258a386185e18da5f8,001,2024-06-30_12h17.23.995,empathy_intonation_perc,2024.1.4,Win32,39.84063745,,,,,,,,,,,,,,1,moral,,,,,,1063.6274,1068.2321,1,0,4.0806,,0,49,49,0,1,three_way_cognate,1,REAL,FALSA
,,,,,,,,,666d61258a386185e18da5f8,001,2024-06-30_12h17.23.995,empathy_intonation_perc,2024.1.4,Win32,39.84063745,,,,,,,,,,,,,,4,flora,,,,,,1068.2559,1076.7577,1,0,7.9791,,0,50,50,3,1,three_way_cognate,1,REAL,FALSA
,,,,,,,,,666d61258a386185e18da5f8,001,2024-06-30_12h17.23.995,empathy_intonation_perc,2024.1.4,Win32,39.84063745,,,,,,,,,,,,,,17,clan,,,,,,1076.7707,1087.8746,1,0,10.5561,,0,51,51,16,1,three_way_cognate,1,REAL,FALSA
,,,,,,,,,666d61258a386185e18da5f8,001,2024-06-30_12h17.23.995,empathy_intonation_perc,2024.1.4,Win32,39.84063745,,,,,,,,,,,,,,173,mibro,,,,,,1087.8974,1094.9672,0,1,6.531,,0,52,52,172,1,pseudoword,0,REAL,FALSA
,,,,,,,,,666d61258a386185e18da5f8,001,2024-06-30_12h17.23.995,empathy_intonation_perc,2024.1.4,Win32,39.84063745,,,,,,,,,,,,,,69,tiza,,,,,,1094.9849,1108.0454,1,0,12.5232,,0,53,53,68,1,non_cognate,1,REAL,FALSA
,,,,,,,,,666d61258a386185e18da5f8,001,2024-06-30_12h17.23.995,empathy_intonation_perc,2024.1.4,Win32,39.84063745,,,,,,,,,,,,,,39,casual,,,,,,1108.0706,1115.8924,1,0,7.2903,,0,54,54,38,1,two_way_cognate,1,REAL,FALSA
,,,,,,,,,666d61258a386185e18da5f8,001,2024-06-30_12h17.23.995,empathy_intonation_perc,2024.1.4,Win32,39.84063745,,,,,,,,,,,,,,84,aviso,,,,,,1115.9105,1121.5261,1,0,5.0752,,0,55,55,83,1,non_cognate,1,REAL,FALSA
,,,,,,,,,666d61258a386185e18da5f8,001,2024-06-30_12h17.23.995,empathy_intonation_perc,2024.1.4,Win32,39.84063745,,,,,,,,,,,,,,138,tator,,,,,,1121.5399,1126.5309,0,1,4.4477,,0,56,56,137,1,pseudoword,0,REAL,FALSA
,,,,,,,,,666d61258a386185e18da5f8,001,2024-06-30_12h17.23.995,empathy_intonation_perc,2024.1.4,Win32,39.84063745,,,,,,,,,,,,,,16,chat,,,,,,1126.5438,1130.8823,1,0,3.7887,,0,57,57,15,1,three_way_cognate,1,REAL,FALSA
,,,,,,,,,666d61258a386185e18da5f8,001,2024-06-30_12h17.23.995,empathy_intonation_perc,2024.1.4,Win32,39.84063745,,,,,,,,,,,,,,115,lidena,,,,,,1130.8968,1138.8301,0,1,7.3955,,0,58,58,114,1,pseudoword,0,REAL,FALSA
,,,,,,,,,666d61258a386185e18da5f8,001,2024-06-30_12h17.23.995,empathy_intonation_perc,2024.1.4,Win32,39.84063745,,,,,,,,,,,,,,184,huenos,,,,,,1138.8559,1144.9431,0,1,5.5543,,0,59,59,183,1,pseudoword,0,REAL,FALSA
,,,,,,,,,666d61258a386185e18da5f8,001,2024-06-30_12h17.23.995,empathy_intonation_perc,2024.1.4,Win32,39.84063745,,,,,,,,,,,,,,90,venado,,,,,,1144.9626,1150.7513,1,0,5.2656,,0,60,60,89,1,non_cognate,1,REAL,FALSA
,,,,,,,,,666d61258a386185e18da5f8,001,2024-06-30_12h17.23.995,empathy_intonation_perc,2024.1.4,Win32,39.84063745,,,,,,,,,,,,,,92,flecha,,,,,,1150.7746,1156.2093,1,0,4.8974,,0,61,61,91,1,non_cognate,1,REAL,FALSA
,,,,,,,,,666d61258a386185e18da5f8,001,2024-06-30_12h17.23.995,empathy_intonation_perc,2024.1.4,Win32,39.84063745,,,,,,,,,,,,,,18,altar,,,,,,1156.2332,1161.4407,1,0,4.6843,,0,62,62,17,1,three_way_cognate,1,REAL,FALSA
,,,,,,,,,666d61258a386185e18da5f8,001,2024-06-30_12h17.23.995,empathy_intonation_perc,2024.1.4,Win32,39.84063745,,,,,,,,,,,,,,41,pasta,,,,,,1161.4617,1168.0047,1,0,6.0114,,0,63,63,40,1,two_way_cognate,1,REAL,FALSA
,,,,,,,,,666d61258a386185e18da5f8,001,2024-06-30_12h17.23.995,empathy_intonation_perc,2024.1.4,Win32,39.84063745,,,,,,,,,,,,,,104,estulo,,,,,,1168.0269,1172.6321,0,1,4.0869,,0,64,64,103,1,pseudoword,0,REAL,FALSA
,,,,,,,,,666d61258a386185e18da5f8,001,2024-06-30_12h17.23.995,empathy_intonation_perc,2024.1.4,Win32,39.84063745,,,,,,,,,,,,,,158,babrá,,,,,,1172.6444,1184.9058,0,1,11.7243,,0,65,65,157,1,pseudoword,0,REAL,FALSA
,,,,,,,,,666d61258a386185e18da5f8,001,2024-06-30_12h17.23.995,empathy_intonation_perc,2024.1.4,Win32,39.84063745,,,,,,,,,,,,,,135,panté,,,,,,1184.9222,1195.1672,0,1,9.706,,0,66,66,134,1,pseudoword,0,REAL,FALSA
,,,,,,,,,666d61258a386185e18da5f8,001,2024-06-30_12h17.23.995,empathy_intonation_perc,2024.1.4,Win32,39.84063745,,,,,,,,,,,,,,91,equipo,,,,,,1195.1841,1199.6439,1,0,3.9288,,0,67,67,90,1,non_cognate,1,REAL,FALSA
,,,,,,,,,666d61258a386185e18da5f8,001,2024-06-30_12h17.23.995,empathy_intonation_perc,2024.1.4,Win32,39.84063745,,,,,,,,,,,,,,177,entodo,,,,,,1199.6567,1203.5678,1,0,3.3781,,0,68,68,176,1,pseudoword,0,REAL,FALSA
,,,,,,,,,666d61258a386185e18da5f8,001,2024-06-30_12h17.23.995,empathy_intonation_perc,2024.1.4,Win32,39.84063745,,,,,,,,,,,,,,131,fuar,,,,,,1203.5804,1207.7192,0,1,3.6049,,0,69,69,130,1,pseudoword,0,REAL,FALSA
,,,,,,,,,666d61258a386185e18da5f8,001,2024-06-30_12h17.23.995,empathy_intonation_perc,2024.1.4,Win32,39.84063745,,,,,,,,,,,,,,3,disco,,,,,,1207.7453,1212.3958,1,0,4.1204,,0,70,70,2,1,three_way_cognate,1,REAL,FALSA
,,,,,,,,,666d61258a386185e18da5f8,001,2024-06-30_12h17.23.995,empathy_intonation_perc,2024.1.4,Win32,39.84063745,,,,,,,,,,,,,,34,actor,,,,,,1212.4217,1215.9671,1,0,3.0218,,0,71,71,33,1,two_way_cognate,1,REAL,FALSA
,,,,,,,,,666d61258a386185e18da5f8,001,2024-06-30_12h17.23.995,empathy_intonation_perc,2024.1.4,Win32,39.84063745,,,,,,,,,,,,,,169,pitis,,,,,,1215.9937,1221.8774,0,1,5.364,,0,72,72,168,1,pseudoword,0,REAL,FALSA
,,,,,,,,,666d61258a386185e18da5f8,001,2024-06-30_12h17.23.995,empathy_intonation_perc,2024.1.4,Win32,39.84063745,,,,,,,,,,,,,,59,feo,,,,,,1221.8933,1225.8011,1,0,3.3676,,0,73,73,58,1,non_cognate,1,REAL,FALSA
,,,,,,,,,666d61258a386185e18da5f8,001,2024-06-30_12h17.23.995,empathy_intonation_perc,2024.1.4,Win32,39.84063745,,,,,,,,,,,,,,87,muleta,,,,,,1225.8251,1233.2956,1,0,6.9472,,0,74,74,86,1,non_cognate,1,REAL,FALSA
,,,,,,,,,666d61258a386185e18da5f8,001,2024-06-30_12h17.23.995,empathy_intonation_perc,2024.1.4,Win32,39.84063745,,,,,,,,,,,,,,75,patada,,,,,,1233.3107,1236.8921,1,0,3.0421,,0,75,75,74,1,non_cognate,1,REAL,FALSA
,,,,,,,,,666d61258a386185e18da5f8,001,2024-06-30_12h17.23.995,empathy_intonation_perc,2024.1.4,Win32,39.84063745,,,,,,,,,,,,,,178,inichó,,,,,,1236.8928,1240.7909,0,1,3.3725,,0,76,76,177,1,pseudoword,0,REAL,FALSA
,,,,,,,,,666d61258a386185e18da5f8,001,2024-06-30_12h17.23.995,empathy_intonation_perc,2024.1.4,Win32,39.84063745,,,,,,,,,,,,,,60,siglo,,,,,,1240.819,1245.9467,1,0,4.578,,0,77,77,59,1,non_cognate,1,REAL,FALSA
,,,,,,,,,666d61258a386185e18da5f8,001,2024-06-30_12h17.23.995,empathy_intonation_perc,2024.1.4,Win32,39.84063745,,,,,,,,,,,,,,136,hueas,,,,,,1245.9695,1250.7003,0,1,4.1966,,0,78,78,135,1,pseudoword,0,REAL,FALSA
,,,,,,,,,666d61258a386185e18da5f8,001,2024-06-30_12h17.23.995,empathy_intonation_perc,2024.1.4,Win32,39.84063745,,,,,,,,,,,,,,28,ardor,,,,,,1250.7244,1257.3903,0,1,6.131,,0,79,79,27,1,two_way_cognate,1,REAL,FALSA
,,,,,,,,,666d61258a386185e18da5f8,001,2024-06-30_12h17.23.995,empathy_intonation_perc,2024.1.4,Win32,39.84063745,,,,,,,,,,,,,,110,densó,,,,,,1257.4157,1267.0502,1,0,9.0992,,0,80,80,109,1,pseudoword,0,REAL,FALSA
,,,,,,,,,666d61258a386185e18da5f8,001,2024-06-30_12h17.23.995,empathy_intonation_perc,2024.1.4,Win32,39.84063745,,,,,,,,,,,,,,74,ala,,,,,,1267.0785,1272.4308,1,0,4.8024,,0,81,81,73,1,non_cognate,1,REAL,FALSA
,,,,,,,,,666d61258a386185e18da5f8,001,2024-06-30_12h17.23.995,empathy_intonation_perc,2024.1.4,Win32,39.84063745,,,,,,,,,,,,,,165,chote,,,,,,1272.4566,1277.4104,0,1,4.4216,,0,82,82,164,1,pseudoword,0,REAL,FALSA
,,,,,,,,,666d61258a386185e18da5f8,001,2024-06-30_12h17.23.995,empathy_intonation_perc,2024.1.4,Win32,39.84063745,,,,,,,,,,,,,,47,color,,,,,,1277.4349,1283.371,1,0,5.4094,,0,83,83,46,1,two_way_cognate,1,REAL,FALSA
,,,,,,,,,666d61258a386185e18da5f8,001,2024-06-30_12h17.23.995,empathy_intonation_perc,2024.1.4,Win32,39.84063745,,,,,,,,,,,,,,179,suelet,,,,,,1283.395,1292.878,0,1,8.9579,,0,84,84,178,1,pseudoword,0,REAL,FALSA
,,,,,,,,,666d61258a386185e18da5f8,001,2024-06-30_12h17.23.995,empathy_intonation_perc,2024.1.4,Win32,39.84063745,,,,,,,,,,,,,,76,chocar,,,,,,1292.9048,1298.6371,1,0,5.2017,,0,85,85,75,1,non_cognate,1,REAL,FALSA
,,,,,,,,,666d61258a386185e18da5f8,001,2024-06-30_12h17.23.995,empathy_intonation_perc,2024.1.4,Win32,39.84063745,,,,,,,,,,,,,,118,bará,,,,,,1298.6543,1302.4352,0,1,3.24,,0,86,86,117,1,pseudoword,0,REAL,FALSA
,,,,,,,,,666d61258a386185e18da5f8,001,2024-06-30_12h17.23.995,empathy_intonation_perc,2024.1.4,Win32,39.84063745,,,,,,,,,,,,,,30,fiscal,,,,,,1302.458,1307.4651,0,1,4.4834,,0,87,87,29,1,two_way_cognate,1,REAL,FALSA
,,,,,,,,,666d61258a386185e18da5f8,001,2024-06-30_12h17.23.995,empathy_intonation_perc,2024.1.4,Win32,39.84063745,,,,,,,,,,,,,,89,muñeca,,,,,,1307.4814,1312.0428,1,0,4.0314,,0,88,88,88,1,non_cognate,1,REAL,FALSA
,,,,,,,,,666d61258a386185e18da5f8,001,2024-06-30_12h17.23.995,empathy_intonation_perc,2024.1.4,Win32,39.84063745,,,,,,,,,,,,,,63,hilo,,,,,,1312.0688,1316.3935,1,0,3.797,,0,89,89,62,1,non_cognate,1,REAL,FALSA
,,,,,,,,,666d61258a386185e18da5f8,001,2024-06-30_12h17.23.995,empathy_intonation_perc,2024.1.4,Win32,39.84063745,,,,,,,,,,,,,,93,tapa,,,,,,1316.4092,1320.2694,1,0,3.3296,,0,90,90,92,1,non_cognate,1,REAL,FALSA
,,,,,,,,,666d61258a386185e18da5f8,001,2024-06-30_12h17.23.995,empathy_intonation_perc,2024.1.4,Win32,39.84063745,,,,,,,,,,,,,,140,chorde,,,,,,1320.2925,1330.252,1,0,9.4422,,0,91,91,139,1,pseudoword,0,REAL,FALSA
,,,,,,,,,666d61258a386185e18da5f8,001,2024-06-30_12h17.23.995,empathy_intonation_perc,2024.1.4,Win32,39.84063745,,,,,,,,,,,,,,183,edioso,,,,,,1330.2781,1334.6027,0,1,3.7915,,0,92,92,182,1,pseudoword,0,REAL,FALSA
,,,,,,,,,666d61258a386185e18da5f8,001,2024-06-30_12h17.23.995,empathy_intonation_perc,2024.1.4,Win32,39.84063745,,,,,,,,,,,,,,7,albino,,,,,,1334.6153,1340.1613,1,0,4.9978,,0,93,93,6,1,three_way_cognate,1,REAL,FALSA
,,,,,,,,,666d61258a386185e18da5f8,001,2024-06-30_12h17.23.995,empathy_intonation_perc,2024.1.4,Win32,39.84063745,,,,,,,,,,,,,,122,boñaz,,,,,,1340.1858,1346.5995,0,1,5.8869,,0,94,94,121,1,pseudoword,0,REAL,FALSA
,,,,,,,,,666d61258a386185e18da5f8,001,2024-06-30_12h17.23.995,empathy_intonation_perc,2024.1.4,Win32,39.84063745,,,,,,,,,,,,,,11,golf,,,,,,1346.6129,1351.2025,1,0,4.0562,,0,95,95,10,1,three_way_cognate,1,REAL,FALSA
,,,,,,,,,666d61258a386185e18da5f8,001,2024-06-30_12h17.23.995,empathy_intonation_perc,2024.1.4,Win32,39.84063745,,,,,,,,,,,,,,99,bugor,,,,,,1351.2272,1356.2579,0,1,4.5082,,0,96,96,98,1,pseudoword,0,REAL,FALSA
,,,,,,,,,666d61258a386185e18da5f8,001,2024-06-30_12h17.23.995,empathy_intonation_perc,2024.1.4,Win32,39.84063745,,,,,,,,,,,,,,49,teñir,,,,,,1356.279,1361.9165,1,0,5.1152,,0,97,97,48,1,non_cognate,1,REAL,FALSA
,,,,,,,,,666d61258a386185e18da5f8,001,2024-06-30_12h17.23.995,empathy_intonation_perc,2024.1.4,Win32,39.84063745,,,,,,,,,,,,,,108,jauda,,,,,,1361.9404,1368.858,0,1,6.3851,,0,98,98,107,1,pseudoword,0,REAL,FALSA
,,,,,,,,,666d61258a386185e18da5f8,001,2024-06-30_12h17.23.995,empathy_intonation_perc,2024.1.4,Win32,39.84063745,,,,,,,,,,,,,,70,ánimo,,,,,,1368.8736,1375.5481,1,0,6.1307,,0,99,99,69,1,non_cognate,1,REAL,FALSA
,,,,,,,,,666d61258a386185e18da5f8,001,2024-06-30_12h17.23.995,empathy_intonation_perc,2024.1.4,Win32,39.84063745,,,,,,,,,,,,,,159,trcia,,,,,,1375.5609,1382.9929,0,1,6.8823,,0,100,100,158,1,pseudoword,0,REAL,FALSA
,,,,,,,,,666d61258a386185e18da5f8,001,2024-06-30_12h17.23.995,empathy_intonation_perc,2024.1.4,Win32,39.84063745,,,,,,,,,,,,,,80,cuenco,,,,,,1382.9946,1392.0721,1,0,8.5467,,0,101,101,79,1,non_cognate,1,REAL,FALSA
,,,,,,,,,666d61258a386185e18da5f8,001,2024-06-30_12h17.23.995,empathy_intonation_perc,2024.1.4,Win32,39.84063745,,,,,,,,,,,,,,106,diebro,,,,,,1392.0984,1396.9516,0,1,4.3171,,0,102,102,105,1,pseudoword,0,REAL,FALSA
,,,,,,,,,666d61258a386185e18da5f8,001,2024-06-30_12h17.23.995,empathy_intonation_perc,2024.1.4,Win32,39.84063745,,,,,,,,,,,,,,109,laras,,,,,,1396.9756,1401.5791,0,1,4.0825,,0,103,103,108,1,pseudoword,0,REAL,FALSA
,,,,,,,,,666d61258a386185e18da5f8,001,2024-06-30_12h17.23.995,empathy_intonation_perc,2024.1.4,Win32,39.84063745,,,,,,,,,,,,,,123,arane,,,,,,1401.5914,1409.2503,0,1,7.1141,,0,104,104,122,1,pseudoword,0,REAL,FALSA
,,,,,,,,,666d61258a386185e18da5f8,001,2024-06-30_12h17.23.995,empathy_intonation_perc,2024.1.4,Win32,39.84063745,,,,,,,,,,,,,,143,hurcos,,,,,,1409.276,1413.1264,0,1,3.3313,,0,105,105,142,1,pseudoword,0,REAL,FALSA
,,,,,,,,,666d61258a386185e18da5f8,001,2024-06-30_12h17.23.995,empathy_intonation_perc,2024.1.4,Win32,39.84063745,,,,,,,,,,,,,,14,aura,,,,,,1413.1272,1416.9459,0,1,3.2676,,0,106,106,13,1,three_way_cognate,1,REAL,FALSA
,,,,,,,,,666d61258a386185e18da5f8,001,2024-06-30_12h17.23.995,empathy_intonation_perc,2024.1.4,Win32,39.84063745,,,,,,,,,,,,,,37,torso,,,,,,1416.9598,1422.4541,0,1,4.9592,,0,107,107,36,1,two_way_cognate,1,REAL,FALSA
,,,,,,,,,666d61258a386185e18da5f8,001,2024-06-30_12h17.23.995,empathy_intonation_perc,2024.1.4,Win32,39.84063745,,,,,,,,,,,,,,192,próces,,,,,,1422.4826,1432.6176,1,0,9.5961,,0,108,108,191,1,pseudoword,0,REAL,FALSA
,,,,,,,,,666d61258a386185e18da5f8,001,2024-06-30_12h17.23.995,empathy_intonation_perc,2024.1.4,Win32,39.84063745,,,,,,,,,,,,,,64,rizado,,,,,,1432.6429,1445.467,1,0,12.2955,,0,109,109,63,1,non_cognate,1,REAL,FALSA
,,,,,,,,,666d61258a386185e18da5f8,001,2024-06-30_12h17.23.995,empathy_intonation_perc,2024.1.4,Win32,39.84063745,,,,,,,,,,,,,,114,dibrea,,,,,,1445.4815,1451.4781,0,1,5.454,,0,110,110,113,1,pseudoword,0,REAL,FALSA
,,,,,,,,,666d61258a386185e18da5f8,001,2024-06-30_12h17.23.995,empathy_intonation_perc,2024.1.4,Win32,39.84063745,,,,,,,,,,,,,,130,dubo,,,,,,1451.4909,1455.4015,0,1,3.364,,0,111,111,129,1,pseudoword,0,REAL,FALSA
,,,,,,,,,666d61258a386185e18da5f8,001,2024-06-30_12h17.23.995,empathy_intonation_perc,2024.1.4,Win32,39.84063745,,,,,,,,,,,,,,97,nocita,,,,,,1455.4254,1460.256,0,1,4.2925,,0,112,112,96,1,pseudoword,0,REAL,FALSA
,,,,,,,,,666d61258a386185e18da5f8,001,2024-06-30_12h17.23.995,empathy_intonation_perc,2024.1.4,Win32,39.84063745,,,,,,,,,,,,,,146,gió,,,,,,1460.2805,1464.4576,0,1,3.6396,,0,113,113,145,1,pseudoword,0,REAL,FALSA
,,,,,,,,,666d61258a386185e18da5f8,001,2024-06-30_12h17.23.995,empathy_intonation_perc,2024.1.4,Win32,39.84063745,,,,,,,,,,,,,,185,aljizo,,,,,,1464.4697,1469.0087,0,1,4.0065,,0,114,114,184,1,pseudoword,0,REAL,FALSA
,,,,,,,,,666d61258a386185e18da5f8,001,2024-06-30_12h17.23.995,empathy_intonation_perc,2024.1.4,Win32,39.84063745,,,,,,,,,,,,,,42,rumor,,,,,,1469.0339,1474.0884,1,0,4.5201,,0,115,115,41,1,two_way_cognate,1,REAL,FALSA
,,,,,,,,,666d61258a386185e18da5f8,001,2024-06-30_12h17.23.995,empathy_intonation_perc,2024.1.4,Win32,39.84063745,,,,,,,,,,,,,,82,brillo,,,,,,1474.1012,1478.8418,1,0,4.2033,,0,116,116,81,1,non_cognate,1,REAL,FALSA
,,,,,,,,,666d61258a386185e18da5f8,001,2024-06-30_12h17.23.995,empathy_intonation_perc,2024.1.4,Win32,39.84063745,,,,,,,,,,,,,,13,plan,,,,,,1478.855,1482.2881,1,0,2.8907,,0,117,117,12,1,three_way_cognate,1,REAL,FALSA
,,,,,,,,,666d61258a386185e18da5f8,001,2024-06-30_12h17.23.995,empathy_intonation_perc,2024.1.4,Win32,39.84063745,,,,,,,,,,,,,,181,gravés,,,,,,1482.3117,1485.8089,0,1,2.9786,,0,118,118,180,1,pseudoword,0,REAL,FALSA
,,,,,,,,,666d61258a386185e18da5f8,001,2024-06-30_12h17.23.995,empathy_intonation_perc,2024.1.4,Win32,39.84063745,,,,,,,,,,,,,,83,hálito,,,,,,1485.8336,1491.7696,1,0,5.4122,,0,119,119,82,1,non_cognate,1,REAL,FALSA
,,,,,,,,,666d61258a386185e18da5f8,001,2024-06-30_12h17.23.995,empathy_intonation_perc,2024.1.4,Win32,39.84063745,,,,,,,,,,,,,,133,conso,,,,,,1491.7934,1500.3208,0,1,7.9956,,0,120,120,132,1,pseudoword,0,REAL,FALSA
,,,,,,,,,666d61258a386185e18da5f8,001,2024-06-30_12h17.23.995,empathy_intonation_perc,2024.1.4,Win32,39.84063745,,,,,,,,,,,,,,111,monue,,,,,,1500.3467,1506.8097,0,1,5.9336,,0,121,121,110,1,pseudoword,0,REAL,FALSA
,,,,,,,,,666d61258a386185e18da5f8,001,2024-06-30_12h17.23.995,empathy_intonation_perc,2024.1.4,Win32,39.84063745,,,,,,,,,,,,,,73,llevar,,,,,,1506.8335,1511.2362,1,0,3.8676,,0,122,122,72,1,non_cognate,1,REAL,FALSA
,,,,,,,,,666d61258a386185e18da5f8,001,2024-06-30_12h17.23.995,empathy_intonation_perc,2024.1.4,Win32,39.84063745,,,,,,,,,,,,,,48,pelvis,,,,,,1511.2578,1515.9898,0,1,4.1936,,0,123,123,47,1,two_way_cognate,1,REAL,FALSA
,,,,,,,,,666d61258a386185e18da5f8,001,2024-06-30_12h17.23.995,empathy_intonation_perc,2024.1.4,Win32,39.84063745,,,,,,,,,,,,,,38,halo,,,,,,1516.0134,1523.2587,1,0,6.7155,,0,124,124,37,1,two_way_cognate,1,REAL,FALSA
,,,,,,,,,666d61258a386185e18da5f8,001,2024-06-30_12h17.23.995,empathy_intonation_perc,2024.1.4,Win32,39.84063745,,,,,,,,,,,,,,54,tapón,,,,,,1523.2834,1530.5017,1,0,6.6814,,0,125,125,53,1,non_cognate,1,REAL,FALSA
,,,,,,,,,666d61258a386185e18da5f8,001,2024-06-30_12h17.23.995,empathy_intonation_perc,2024.1.4,Win32,39.84063745,,,,,,,,,,,,,,149,emén,,,,,,1530.5152,1533.9727,0,1,2.915,,0,126,126,148,1,pseudoword,0,REAL,FALSA
,,,,,,,,,666d61258a386185e18da5f8,001,2024-06-30_12h17.23.995,empathy_intonation_perc,2024.1.4,Win32,39.84063745,,,,,,,,,,,,,,125,ceme,,,,,,1533.9961,1538.7507,0,1,4.233,,0,127,127,124,1,pseudoword,0,REAL,FALSA
,,,,,,,,,666d61258a386185e18da5f8,001,2024-06-30_12h17.23.995,empathy_intonation_perc,2024.1.4,Win32,39.84063745,,,,,,,,,,,,,,20,trauma,,,,,,1538.7673,1543.6553,1,0,4.3575,,0,128,128,19,1,three_way_cognate,1,REAL,FALSA
,,,,,,,,,666d61258a386185e18da5f8,001,2024-06-30_12h17.23.995,empathy_intonation_perc,2024.1.4,Win32,39.84063745,,,,,,,,,,,,,,186,rizate,,,,,,1543.6682,1548.0834,0,1,3.8736,,0,129,129,185,1,pseudoword,0,REAL,FALSA
,,,,,,,,,666d61258a386185e18da5f8,001,2024-06-30_12h17.23.995,empathy_intonation_perc,2024.1.4,Win32,39.84063745,,,,,,,,,,,,,,5,extra,,,,,,1548.109,1552.4082,1,0,3.7704,,0,130,130,4,1,three_way_cognate,1,REAL,FALSA
,,,,,,,,,666d61258a386185e18da5f8,001,2024-06-30_12h17.23.995,empathy_intonation_perc,2024.1.4,Win32,39.84063745,,,,,,,,,,,,,,190,asumie,,,,,,1552.4341,1563.0215,1,0,10.0542,,0,131,131,189,1,pseudoword,0,REAL,FALSA
,,,,,,,,,666d61258a386185e18da5f8,001,2024-06-30_12h17.23.995,empathy_intonation_perc,2024.1.4,Win32,39.84063745,,,,,,,,,,,,,,62,pegar,,,,,,1563.0465,1600.4457,1,0,36.8699,,0,132,132,61,1,non_cognate,1,REAL,FALSA
,,,,,,,,,666d61258a386185e18da5f8,001,2024-06-30_12h17.23.995,empathy_intonation_perc,2024.1.4,Win32,39.84063745,,,,,,,,,,,,,,77,suave,,,,,,1600.4644,1606.4321,1,0,5.4255,,0,133,133,76,1,non_cognate,1,REAL,FALSA
,,,,,,,,,666d61258a386185e18da5f8,001,2024-06-30_12h17.23.995,empathy_intonation_perc,2024.1.4,Win32,39.84063745,,,,,,,,,,,,,,15,test,,,,,,1606.4536,1612.04,1,0,5.0483,,0,134,134,14,1,three_way_cognate,1,REAL,FALSA
,,,,,,,,,666d61258a386185e18da5f8,001,2024-06-30_12h17.23.995,empathy_intonation_perc,2024.1.4,Win32,39.84063745,,,,,,,,,,,,,,120,mauja,,,,,,1612.0649,1777.0796,0,1,164.4987,,0,135,135,119,1,pseudoword,0,REAL,FALSA
,,,,,,,,,666d61258a386185e18da5f8,001,2024-06-30_12h17.23.995,empathy_intonation_perc,2024.1.4,Win32,39.84063745,,,,,,,,,,,,,,182,desaro,,,,,,1777.0977,1995.3615,0,1,217.7225,,0,136,136,181,1,pseudoword,0,REAL,FALSA
,,,,,,,,,666d61258a386185e18da5f8,001,2024-06-30_12h17.23.995,empathy_intonation_perc,2024.1.4,Win32,39.84063745,,,,,,,,,,,,,,68,puñal,,,,,,1995.3816,2005.1958,1,0,9.2728,,0,137,137,67,1,non_cognate,1,REAL,FALSA
,,,,,,,,,666d61258a386185e18da5f8,001,2024-06-30_12h17.23.995,empathy_intonation_perc,2024.1.4,Win32,39.84063745,,,,,,,,,,,,,,154,harvé,,,,,,2005.2226,2012.8917,0,1,7.1348,,0,138,138,153,1,pseudoword,0,REAL,FALSA
,,,,,,,,,666d61258a386185e18da5f8,001,2024-06-30_12h17.23.995,empathy_intonation_perc,2024.1.4,Win32,39.84063745,,,,,,,,,,,,,,151,prías,,,,,,2012.9149,2018.651,0,1,5.2002,,0,139,139,150,1,pseudoword,0,REAL,FALSA
,,,,,,,,,666d61258a386185e18da5f8,001,2024-06-30_12h17.23.995,empathy_intonation_perc,2024.1.4,Win32,39.84063745,,,,,,,,,,,,,,2,tumor,,,,,,2018.664,2023.0022,1,0,3.8066,,0,140,140,1,1,three_way_cognate,1,REAL,FALSA
,,,,,,,,,666d61258a386185e18da5f8,001,2024-06-30_12h17.23.995,empathy_intonation_perc,2024.1.4,Win32,39.84063745,,,,,,,,,,,,,,46,mortal,,,,,,2023.0186,2027.5308,1,0,3.9865,,0,141,141,45,1,two_way_cognate,1,REAL,FALSA
,,,,,,,,,666d61258a386185e18da5f8,001,2024-06-30_12h17.23.995,empathy_intonation_perc,2024.1.4,Win32,39.84063745,,,,,,,,,,,,,,124,lobe,,,,,,2027.5423,2032.7634,0,1,4.6878,,0,142,142,123,1,pseudoword,0,REAL,FALSA
,,,,,,,,,666d61258a386185e18da5f8,001,2024-06-30_12h17.23.995,empathy_intonation_perc,2024.1.4,Win32,39.84063745,,,,,,,,,,,,,,129,vinzó,,,,,,2032.7812,2039.1491,1,0,5.8314,,0,143,143,128,1,pseudoword,0,REAL,FALSA
,,,,,,,,,666d61258a386185e18da5f8,001,2024-06-30_12h17.23.995,empathy_intonation_perc,2024.1.4,Win32,39.84063745,,,,,,,,,,,,,,85,enorme,,,,,,2039.1651,2044.4325,1,0,4.7362,,0,144,144,84,1,non_cognate,1,REAL,FALSA
,,,,,,,,,666d61258a386185e18da5f8,001,2024-06-30_12h17.23.995,empathy_intonation_perc,2024.1.4,Win32,39.84063745,,,,,,,,,,,,,,40,pelvis,,,,,,2044.4599,2052.1269,0,1,7.1213,,0,145,145,39,1,two_way_cognate,1,REAL,FALSA
,,,,,,,,,666d61258a386185e18da5f8,001,2024-06-30_12h17.23.995,empathy_intonation_perc,2024.1.4,Win32,39.84063745,,,,,,,,,,,,,,155,kugis,,,,,,2052.1536,2060.1281,0,1,7.4583,,0,146,146,154,1,pseudoword,0,REAL,FALSA
,,,,,,,,,666d61258a386185e18da5f8,001,2024-06-30_12h17.23.995,empathy_intonation_perc,2024.1.4,Win32,39.84063745,,,,,,,,,,,,,,126,tobre,,,,,,2060.1527,2063.6963,0,1,3.0114,,0,147,147,125,1,pseudoword,0,REAL,FALSA
,,,,,,,,,666d61258a386185e18da5f8,001,2024-06-30_12h17.23.995,empathy_intonation_perc,2024.1.4,Win32,39.84063745,,,,,,,,,,,,,,174,pabea,,,,,,2063.7199,2068.0221,0,1,3.7846,,0,148,148,173,1,pseudoword,0,REAL,FALSA
,,,,,,,,,666d61258a386185e18da5f8,001,2024-06-30_12h17.23.995,empathy_intonation_perc,2024.1.4,Win32,39.84063745,,,,,,,,,,,,,,189,medium,,,,,,2068.0462,2071.1659,1,0,2.5972,,0,149,149,188,1,pseudoword,0,REAL,FALSA
,,,,,,,,,666d61258a386185e18da5f8,001,2024-06-30_12h17.23.995,empathy_intonation_perc,2024.1.4,Win32,39.84063745,,,,,,,,,,,,,,26,enigma,,,,,,2071.1898,2077.1514,0,1,5.4279,,0,150,150,25,1,two_way_cognate,1,REAL,FALSA
,,,,,,,,,666d61258a386185e18da5f8,001,2024-06-30_12h17.23.995,empathy_intonation_perc,2024.1.4,Win32,39.84063745,,,,,,,,,,,,,,162,cengo,,,,,,2077.1646,2080.9491,0,1,3.2457,,0,151,151,161,1,pseudoword,0,REAL,FALSA
,,,,,,,,,666d61258a386185e18da5f8,001,2024-06-30_12h17.23.995,empathy_intonation_perc,2024.1.4,Win32,39.84063745,,,,,,,,,,,,,,12,dogma,,,,,,2080.9642,2090.9597,0,1,9.4539,,0,152,152,11,1,three_way_cognate,1,REAL,FALSA
,,,,,,,,,666d61258a386185e18da5f8,001,2024-06-30_12h17.23.995,empathy_intonation_perc,2024.1.4,Win32,39.84063745,,,,,,,,,,,,,,112,samón,,,,,,2090.9852,2097.0463,1,0,5.5455,,0,153,153,111,1,pseudoword,0,REAL,FALSA
,,,,,,,,,666d61258a386185e18da5f8,001,2024-06-30_12h17.23.995,empathy_intonation_perc,2024.1.4,Win32,39.84063745,,,,,,,,,,,,,,176,gripar,,,,,,2097.0679,2103.3085,1,0,5.7131,,0,154,154,175,1,pseudoword,0,REAL,FALSA
,,,,,,,,,666d61258a386185e18da5f8,001,2024-06-30_12h17.23.995,empathy_intonation_perc,2024.1.4,Win32,39.84063745,,,,,,,,,,,,,,152,prave,,,,,,2103.3329,2107.7099,0,1,3.8411,,0,155,155,151,1,pseudoword,0,REAL,FALSA
,,,,,,,,,666d61258a386185e18da5f8,001,2024-06-30_12h17.23.995,empathy_intonation_perc,2024.1.4,Win32,39.84063745,,,,,,,,,,,,,,36,viable,,,,,,2107.7352,2115.7587,0,1,7.494,,0,156,156,35,1,two_way_cognate,1,REAL,FALSA
,,,,,,,,,666d61258a386185e18da5f8,001,2024-06-30_12h17.23.995,empathy_intonation_perc,2024.1.4,Win32,39.84063745,,,,,,,,,,,,,,100,épinas,,,,,,2115.7733,2119.9589,0,1,3.6478,,0,157,157,99,1,pseudoword,0,REAL,FALSA
,,,,,,,,,666d61258a386185e18da5f8,001,2024-06-30_12h17.23.995,empathy_intonation_perc,2024.1.4,Win32,39.84063745,,,,,,,,,,,,,,50,sierra,,,,,,2119.9835,2124.888,1,0,4.3768,,0,158,158,49,1,non_cognate,1,REAL,FALSA
,,,,,,,,,666d61258a386185e18da5f8,001,2024-06-30_12h17.23.995,empathy_intonation_perc,2024.1.4,Win32,39.84063745,,,,,,,,,,,,,,121,barbs,,,,,,2124.913,2128.8366,1,0,3.3896,,0,159,159,120,1,pseudoword,0,REAL,FALSA
,,,,,,,,,666d61258a386185e18da5f8,001,2024-06-30_12h17.23.995,empathy_intonation_perc,2024.1.4,Win32,39.84063745,,,,,,,,,,,,,,81,sacar,,,,,,2128.8603,2131.8046,1,0,2.4089,,0,160,160,80,1,non_cognate,1,REAL,FALSA
,,,,,,,,,666d61258a386185e18da5f8,001,2024-06-30_12h17.23.995,empathy_intonation_perc,2024.1.4,Win32,39.84063745,,,,,,,,,,,,,,96,caro,,,,,,2131.8299,2135.1242,1,0,2.7625,,0,161,161,95,1,non_cognate,1,REAL,FALSA
,,,,,,,,,666d61258a386185e18da5f8,001,2024-06-30_12h17.23.995,empathy_intonation_perc,2024.1.4,Win32,39.84063745,,,,,,,,,,,,,,95,listo,,,,,,2135.1256,2138.2173,1,0,2.5646,,0,162,162,94,1,non_cognate,1,REAL,FALSA
,,,,,,,,,666d61258a386185e18da5f8,001,2024-06-30_12h17.23.995,empathy_intonation_perc,2024.1.4,Win32,39.84063745,,,,,,,,,,,,,,148,gino,,,,,,2138.2344,2144.0023,0,1,5.2329,,0,163,163,147,1,pseudoword,0,REAL,FALSA
,,,,,,,,,666d61258a386185e18da5f8,001,2024-06-30_12h17.23.995,empathy_intonation_perc,2024.1.4,Win32,39.84063745,,,,,,,,,,,,,,128,pelí,,,,,,2144.0263,2148.1271,0,1,3.5698,,0,164,164,127,1,pseudoword,0,REAL,FALSA
,,,,,,,,,666d61258a386185e18da5f8,001,2024-06-30_12h17.23.995,empathy_intonation_perc,2024.1.4,Win32,39.84063745,,,,,,,,,,,,,,153,golla,,,,,,2148.152,2152.3274,0,1,3.6403,,0,165,165,152,1,pseudoword,0,REAL,FALSA
,,,,,,,,,666d61258a386185e18da5f8,001,2024-06-30_12h17.23.995,empathy_intonation_perc,2024.1.4,Win32,39.84063745,,,,,,,,,,,,,,66,aleta,,,,,,2152.3513,2160.8285,1,0,7.947,,0,166,166,65,1,non_cognate,1,REAL,FALSA
,,,,,,,,,666d61258a386185e18da5f8,001,2024-06-30_12h17.23.995,empathy_intonation_perc,2024.1.4,Win32,39.84063745,,,,,,,,,,,,,,21,hotel,,,,,,2160.8548,2163.7718,1,0,2.389,,0,167,167,20,1,three_way_cognate,1,REAL,FALSA
,,,,,,,,,666d61258a386185e18da5f8,001,2024-06-30_12h17.23.995,empathy_intonation_perc,2024.1.4,Win32,39.84063745,,,,,,,,,,,,,,188,amplir,,,,,,2163.7729,2166.6142,1,0,2.3221,,0,168,168,187,1,pseudoword,0,REAL,FALSA
,,,,,,,,,666d61258a386185e18da5f8,001,2024-06-30_12h17.23.995,empathy_intonation_perc,2024.1.4,Win32,39.84063745,,,,,,,,,,,,,,119,esís,,,,,,2166.615,2171.8188,0,1,4.6845,,0,169,169,118,1,pseudoword,0,REAL,FALSA
,,,,,,,,,666d61258a386185e18da5f8,001,2024-06-30_12h17.23.995,empathy_intonation_perc,2024.1.4,Win32,39.84063745,,,,,,,,,,,,,,127,vien,,,,,,2171.8339,2177.4791,1,0,5.1032,,0,170,170,126,1,pseudoword,0,REAL,FALSA
,,,,,,,,,666d61258a386185e18da5f8,001,2024-06-30_12h17.23.995,empathy_intonation_perc,2024.1.4,Win32,39.84063745,,,,,,,,,,,,,,175,tradía,,,,,,2177.4912,2183.0112,0,1,4.9738,,0,171,171,174,1,pseudoword,0,REAL,FALSA
,,,,,,,,,666d61258a386185e18da5f8,001,2024-06-30_12h17.23.995,empathy_intonation_perc,2024.1.4,Win32,39.84063745,,,,,,,,,,,,,,161,civas,,,,,,2183.0346,2188.3932,0,1,4.8339,,0,172,172,160,1,pseudoword,0,REAL,FALSA
,,,,,,,,,666d61258a386185e18da5f8,001,2024-06-30_12h17.23.995,empathy_intonation_perc,2024.1.4,Win32,39.84063745,,,,,,,,,,,,,,31,civil,,,,,,2188.416,2193.5489,1,0,4.5962,,0,173,173,30,1,two_way_cognate,1,REAL,FALSA
,,,,,,,,,666d61258a386185e18da5f8,001,2024-06-30_12h17.23.995,empathy_intonation_perc,2024.1.4,Win32,39.84063745,,,,,,,,,,,,,,58,colcha,,,,,,2193.5613,2198.4532,1,0,4.3468,,0,174,174,57,1,non_cognate,1,REAL,FALSA
,,,,,,,,,666d61258a386185e18da5f8,001,2024-06-30_12h17.23.995,empathy_intonation_perc,2024.1.4,Win32,39.84063745,,,,,,,,,,,,,,107,plago,,,,,,2198.4708,2201.7982,0,1,2.792,,0,175,175,106,1,pseudoword,0,REAL,FALSA
,,,,,,,,,666d61258a386185e18da5f8,001,2024-06-30_12h17.23.995,empathy_intonation_perc,2024.1.4,Win32,39.84063745,,,,,,,,,,,,,,86,cuenco,,,,,,2201.8122,2206.2505,1,0,3.9103,,0,176,176,85,1,non_cognate,1,REAL,FALSA
,,,,,,,,,666d61258a386185e18da5f8,001,2024-06-30_12h17.23.995,empathy_intonation_perc,2024.1.4,Win32,39.84063745,,,,,,,,,,,,,,8,kilo,,,,,,2206.2751,2211.2301,0,1,4.4235,,0,177,177,7,1,three_way_cognate,1,REAL,FALSA
,,,,,,,,,666d61258a386185e18da5f8,001,2024-06-30_12h17.23.995,empathy_intonation_perc,2024.1.4,Win32,39.84063745,,,,,,,,,,,,,,24,retina,,,,,,2211.2537,2223.2779,1,0,11.4871,,0,178,178,23,1,three_way_cognate,1,REAL,FALSA
,,,,,,,,,666d61258a386185e18da5f8,001,2024-06-30_12h17.23.995,empathy_intonation_perc,2024.1.4,Win32,39.84063745,,,,,,,,,,,,,,61,aduana,,,,,,2223.3039,2232.6586,1,0,8.8341,,0,179,179,60,1,non_cognate,1,REAL,FALSA
,,,,,,,,,666d61258a386185e18da5f8,001,2024-06-30_12h17.23.995,empathy_intonation_perc,2024.1.4,Win32,39.84063745,,,,,,,,,,,,,,150,cricó,,,,,,2232.6835,2237.2105,0,1,3.9965,,0,180,180,149,1,pseudoword,0,REAL,FALSA
,,,,,,,,,666d61258a386185e18da5f8,001,2024-06-30_12h17.23.995,empathy_intonation_perc,2024.1.4,Win32,39.84063745,,,,,,,,,,,,,,35,aurora,,,,,,2237.2249,2241.4861,1,0,3.7183,,0,181,181,34,1,two_way_cognate,1,REAL,FALSA
,,,,,,,,,666d61258a386185e18da5f8,001,2024-06-30_12h17.23.995,empathy_intonation_perc,2024.1.4,Win32,39.84063745,,,,,,,,,,,,,,167,dobbo,,,,,,2241.5009,2251.8736,0,1,9.827,,0,182,182,166,1,pseudoword,0,REAL,FALSA
,,,,,,,,,666d61258a386185e18da5f8,001,2024-06-30_12h17.23.995,empathy_intonation_perc,2024.1.4,Win32,39.84063745,,,,,,,,,,,,,,101,losco,,,,,,2251.8978,2256.5263,0,1,4.0914,,0,183,183,100,1,pseudoword,0,REAL,FALSA
,,,,,,,,,666d61258a386185e18da5f8,001,2024-06-30_12h17.23.995,empathy_intonation_perc,2024.1.4,Win32,39.84063745,,,,,,,,,,,,,,32,animal,,,,,,2256.5395,2260.9276,1,0,3.8443,,0,184,184,31,1,two_way_cognate,1,REAL,FALSA
,,,,,,,,,666d61258a386185e18da5f8,001,2024-06-30_12h17.23.995,empathy_intonation_perc,2024.1.4,Win32,39.84063745,,,,,,,,,,,,,,156,ozoso,,,,,,2260.9426,2265.1033,0,1,3.6196,,0,185,185,155,1,pseudoword,0,REAL,FALSA
,,,,,,,,,666d61258a386185e18da5f8,001,2024-06-30_12h17.23.995,empathy_intonation_perc,2024.1.4,Win32,39.84063745,,,,,,,,,,,,,,180,pupica,,,,,,2265.1266,2274.082,0,1,8.419,,0,186,186,179,1,pseudoword,0,REAL,FALSA
,,,,,,,,,666d61258a386185e18da5f8,001,2024-06-30_12h17.23.995,empathy_intonation_perc,2024.1.4,Win32,39.84063745,,,,,,,,,,,,,,72,rostro,,,,,,2274.1089,2278.634,1,0,3.9964,,0,187,187,71,1,non_cognate,1,REAL,FALSA
,,,,,,,,,666d61258a386185e18da5f8,001,2024-06-30_12h17.23.995,empathy_intonation_perc,2024.1.4,Win32,39.84063745,,,,,,,,,,,,,,137,trugo,,,,,,2278.6567,2283.2368,0,1,4.0525,,0,188,188,136,1,pseudoword,0,REAL,FALSA
,,,,,,,,,666d61258a386185e18da5f8,001,2024-06-30_12h17.23.995,empathy_intonation_perc,2024.1.4,Win32,39.84063745,,,,,,,,,,,,,,141,virios,,,,,,2283.261,2285.8272,0,1,2.0387,,0,189,189,140,1,pseudoword,0,REAL,FALSA
,,,,,,,,,666d61258a386185e18da5f8,001,2024-06-30_12h17.23.995,empathy_intonation_perc,2024.1.4,Win32,39.84063745,,,,,,,,,,,,,,25,vigor,,,,,,2285.8283,2290.1531,0,1,3.7902,,0,190,190,24,1,two_way_cognate,1,REAL,FALSA
,,,,,,,,,666d61258a386185e18da5f8,001,2024-06-30_12h17.23.995,empathy_intonation_perc,2024.1.4,Win32,39.84063745,,,,,,,,,,,,,,23,plural,,,,,,2290.1758,2294.8306,1,0,4.1197,,0,191,191,22,1,three_way_cognate,1,REAL,FALSA
