lextale_instructions.started,lextale_instructions.stopped,lextale_instructions_loop.thisRepN,lextale_instructions_loop.thisTrialN,lextale_instructions_loop.thisN,lextale_instructions_loop.thisIndex,lextale_instructions_loop.ran,instructions_text,continue_text,participant,session,date,expName,psychopyVersion,OS,frameRate,lextale_practice.started,lextale_practice.stopped,key_resp_lextale_practice.keys,key_resp_lextale_practice.corr,key_resp_lextale_practice.rt,key_resp_lextale_practice.duration,lextale_practice_feedback.started,lextale_practice_feedback.stopped,lextale_practice_trials.thisRepN,lextale_practice_trials.thisTrialN,lextale_practice_trials.thisN,lextale_practice_trials.thisIndex,lextale_practice_trials.ran,stim,word,correct_response,prac_button_real,prac_button_false,lextale_check.started,lextale_check.stopped,lextale_trial.started,lextale_trial.stopped,key_resp_lextale_trial.keys,key_resp_lextale_trial.corr,key_resp_lextale_trial.rt,key_resp_lextale_trial.duration,lextail_trials.thisRepN,lextail_trials.thisTrialN,lextail_trials.thisN,lextail_trials.thisIndex,lextail_trials.ran,type,correct_reponse,button_real,button_false
0.001,5.677,0,0,0,0,1,"Este es un test de vocabulario en español. 
  
  A continuación vas a ver 90 secuencias de letras que parecen 'españolas'.
  
  Solo algunas de ellas son palabras de verdad.",(presiona la barra espaciadora para continuar),667c758c5dfc4b24fcfa9e0e,001,2024-06-30_06h50.41.903,empathy_intonation_perc,2024.1.4,Win32,200,,,,,,,,,,,,,,,,,,,,,,,,,,,,,,,,,,,
5.682,7.44,0,1,1,1,1,"Por favor, señala las palabras que tú conoces (aquellas que estás convencido que son palabras españolas, incluso aunque no seas capaz de dar el significado preciso).",(presiona la barra espaciadora para continuar),667c758c5dfc4b24fcfa9e0e,001,2024-06-30_06h50.41.903,empathy_intonation_perc,2024.1.4,Win32,200,,,,,,,,,,,,,,,,,,,,,,,,,,,,,,,,,,,
7.44,7.907,0,2,2,2,1,Pero cuidado: los errores se penalizan. Por eso no tiene sentido tratar de incrementar tu puntuación marcando como reales palabras que nunca has visto.,(presiona la barra espaciadora para continuar),667c758c5dfc4b24fcfa9e0e,001,2024-06-30_06h50.41.903,empathy_intonation_perc,2024.1.4,Win32,200,,,,,,,,,,,,,,,,,,,,,,,,,,,,,,,,,,,
7.907,8.26,0,3,3,3,1,"Presiona la tecla 1 si piensas que es una palabra real y la tecla 
  0 si piensas que es una palabra falsa. 
  
  Vamos a practicar un poco...",(presiona la barra espaciadora para continuar),667c758c5dfc4b24fcfa9e0e,001,2024-06-30_06h50.41.903,empathy_intonation_perc,2024.1.4,Win32,200,,,,,,,,,,,,,,,,,,,,,,,,,,,,,,,,,,,
,,,,,,,,,667c758c5dfc4b24fcfa9e0e,001,2024-06-30_06h50.41.903,empathy_intonation_perc,2024.1.4,Win32,200,8.262,12.365,0,1,3.596,,12.365,13.073,0,0,0,0,1,0,depiste,0,REAL,FALSA,,,,,,,,,,,,,,,,,
,,,,,,,,,667c758c5dfc4b24fcfa9e0e,001,2024-06-30_06h50.41.903,empathy_intonation_perc,2024.1.4,Win32,200,13.077,14.265,1,1,0.685,,14.265,14.644,0,1,1,1,1,0,sí,1,REAL,FALSA,,,,,,,,,,,,,,,,,
,,,,,,,,,667c758c5dfc4b24fcfa9e0e,001,2024-06-30_06h50.41.903,empathy_intonation_perc,2024.1.4,Win32,200,14.644,15.794,1,0,0.644,,15.794,16.218,0,2,2,2,1,0,coné,0,REAL,FALSA,,,,,,,,,,,,,,,,,
,,,,,,,,,667c758c5dfc4b24fcfa9e0e,001,2024-06-30_06h50.41.903,empathy_intonation_perc,2024.1.4,Win32,200,16.219,17.385,1,0,0.657,,17.385,18.385,0,3,3,3,1,0,calpar,0,REAL,FALSA,,,,,,,,,,,,,,,,,
,,,,,,,,,667c758c5dfc4b24fcfa9e0e,001,2024-06-30_06h50.41.903,empathy_intonation_perc,2024.1.4,Win32,200,18.385,19.535,0,1,0.645,,19.535,20.164,0,4,4,4,1,0,joten,0,REAL,FALSA,,,,,,,,,,,,,,,,,
,,,,,,,,,667c758c5dfc4b24fcfa9e0e,001,2024-06-30_06h50.41.903,empathy_intonation_perc,2024.1.4,Win32,200,20.165,21.286,1,1,0.616,,21.286,21.948,0,5,5,5,1,0,sacapuntas,1,REAL,FALSA,,,,,,,,,,,,,,,,,
,,,,,,,,,667c758c5dfc4b24fcfa9e0e,001,2024-06-30_06h50.41.903,empathy_intonation_perc,2024.1.4,Win32,200,21.948,23.118,1,0,0.662,,23.119,23.539,0,6,6,6,1,0,priba,0,REAL,FALSA,,,,,,,,,,,,,,,,,
,,,,,,,,,667c758c5dfc4b24fcfa9e0e,001,2024-06-30_06h50.41.903,empathy_intonation_perc,2024.1.4,Win32,200,23.539,24.698,0,1,0.656,,24.698,25.236,0,7,7,7,1,0,pelasula,0,REAL,FALSA,,,,,,,,,,,,,,,,,
,,,,,,,,,667c758c5dfc4b24fcfa9e0e,001,2024-06-30_06h50.41.903,empathy_intonation_perc,2024.1.4,Win32,200,25.236,26.252,1,1,0.508,,26.252,27.252,0,8,8,8,1,0,bien,1,REAL,FALSA,,,,,,,,,,,,,,,,,
,,,,,,,,,667c758c5dfc4b24fcfa9e0e,001,2024-06-30_06h50.41.903,empathy_intonation_perc,2024.1.4,Win32,200,27.252,28.302,1,1,0.546,,28.302,29.301,0,9,9,9,1,0,casa,1,REAL,FALSA,,,,,,,,,,,,,,,,,
,,,,,,,,,667c758c5dfc4b24fcfa9e0e,001,2024-06-30_06h50.41.903,empathy_intonation_perc,2024.1.4,Win32,200,29.302,30.544,0,1,0.74,,30.544,31.544,0,10,10,10,1,0,lejo,0,REAL,FALSA,,,,,,,,,,,,,,,,,
,,,,,,,,,667c758c5dfc4b24fcfa9e0e,001,2024-06-30_06h50.41.903,empathy_intonation_perc,2024.1.4,Win32,200,31.544,32.756,1,0,0.702,,32.756,33.757,0,11,11,11,1,0,pretantas,0,REAL,FALSA,,,,,,,,,,,,,,,,,
,,,,,,,,,667c758c5dfc4b24fcfa9e0e,001,2024-06-30_06h50.41.903,empathy_intonation_perc,2024.1.4,Win32,200,,,,,,,,,,,,,,,,,,,33.757,34.59,,,,,,,,,,,,,,,
,,,,,,,,,667c758c5dfc4b24fcfa9e0e,001,2024-06-30_06h50.41.903,empathy_intonation_perc,2024.1.4,Win32,200,,,,,,,,,,,,,,176,gripar,,,,,,34.593,36.773,1,0,1.677,,0,0,0,175,1,pseudoword,0,REAL,FALSA
,,,,,,,,,667c758c5dfc4b24fcfa9e0e,001,2024-06-30_06h50.41.903,empathy_intonation_perc,2024.1.4,Win32,200,,,,,,,,,,,,,,156,ozoso,,,,,,36.777,38.085,0,1,0.804,,0,1,1,155,1,pseudoword,0,REAL,FALSA
,,,,,,,,,667c758c5dfc4b24fcfa9e0e,001,2024-06-30_06h50.41.903,empathy_intonation_perc,2024.1.4,Win32,200,,,,,,,,,,,,,,189,medium,,,,,,38.085,39.265,0,1,0.677,,0,2,2,188,1,pseudoword,0,REAL,FALSA
,,,,,,,,,667c758c5dfc4b24fcfa9e0e,001,2024-06-30_06h50.41.903,empathy_intonation_perc,2024.1.4,Win32,200,,,,,,,,,,,,,,36,viable,,,,,,39.265,40.49,0,1,0.72,,0,3,3,35,1,two_way_cognate,1,REAL,FALSA
,,,,,,,,,667c758c5dfc4b24fcfa9e0e,001,2024-06-30_06h50.41.903,empathy_intonation_perc,2024.1.4,Win32,200,,,,,,,,,,,,,,119,esís,,,,,,40.49,42.135,1,0,1.14,,0,4,4,118,1,pseudoword,0,REAL,FALSA
,,,,,,,,,667c758c5dfc4b24fcfa9e0e,001,2024-06-30_06h50.41.903,empathy_intonation_perc,2024.1.4,Win32,200,,,,,,,,,,,,,,155,kugis,,,,,,42.135,43.556,0,1,0.917,,0,5,5,154,1,pseudoword,0,REAL,FALSA
,,,,,,,,,667c758c5dfc4b24fcfa9e0e,001,2024-06-30_06h50.41.903,empathy_intonation_perc,2024.1.4,Win32,200,,,,,,,,,,,,,,7,albino,,,,,,43.556,44.697,0,1,0.637,,0,6,6,6,1,three_way_cognate,1,REAL,FALSA
,,,,,,,,,667c758c5dfc4b24fcfa9e0e,001,2024-06-30_06h50.41.903,empathy_intonation_perc,2024.1.4,Win32,200,,,,,,,,,,,,,,171,gotro,,,,,,44.697,46.164,0,1,0.961,,0,7,7,170,1,pseudoword,0,REAL,FALSA
,,,,,,,,,667c758c5dfc4b24fcfa9e0e,001,2024-06-30_06h50.41.903,empathy_intonation_perc,2024.1.4,Win32,200,,,,,,,,,,,,,,132,nocó,,,,,,46.165,47.447,0,1,0.774,,0,8,8,131,1,pseudoword,0,REAL,FALSA
,,,,,,,,,667c758c5dfc4b24fcfa9e0e,001,2024-06-30_06h50.41.903,empathy_intonation_perc,2024.1.4,Win32,200,,,,,,,,,,,,,,130,dubo,,,,,,47.447,48.843,0,1,0.892,,0,9,9,129,1,pseudoword,0,REAL,FALSA
,,,,,,,,,667c758c5dfc4b24fcfa9e0e,001,2024-06-30_06h50.41.903,empathy_intonation_perc,2024.1.4,Win32,200,,,,,,,,,,,,,,184,huenos,,,,,,48.844,49.935,1,0,0.584,,0,10,10,183,1,pseudoword,0,REAL,FALSA
,,,,,,,,,667c758c5dfc4b24fcfa9e0e,001,2024-06-30_06h50.41.903,empathy_intonation_perc,2024.1.4,Win32,200,,,,,,,,,,,,,,89,muñeca,,,,,,49.936,51.19,0,1,0.748,,0,11,11,88,1,non_cognate,1,REAL,FALSA
,,,,,,,,,667c758c5dfc4b24fcfa9e0e,001,2024-06-30_06h50.41.903,empathy_intonation_perc,2024.1.4,Win32,200,,,,,,,,,,,,,,104,estulo,,,,,,51.19,52.576,1,0,0.883,,0,12,12,103,1,pseudoword,0,REAL,FALSA
,,,,,,,,,667c758c5dfc4b24fcfa9e0e,001,2024-06-30_06h50.41.903,empathy_intonation_perc,2024.1.4,Win32,200,,,,,,,,,,,,,,81,sacar,,,,,,52.577,53.751,0,1,0.672,,0,13,13,80,1,non_cognate,1,REAL,FALSA
,,,,,,,,,667c758c5dfc4b24fcfa9e0e,001,2024-06-30_06h50.41.903,empathy_intonation_perc,2024.1.4,Win32,200,,,,,,,,,,,,,,164,tecia,,,,,,53.752,54.855,1,0,0.596,,0,14,14,163,1,pseudoword,0,REAL,FALSA
,,,,,,,,,667c758c5dfc4b24fcfa9e0e,001,2024-06-30_06h50.41.903,empathy_intonation_perc,2024.1.4,Win32,200,,,,,,,,,,,,,,21,hotel,,,,,,54.856,56.064,0,1,0.703,,0,15,15,20,1,three_way_cognate,1,REAL,FALSA
,,,,,,,,,667c758c5dfc4b24fcfa9e0e,001,2024-06-30_06h50.41.903,empathy_intonation_perc,2024.1.4,Win32,200,,,,,,,,,,,,,,2,tumor,,,,,,56.064,57.14,0,1,0.572,,0,16,16,1,1,three_way_cognate,1,REAL,FALSA
,,,,,,,,,667c758c5dfc4b24fcfa9e0e,001,2024-06-30_06h50.41.903,empathy_intonation_perc,2024.1.4,Win32,200,,,,,,,,,,,,,,18,altar,,,,,,57.14,58.189,0,1,0.542,,0,17,17,17,1,three_way_cognate,1,REAL,FALSA
,,,,,,,,,667c758c5dfc4b24fcfa9e0e,001,2024-06-30_06h50.41.903,empathy_intonation_perc,2024.1.4,Win32,200,,,,,,,,,,,,,,56,pico,,,,,,58.189,59.285,1,0,0.592,,0,18,18,55,1,non_cognate,1,REAL,FALSA
,,,,,,,,,667c758c5dfc4b24fcfa9e0e,001,2024-06-30_06h50.41.903,empathy_intonation_perc,2024.1.4,Win32,200,,,,,,,,,,,,,,113,nasce,,,,,,59.285,60.452,1,0,0.657,,0,19,19,112,1,pseudoword,0,REAL,FALSA
,,,,,,,,,667c758c5dfc4b24fcfa9e0e,001,2024-06-30_06h50.41.903,empathy_intonation_perc,2024.1.4,Win32,200,,,,,,,,,,,,,,59,feo,,,,,,60.452,61.518,0,1,0.562,,0,20,20,58,1,non_cognate,1,REAL,FALSA
,,,,,,,,,667c758c5dfc4b24fcfa9e0e,001,2024-06-30_06h50.41.903,empathy_intonation_perc,2024.1.4,Win32,200,,,,,,,,,,,,,,181,gravés,,,,,,61.518,62.631,1,0,0.609,,0,21,21,180,1,pseudoword,0,REAL,FALSA
,,,,,,,,,667c758c5dfc4b24fcfa9e0e,001,2024-06-30_06h50.41.903,empathy_intonation_perc,2024.1.4,Win32,200,,,,,,,,,,,,,,13,plan,,,,,,62.631,64.002,0,1,0.862,,0,22,22,12,1,three_way_cognate,1,REAL,FALSA
,,,,,,,,,667c758c5dfc4b24fcfa9e0e,001,2024-06-30_06h50.41.903,empathy_intonation_perc,2024.1.4,Win32,200,,,,,,,,,,,,,,75,patada,,,,,,64.002,65.21,1,0,0.699,,0,23,23,74,1,non_cognate,1,REAL,FALSA
,,,,,,,,,667c758c5dfc4b24fcfa9e0e,001,2024-06-30_06h50.41.903,empathy_intonation_perc,2024.1.4,Win32,200,,,,,,,,,,,,,,65,guerra,,,,,,65.21,66.26,1,0,0.547,,0,24,24,64,1,non_cognate,1,REAL,FALSA
,,,,,,,,,667c758c5dfc4b24fcfa9e0e,001,2024-06-30_06h50.41.903,empathy_intonation_perc,2024.1.4,Win32,200,,,,,,,,,,,,,,72,rostro,,,,,,66.26,68.131,1,0,1.366,,0,25,25,71,1,non_cognate,1,REAL,FALSA
,,,,,,,,,667c758c5dfc4b24fcfa9e0e,001,2024-06-30_06h50.41.903,empathy_intonation_perc,2024.1.4,Win32,200,,,,,,,,,,,,,,63,hilo,,,,,,68.131,69.277,1,0,0.642,,0,26,26,62,1,non_cognate,1,REAL,FALSA
,,,,,,,,,667c758c5dfc4b24fcfa9e0e,001,2024-06-30_06h50.41.903,empathy_intonation_perc,2024.1.4,Win32,200,,,,,,,,,,,,,,144,diroco,,,,,,69.277,70.36,1,0,0.573,,0,27,27,143,1,pseudoword,0,REAL,FALSA
,,,,,,,,,667c758c5dfc4b24fcfa9e0e,001,2024-06-30_06h50.41.903,empathy_intonation_perc,2024.1.4,Win32,200,,,,,,,,,,,,,,111,monue,,,,,,70.36,71.798,0,1,0.934,,0,28,28,110,1,pseudoword,0,REAL,FALSA
,,,,,,,,,667c758c5dfc4b24fcfa9e0e,001,2024-06-30_06h50.41.903,empathy_intonation_perc,2024.1.4,Win32,200,,,,,,,,,,,,,,158,babrá,,,,,,71.798,73.31,0,1,1.01,,0,29,29,157,1,pseudoword,0,REAL,FALSA
,,,,,,,,,667c758c5dfc4b24fcfa9e0e,001,2024-06-30_06h50.41.903,empathy_intonation_perc,2024.1.4,Win32,200,,,,,,,,,,,,,,121,barbs,,,,,,73.31,74.835,0,1,1.02,,0,30,30,120,1,pseudoword,0,REAL,FALSA
,,,,,,,,,667c758c5dfc4b24fcfa9e0e,001,2024-06-30_06h50.41.903,empathy_intonation_perc,2024.1.4,Win32,200,,,,,,,,,,,,,,42,rumor,,,,,,74.835,76.022,0,1,0.683,,0,31,31,41,1,two_way_cognate,1,REAL,FALSA
,,,,,,,,,667c758c5dfc4b24fcfa9e0e,001,2024-06-30_06h50.41.903,empathy_intonation_perc,2024.1.4,Win32,200,,,,,,,,,,,,,,1,moral,,,,,,76.023,77.118,0,1,0.588,,0,32,32,0,1,three_way_cognate,1,REAL,FALSA
,,,,,,,,,667c758c5dfc4b24fcfa9e0e,001,2024-06-30_06h50.41.903,empathy_intonation_perc,2024.1.4,Win32,200,,,,,,,,,,,,,,71,torta,,,,,,77.118,78.21,0,1,0.588,,0,33,33,70,1,non_cognate,1,REAL,FALSA
,,,,,,,,,667c758c5dfc4b24fcfa9e0e,001,2024-06-30_06h50.41.903,empathy_intonation_perc,2024.1.4,Win32,200,,,,,,,,,,,,,,179,suelet,,,,,,78.21,79.268,0,1,0.554,,0,34,34,178,1,pseudoword,0,REAL,FALSA
,,,,,,,,,667c758c5dfc4b24fcfa9e0e,001,2024-06-30_06h50.41.903,empathy_intonation_perc,2024.1.4,Win32,200,,,,,,,,,,,,,,147,alla,,,,,,79.268,80.968,0,1,1.194,,0,35,35,146,1,pseudoword,0,REAL,FALSA
,,,,,,,,,667c758c5dfc4b24fcfa9e0e,001,2024-06-30_06h50.41.903,empathy_intonation_perc,2024.1.4,Win32,200,,,,,,,,,,,,,,91,equipo,,,,,,80.968,82.143,1,0,0.67,,0,36,36,90,1,non_cognate,1,REAL,FALSA
,,,,,,,,,667c758c5dfc4b24fcfa9e0e,001,2024-06-30_06h50.41.903,empathy_intonation_perc,2024.1.4,Win32,200,,,,,,,,,,,,,,172,dogue,,,,,,82.143,83.352,0,1,0.702,,0,37,37,171,1,pseudoword,0,REAL,FALSA
,,,,,,,,,667c758c5dfc4b24fcfa9e0e,001,2024-06-30_06h50.41.903,empathy_intonation_perc,2024.1.4,Win32,200,,,,,,,,,,,,,,24,retina,,,,,,83.352,85.048,0,1,1.188,,0,38,38,23,1,three_way_cognate,1,REAL,FALSA
,,,,,,,,,667c758c5dfc4b24fcfa9e0e,001,2024-06-30_06h50.41.903,empathy_intonation_perc,2024.1.4,Win32,200,,,,,,,,,,,,,,51,listo,,,,,,85.048,86.876,1,0,1.321,,0,39,39,50,1,non_cognate,1,REAL,FALSA
,,,,,,,,,667c758c5dfc4b24fcfa9e0e,001,2024-06-30_06h50.41.903,empathy_intonation_perc,2024.1.4,Win32,200,,,,,,,,,,,,,,143,hurcos,,,,,,86.876,88.456,0,1,1.075,,0,40,40,142,1,pseudoword,0,REAL,FALSA
,,,,,,,,,667c758c5dfc4b24fcfa9e0e,001,2024-06-30_06h50.41.903,empathy_intonation_perc,2024.1.4,Win32,200,,,,,,,,,,,,,,9,portal,,,,,,88.456,89.618,0,1,0.657,,0,41,41,8,1,three_way_cognate,1,REAL,FALSA
,,,,,,,,,667c758c5dfc4b24fcfa9e0e,001,2024-06-30_06h50.41.903,empathy_intonation_perc,2024.1.4,Win32,200,,,,,,,,,,,,,,92,flecha,,,,,,89.619,90.976,1,0,0.851,,0,42,42,91,1,non_cognate,1,REAL,FALSA
,,,,,,,,,667c758c5dfc4b24fcfa9e0e,001,2024-06-30_06h50.41.903,empathy_intonation_perc,2024.1.4,Win32,200,,,,,,,,,,,,,,146,gió,,,,,,90.976,92.051,0,1,0.57,,0,43,43,145,1,pseudoword,0,REAL,FALSA
,,,,,,,,,667c758c5dfc4b24fcfa9e0e,001,2024-06-30_06h50.41.903,empathy_intonation_perc,2024.1.4,Win32,200,,,,,,,,,,,,,,84,aviso,,,,,,92.051,93.248,1,0,0.693,,0,44,44,83,1,non_cognate,1,REAL,FALSA
,,,,,,,,,667c758c5dfc4b24fcfa9e0e,001,2024-06-30_06h50.41.903,empathy_intonation_perc,2024.1.4,Win32,200,,,,,,,,,,,,,,120,mauja,,,,,,93.248,94.31,0,1,0.555,,0,45,45,119,1,pseudoword,0,REAL,FALSA
,,,,,,,,,667c758c5dfc4b24fcfa9e0e,001,2024-06-30_06h50.41.903,empathy_intonation_perc,2024.1.4,Win32,200,,,,,,,,,,,,,,60,siglo,,,,,,94.31,95.439,0,1,0.622,,0,46,46,59,1,non_cognate,1,REAL,FALSA
,,,,,,,,,667c758c5dfc4b24fcfa9e0e,001,2024-06-30_06h50.41.903,empathy_intonation_perc,2024.1.4,Win32,200,,,,,,,,,,,,,,180,pupica,,,,,,95.439,97.293,1,0,1.348,,0,47,47,179,1,pseudoword,0,REAL,FALSA
,,,,,,,,,667c758c5dfc4b24fcfa9e0e,001,2024-06-30_06h50.41.903,empathy_intonation_perc,2024.1.4,Win32,200,,,,,,,,,,,,,,108,jauda,,,,,,97.293,99.13,1,0,1.333,,0,48,48,107,1,pseudoword,0,REAL,FALSA
,,,,,,,,,667c758c5dfc4b24fcfa9e0e,001,2024-06-30_06h50.41.903,empathy_intonation_perc,2024.1.4,Win32,200,,,,,,,,,,,,,,67,llamar,,,,,,99.131,100.584,1,0,0.951,,0,49,49,66,1,non_cognate,1,REAL,FALSA
,,,,,,,,,667c758c5dfc4b24fcfa9e0e,001,2024-06-30_06h50.41.903,empathy_intonation_perc,2024.1.4,Win32,200,,,,,,,,,,,,,,83,hálito,,,,,,100.584,101.755,1,0,0.665,,0,50,50,82,1,non_cognate,1,REAL,FALSA
,,,,,,,,,667c758c5dfc4b24fcfa9e0e,001,2024-06-30_06h50.41.903,empathy_intonation_perc,2024.1.4,Win32,200,,,,,,,,,,,,,,19,mafia,,,,,,101.755,102.826,0,1,0.565,,0,51,51,18,1,three_way_cognate,1,REAL,FALSA
,,,,,,,,,667c758c5dfc4b24fcfa9e0e,001,2024-06-30_06h50.41.903,empathy_intonation_perc,2024.1.4,Win32,200,,,,,,,,,,,,,,162,cengo,,,,,,102.827,104.13,0,1,0.795,,0,52,52,161,1,pseudoword,0,REAL,FALSA
,,,,,,,,,667c758c5dfc4b24fcfa9e0e,001,2024-06-30_06h50.41.903,empathy_intonation_perc,2024.1.4,Win32,200,,,,,,,,,,,,,,94,forro,,,,,,104.131,105.476,0,1,0.837,,0,53,53,93,1,non_cognate,1,REAL,FALSA
,,,,,,,,,667c758c5dfc4b24fcfa9e0e,001,2024-06-30_06h50.41.903,empathy_intonation_perc,2024.1.4,Win32,200,,,,,,,,,,,,,,173,mibro,,,,,,105.476,106.793,0,1,0.813,,0,54,54,172,1,pseudoword,0,REAL,FALSA
,,,,,,,,,667c758c5dfc4b24fcfa9e0e,001,2024-06-30_06h50.41.903,empathy_intonation_perc,2024.1.4,Win32,200,,,,,,,,,,,,,,116,grigir,,,,,,106.793,109.852,0,1,2.553,,0,55,55,115,1,pseudoword,0,REAL,FALSA
,,,,,,,,,667c758c5dfc4b24fcfa9e0e,001,2024-06-30_06h50.41.903,empathy_intonation_perc,2024.1.4,Win32,200,,,,,,,,,,,,,,117,morrá,,,,,,109.852,111.368,1,0,1.009,,0,56,56,116,1,pseudoword,0,REAL,FALSA
,,,,,,,,,667c758c5dfc4b24fcfa9e0e,001,2024-06-30_06h50.41.903,empathy_intonation_perc,2024.1.4,Win32,200,,,,,,,,,,,,,,78,rendir,,,,,,111.368,112.859,1,0,0.986,,0,57,57,77,1,non_cognate,1,REAL,FALSA
,,,,,,,,,667c758c5dfc4b24fcfa9e0e,001,2024-06-30_06h50.41.903,empathy_intonation_perc,2024.1.4,Win32,200,,,,,,,,,,,,,,58,colcha,,,,,,112.859,114.23,1,0,0.866,,0,58,58,57,1,non_cognate,1,REAL,FALSA
,,,,,,,,,667c758c5dfc4b24fcfa9e0e,001,2024-06-30_06h50.41.903,empathy_intonation_perc,2024.1.4,Win32,200,,,,,,,,,,,,,,161,civas,,,,,,114.23,115.443,0,1,0.708,,0,59,59,160,1,pseudoword,0,REAL,FALSA
,,,,,,,,,667c758c5dfc4b24fcfa9e0e,001,2024-06-30_06h50.41.903,empathy_intonation_perc,2024.1.4,Win32,200,,,,,,,,,,,,,,153,golla,,,,,,115.443,116.634,0,1,0.687,,0,60,60,152,1,pseudoword,0,REAL,FALSA
,,,,,,,,,667c758c5dfc4b24fcfa9e0e,001,2024-06-30_06h50.41.903,empathy_intonation_perc,2024.1.4,Win32,200,,,,,,,,,,,,,,4,flora,,,,,,116.635,117.888,1,0,0.752,,0,61,61,3,1,three_way_cognate,1,REAL,FALSA
,,,,,,,,,667c758c5dfc4b24fcfa9e0e,001,2024-06-30_06h50.41.903,empathy_intonation_perc,2024.1.4,Win32,200,,,,,,,,,,,,,,48,pelvis,,,,,,117.888,119.013,0,1,0.62,,0,62,62,47,1,two_way_cognate,1,REAL,FALSA
,,,,,,,,,667c758c5dfc4b24fcfa9e0e,001,2024-06-30_06h50.41.903,empathy_intonation_perc,2024.1.4,Win32,200,,,,,,,,,,,,,,96,caro,,,,,,119.013,120.347,1,0,0.829,,0,63,63,95,1,non_cognate,1,REAL,FALSA
,,,,,,,,,667c758c5dfc4b24fcfa9e0e,001,2024-06-30_06h50.41.903,empathy_intonation_perc,2024.1.4,Win32,200,,,,,,,,,,,,,,175,tradía,,,,,,120.347,121.627,1,0,0.773,,0,64,64,174,1,pseudoword,0,REAL,FALSA
,,,,,,,,,667c758c5dfc4b24fcfa9e0e,001,2024-06-30_06h50.41.903,empathy_intonation_perc,2024.1.4,Win32,200,,,,,,,,,,,,,,80,cuenco,,,,,,121.627,122.939,0,1,0.804,,0,65,65,79,1,non_cognate,1,REAL,FALSA
,,,,,,,,,667c758c5dfc4b24fcfa9e0e,001,2024-06-30_06h50.41.903,empathy_intonation_perc,2024.1.4,Win32,200,,,,,,,,,,,,,,30,fiscal,,,,,,122.939,124.468,0,1,1.02,,0,66,66,29,1,two_way_cognate,1,REAL,FALSA
,,,,,,,,,667c758c5dfc4b24fcfa9e0e,001,2024-06-30_06h50.41.903,empathy_intonation_perc,2024.1.4,Win32,200,,,,,,,,,,,,,,125,ceme,,,,,,124.468,125.655,0,1,0.684,,0,67,67,124,1,pseudoword,0,REAL,FALSA
,,,,,,,,,667c758c5dfc4b24fcfa9e0e,001,2024-06-30_06h50.41.903,empathy_intonation_perc,2024.1.4,Win32,200,,,,,,,,,,,,,,61,aduana,,,,,,125.655,127.405,0,1,1.247,,0,68,68,60,1,non_cognate,1,REAL,FALSA
,,,,,,,,,667c758c5dfc4b24fcfa9e0e,001,2024-06-30_06h50.41.903,empathy_intonation_perc,2024.1.4,Win32,200,,,,,,,,,,,,,,192,próces,,,,,,127.405,128.647,1,0,0.737,,0,69,69,191,1,pseudoword,0,REAL,FALSA
,,,,,,,,,667c758c5dfc4b24fcfa9e0e,001,2024-06-30_06h50.41.903,empathy_intonation_perc,2024.1.4,Win32,200,,,,,,,,,,,,,,52,blando,,,,,,128.647,129.834,1,0,0.683,,0,70,70,51,1,non_cognate,1,REAL,FALSA
,,,,,,,,,667c758c5dfc4b24fcfa9e0e,001,2024-06-30_06h50.41.903,empathy_intonation_perc,2024.1.4,Win32,200,,,,,,,,,,,,,,149,emén,,,,,,129.835,131.268,0,1,0.931,,0,71,71,148,1,pseudoword,0,REAL,FALSA
,,,,,,,,,667c758c5dfc4b24fcfa9e0e,001,2024-06-30_06h50.41.903,empathy_intonation_perc,2024.1.4,Win32,200,,,,,,,,,,,,,,37,torso,,,,,,131.268,132.484,0,1,0.709,,0,72,72,36,1,two_way_cognate,1,REAL,FALSA
,,,,,,,,,667c758c5dfc4b24fcfa9e0e,001,2024-06-30_06h50.41.903,empathy_intonation_perc,2024.1.4,Win32,200,,,,,,,,,,,,,,44,editor,,,,,,132.484,133.601,0,1,0.611,,0,73,73,43,1,two_way_cognate,1,REAL,FALSA
,,,,,,,,,667c758c5dfc4b24fcfa9e0e,001,2024-06-30_06h50.41.903,empathy_intonation_perc,2024.1.4,Win32,200,,,,,,,,,,,,,,103,vueras,,,,,,133.601,135.731,0,1,1.623,,0,74,74,102,1,pseudoword,0,REAL,FALSA
,,,,,,,,,667c758c5dfc4b24fcfa9e0e,001,2024-06-30_06h50.41.903,empathy_intonation_perc,2024.1.4,Win32,200,,,,,,,,,,,,,,43,honor,,,,,,135.731,136.893,0,1,0.655,,0,75,75,42,1,two_way_cognate,1,REAL,FALSA
,,,,,,,,,667c758c5dfc4b24fcfa9e0e,001,2024-06-30_06h50.41.903,empathy_intonation_perc,2024.1.4,Win32,200,,,,,,,,,,,,,,115,lidena,,,,,,136.893,138.326,0,1,0.928,,0,76,76,114,1,pseudoword,0,REAL,FALSA
,,,,,,,,,667c758c5dfc4b24fcfa9e0e,001,2024-06-30_06h50.41.903,empathy_intonation_perc,2024.1.4,Win32,200,,,,,,,,,,,,,,39,casual,,,,,,138.326,139.863,0,1,1.028,,0,77,77,38,1,two_way_cognate,1,REAL,FALSA
,,,,,,,,,667c758c5dfc4b24fcfa9e0e,001,2024-06-30_06h50.41.903,empathy_intonation_perc,2024.1.4,Win32,200,,,,,,,,,,,,,,141,virios,,,,,,139.863,141.888,0,1,1.519,,0,78,78,140,1,pseudoword,0,REAL,FALSA
,,,,,,,,,667c758c5dfc4b24fcfa9e0e,001,2024-06-30_06h50.41.903,empathy_intonation_perc,2024.1.4,Win32,200,,,,,,,,,,,,,,150,cricó,,,,,,141.888,143.013,0,1,0.621,,0,79,79,149,1,pseudoword,0,REAL,FALSA
,,,,,,,,,667c758c5dfc4b24fcfa9e0e,001,2024-06-30_06h50.41.903,empathy_intonation_perc,2024.1.4,Win32,200,,,,,,,,,,,,,,25,vigor,,,,,,143.013,144.192,0,1,0.677,,0,80,80,24,1,two_way_cognate,1,REAL,FALSA
,,,,,,,,,667c758c5dfc4b24fcfa9e0e,001,2024-06-30_06h50.41.903,empathy_intonation_perc,2024.1.4,Win32,200,,,,,,,,,,,,,,129,vinzó,,,,,,144.193,145.443,0,1,0.742,,0,81,81,128,1,pseudoword,0,REAL,FALSA
,,,,,,,,,667c758c5dfc4b24fcfa9e0e,001,2024-06-30_06h50.41.903,empathy_intonation_perc,2024.1.4,Win32,200,,,,,,,,,,,,,,126,tobre,,,,,,145.443,146.768,0,1,0.824,,0,82,82,125,1,pseudoword,0,REAL,FALSA
,,,,,,,,,667c758c5dfc4b24fcfa9e0e,001,2024-06-30_06h50.41.903,empathy_intonation_perc,2024.1.4,Win32,200,,,,,,,,,,,,,,62,pegar,,,,,,146.768,147.934,1,0,0.661,,0,83,83,61,1,non_cognate,1,REAL,FALSA
,,,,,,,,,667c758c5dfc4b24fcfa9e0e,001,2024-06-30_06h50.41.903,empathy_intonation_perc,2024.1.4,Win32,200,,,,,,,,,,,,,,79,suelo,,,,,,147.934,149.505,0,1,1.067,,0,84,84,78,1,non_cognate,1,REAL,FALSA
,,,,,,,,,667c758c5dfc4b24fcfa9e0e,001,2024-06-30_06h50.41.903,empathy_intonation_perc,2024.1.4,Win32,200,,,,,,,,,,,,,,168,cobén,,,,,,149.505,151.184,0,1,1.176,,0,85,85,167,1,pseudoword,0,REAL,FALSA
,,,,,,,,,667c758c5dfc4b24fcfa9e0e,001,2024-06-30_06h50.41.903,empathy_intonation_perc,2024.1.4,Win32,200,,,,,,,,,,,,,,142,parre,,,,,,151.184,152.326,1,0,0.64,,0,86,86,141,1,pseudoword,0,REAL,FALSA
,,,,,,,,,667c758c5dfc4b24fcfa9e0e,001,2024-06-30_06h50.41.903,empathy_intonation_perc,2024.1.4,Win32,200,,,,,,,,,,,,,,112,samón,,,,,,152.326,153.734,0,1,0.904,,0,87,87,111,1,pseudoword,0,REAL,FALSA
,,,,,,,,,667c758c5dfc4b24fcfa9e0e,001,2024-06-30_06h50.41.903,empathy_intonation_perc,2024.1.4,Win32,200,,,,,,,,,,,,,,99,bugor,,,,,,153.734,154.901,0,1,0.665,,0,88,88,98,1,pseudoword,0,REAL,FALSA
,,,,,,,,,667c758c5dfc4b24fcfa9e0e,001,2024-06-30_06h50.41.903,empathy_intonation_perc,2024.1.4,Win32,200,,,,,,,,,,,,,,23,plural,,,,,,154.901,156.109,0,1,0.704,,0,89,89,22,1,three_way_cognate,1,REAL,FALSA
,,,,,,,,,667c758c5dfc4b24fcfa9e0e,001,2024-06-30_06h50.41.903,empathy_intonation_perc,2024.1.4,Win32,200,,,,,,,,,,,,,,88,percha,,,,,,156.109,157.371,1,0,0.76,,0,90,90,87,1,non_cognate,1,REAL,FALSA
,,,,,,,,,667c758c5dfc4b24fcfa9e0e,001,2024-06-30_06h50.41.903,empathy_intonation_perc,2024.1.4,Win32,200,,,,,,,,,,,,,,31,civil,,,,,,157.371,158.459,0,1,0.581,,0,91,91,30,1,two_way_cognate,1,REAL,FALSA
,,,,,,,,,667c758c5dfc4b24fcfa9e0e,001,2024-06-30_06h50.41.903,empathy_intonation_perc,2024.1.4,Win32,200,,,,,,,,,,,,,,12,dogma,,,,,,158.459,159.98,0,1,1.019,,0,92,92,11,1,three_way_cognate,1,REAL,FALSA
,,,,,,,,,667c758c5dfc4b24fcfa9e0e,001,2024-06-30_06h50.41.903,empathy_intonation_perc,2024.1.4,Win32,200,,,,,,,,,,,,,,14,aura,,,,,,159.98,161.096,0,1,0.612,,0,93,93,13,1,three_way_cognate,1,REAL,FALSA
,,,,,,,,,667c758c5dfc4b24fcfa9e0e,001,2024-06-30_06h50.41.903,empathy_intonation_perc,2024.1.4,Win32,200,,,,,,,,,,,,,,114,dibrea,,,,,,161.096,162.338,0,1,0.736,,0,94,94,113,1,pseudoword,0,REAL,FALSA
,,,,,,,,,667c758c5dfc4b24fcfa9e0e,001,2024-06-30_06h50.41.903,empathy_intonation_perc,2024.1.4,Win32,200,,,,,,,,,,,,,,152,prave,,,,,,162.338,163.722,0,1,0.88,,0,95,95,151,1,pseudoword,0,REAL,FALSA
,,,,,,,,,667c758c5dfc4b24fcfa9e0e,001,2024-06-30_06h50.41.903,empathy_intonation_perc,2024.1.4,Win32,200,,,,,,,,,,,,,,32,animal,,,,,,163.722,164.946,0,1,0.719,,0,96,96,31,1,two_way_cognate,1,REAL,FALSA
,,,,,,,,,667c758c5dfc4b24fcfa9e0e,001,2024-06-30_06h50.41.903,empathy_intonation_perc,2024.1.4,Win32,200,,,,,,,,,,,,,,163,olzan,,,,,,164.946,166.067,0,1,0.615,,0,97,97,162,1,pseudoword,0,REAL,FALSA
,,,,,,,,,667c758c5dfc4b24fcfa9e0e,001,2024-06-30_06h50.41.903,empathy_intonation_perc,2024.1.4,Win32,200,,,,,,,,,,,,,,50,sierra,,,,,,166.068,168.151,1,0,1.575,,0,98,98,49,1,non_cognate,1,REAL,FALSA
,,,,,,,,,667c758c5dfc4b24fcfa9e0e,001,2024-06-30_06h50.41.903,empathy_intonation_perc,2024.1.4,Win32,200,,,,,,,,,,,,,,11,golf,,,,,,168.151,169.309,0,1,0.651,,0,99,99,10,1,three_way_cognate,1,REAL,FALSA
,,,,,,,,,667c758c5dfc4b24fcfa9e0e,001,2024-06-30_06h50.41.903,empathy_intonation_perc,2024.1.4,Win32,200,,,,,,,,,,,,,,57,regalo,,,,,,169.31,170.684,1,0,0.866,,0,100,100,56,1,non_cognate,1,REAL,FALSA
,,,,,,,,,667c758c5dfc4b24fcfa9e0e,001,2024-06-30_06h50.41.903,empathy_intonation_perc,2024.1.4,Win32,200,,,,,,,,,,,,,,174,pabea,,,,,,170.685,173.188,0,1,1.994,,0,101,101,173,1,pseudoword,0,REAL,FALSA
,,,,,,,,,667c758c5dfc4b24fcfa9e0e,001,2024-06-30_06h50.41.903,empathy_intonation_perc,2024.1.4,Win32,200,,,,,,,,,,,,,,145,rúo,,,,,,173.193,174.584,0,1,0.883,,0,102,102,144,1,pseudoword,0,REAL,FALSA
,,,,,,,,,667c758c5dfc4b24fcfa9e0e,001,2024-06-30_06h50.41.903,empathy_intonation_perc,2024.1.4,Win32,200,,,,,,,,,,,,,,74,ala,,,,,,174.584,175.601,0,1,0.511,,0,103,103,73,1,non_cognate,1,REAL,FALSA
,,,,,,,,,667c758c5dfc4b24fcfa9e0e,001,2024-06-30_06h50.41.903,empathy_intonation_perc,2024.1.4,Win32,200,,,,,,,,,,,,,,157,seled,,,,,,175.601,176.867,0,1,0.76,,0,104,104,156,1,pseudoword,0,REAL,FALSA
,,,,,,,,,667c758c5dfc4b24fcfa9e0e,001,2024-06-30_06h50.41.903,empathy_intonation_perc,2024.1.4,Win32,200,,,,,,,,,,,,,,136,hueas,,,,,,176.867,178.097,1,0,0.724,,0,105,105,135,1,pseudoword,0,REAL,FALSA
,,,,,,,,,667c758c5dfc4b24fcfa9e0e,001,2024-06-30_06h50.41.903,empathy_intonation_perc,2024.1.4,Win32,200,,,,,,,,,,,,,,131,fuar,,,,,,178.097,179.559,0,1,0.959,,0,106,106,130,1,pseudoword,0,REAL,FALSA
,,,,,,,,,667c758c5dfc4b24fcfa9e0e,001,2024-06-30_06h50.41.903,empathy_intonation_perc,2024.1.4,Win32,200,,,,,,,,,,,,,,165,chote,,,,,,179.559,182.951,1,0,2.887,,0,107,107,164,1,pseudoword,0,REAL,FALSA
,,,,,,,,,667c758c5dfc4b24fcfa9e0e,001,2024-06-30_06h50.41.903,empathy_intonation_perc,2024.1.4,Win32,200,,,,,,,,,,,,,,38,halo,,,,,,182.955,184.326,1,0,0.868,,0,108,108,37,1,two_way_cognate,1,REAL,FALSA
,,,,,,,,,667c758c5dfc4b24fcfa9e0e,001,2024-06-30_06h50.41.903,empathy_intonation_perc,2024.1.4,Win32,200,,,,,,,,,,,,,,10,drama,,,,,,184.326,185.626,0,1,0.798,,0,109,109,9,1,three_way_cognate,1,REAL,FALSA
,,,,,,,,,667c758c5dfc4b24fcfa9e0e,001,2024-06-30_06h50.41.903,empathy_intonation_perc,2024.1.4,Win32,200,,,,,,,,,,,,,,166,anfia,,,,,,185.626,186.805,0,1,0.676,,0,110,110,165,1,pseudoword,0,REAL,FALSA
,,,,,,,,,667c758c5dfc4b24fcfa9e0e,001,2024-06-30_06h50.41.903,empathy_intonation_perc,2024.1.4,Win32,200,,,,,,,,,,,,,,148,gino,,,,,,186.805,187.859,0,1,0.55,,0,111,111,147,1,pseudoword,0,REAL,FALSA
,,,,,,,,,667c758c5dfc4b24fcfa9e0e,001,2024-06-30_06h50.41.903,empathy_intonation_perc,2024.1.4,Win32,200,,,,,,,,,,,,,,191,frasis,,,,,,187.859,189.329,0,1,0.963,,0,112,112,190,1,pseudoword,0,REAL,FALSA
,,,,,,,,,667c758c5dfc4b24fcfa9e0e,001,2024-06-30_06h50.41.903,empathy_intonation_perc,2024.1.4,Win32,200,,,,,,,,,,,,,,190,asumie,,,,,,189.329,191.08,1,0,1.245,,0,113,113,189,1,pseudoword,0,REAL,FALSA
,,,,,,,,,667c758c5dfc4b24fcfa9e0e,001,2024-06-30_06h50.41.903,empathy_intonation_perc,2024.1.4,Win32,200,,,,,,,,,,,,,,110,densó,,,,,,191.08,192.347,1,0,0.758,,0,114,114,109,1,pseudoword,0,REAL,FALSA
,,,,,,,,,667c758c5dfc4b24fcfa9e0e,001,2024-06-30_06h50.41.903,empathy_intonation_perc,2024.1.4,Win32,200,,,,,,,,,,,,,,118,bará,,,,,,192.347,193.405,1,0,0.551,,0,115,115,117,1,pseudoword,0,REAL,FALSA
,,,,,,,,,667c758c5dfc4b24fcfa9e0e,001,2024-06-30_06h50.41.903,empathy_intonation_perc,2024.1.4,Win32,200,,,,,,,,,,,,,,98,martir,,,,,,193.405,194.876,1,0,0.965,,0,116,116,97,1,pseudoword,0,REAL,FALSA
,,,,,,,,,667c758c5dfc4b24fcfa9e0e,001,2024-06-30_06h50.41.903,empathy_intonation_perc,2024.1.4,Win32,200,,,,,,,,,,,,,,122,boñaz,,,,,,194.876,196.118,0,1,0.736,,0,117,117,121,1,pseudoword,0,REAL,FALSA
,,,,,,,,,667c758c5dfc4b24fcfa9e0e,001,2024-06-30_06h50.41.903,empathy_intonation_perc,2024.1.4,Win32,200,,,,,,,,,,,,,,187,nomata,,,,,,196.118,197.458,0,1,0.833,,0,118,118,186,1,pseudoword,0,REAL,FALSA
,,,,,,,,,667c758c5dfc4b24fcfa9e0e,001,2024-06-30_06h50.41.903,empathy_intonation_perc,2024.1.4,Win32,200,,,,,,,,,,,,,,185,aljizo,,,,,,197.459,198.83,0,1,0.861,,0,119,119,184,1,pseudoword,0,REAL,FALSA
,,,,,,,,,667c758c5dfc4b24fcfa9e0e,001,2024-06-30_06h50.41.903,empathy_intonation_perc,2024.1.4,Win32,200,,,,,,,,,,,,,,95,listo,,,,,,198.83,199.971,1,0,0.633,,0,120,120,94,1,non_cognate,1,REAL,FALSA
,,,,,,,,,667c758c5dfc4b24fcfa9e0e,001,2024-06-30_06h50.41.903,empathy_intonation_perc,2024.1.4,Win32,200,,,,,,,,,,,,,,102,coyo,,,,,,199.971,201.155,0,1,0.679,,0,121,121,101,1,pseudoword,0,REAL,FALSA
,,,,,,,,,667c758c5dfc4b24fcfa9e0e,001,2024-06-30_06h50.41.903,empathy_intonation_perc,2024.1.4,Win32,200,,,,,,,,,,,,,,186,rizate,,,,,,201.155,203.055,0,1,1.395,,0,122,122,185,1,pseudoword,0,REAL,FALSA
,,,,,,,,,667c758c5dfc4b24fcfa9e0e,001,2024-06-30_06h50.41.903,empathy_intonation_perc,2024.1.4,Win32,200,,,,,,,,,,,,,,68,puñal,,,,,,203.055,204.9,1,0,1.341,,0,123,123,67,1,non_cognate,1,REAL,FALSA
,,,,,,,,,667c758c5dfc4b24fcfa9e0e,001,2024-06-30_06h50.41.903,empathy_intonation_perc,2024.1.4,Win32,200,,,,,,,,,,,,,,49,teñir,,,,,,204.9,206.013,1,0,0.608,,0,124,124,48,1,non_cognate,1,REAL,FALSA
,,,,,,,,,667c758c5dfc4b24fcfa9e0e,001,2024-06-30_06h50.41.903,empathy_intonation_perc,2024.1.4,Win32,200,,,,,,,,,,,,,,5,extra,,,,,,206.013,207.354,0,1,0.835,,0,125,125,4,1,three_way_cognate,1,REAL,FALSA
,,,,,,,,,667c758c5dfc4b24fcfa9e0e,001,2024-06-30_06h50.41.903,empathy_intonation_perc,2024.1.4,Win32,200,,,,,,,,,,,,,,46,mortal,,,,,,207.355,208.947,0,1,1.084,,0,126,126,45,1,two_way_cognate,1,REAL,FALSA
,,,,,,,,,667c758c5dfc4b24fcfa9e0e,001,2024-06-30_06h50.41.903,empathy_intonation_perc,2024.1.4,Win32,200,,,,,,,,,,,,,,47,color,,,,,,208.947,210.259,0,1,0.803,,0,127,127,46,1,two_way_cognate,1,REAL,FALSA
,,,,,,,,,667c758c5dfc4b24fcfa9e0e,001,2024-06-30_06h50.41.903,empathy_intonation_perc,2024.1.4,Win32,200,,,,,,,,,,,,,,6,horror,,,,,,210.259,211.417,0,1,0.651,,0,128,128,5,1,three_way_cognate,1,REAL,FALSA
,,,,,,,,,667c758c5dfc4b24fcfa9e0e,001,2024-06-30_06h50.41.903,empathy_intonation_perc,2024.1.4,Win32,200,,,,,,,,,,,,,,101,losco,,,,,,211.417,212.754,0,1,0.832,,0,129,129,100,1,pseudoword,0,REAL,FALSA
,,,,,,,,,667c758c5dfc4b24fcfa9e0e,001,2024-06-30_06h50.41.903,empathy_intonation_perc,2024.1.4,Win32,200,,,,,,,,,,,,,,170,diabo,,,,,,212.754,214.196,0,1,0.938,,0,130,130,169,1,pseudoword,0,REAL,FALSA
,,,,,,,,,667c758c5dfc4b24fcfa9e0e,001,2024-06-30_06h50.41.903,empathy_intonation_perc,2024.1.4,Win32,200,,,,,,,,,,,,,,15,test,,,,,,214.196,215.567,0,1,0.866,,0,131,131,14,1,three_way_cognate,1,REAL,FALSA
,,,,,,,,,667c758c5dfc4b24fcfa9e0e,001,2024-06-30_06h50.41.903,empathy_intonation_perc,2024.1.4,Win32,200,,,,,,,,,,,,,,55,maldad,,,,,,215.567,216.913,1,0,0.844,,0,132,132,54,1,non_cognate,1,REAL,FALSA
,,,,,,,,,667c758c5dfc4b24fcfa9e0e,001,2024-06-30_06h50.41.903,empathy_intonation_perc,2024.1.4,Win32,200,,,,,,,,,,,,,,66,aleta,,,,,,216.913,218.258,0,1,0.84,,0,133,133,65,1,non_cognate,1,REAL,FALSA
,,,,,,,,,667c758c5dfc4b24fcfa9e0e,001,2024-06-30_06h50.41.903,empathy_intonation_perc,2024.1.4,Win32,200,,,,,,,,,,,,,,105,leniz,,,,,,218.258,219.596,0,1,0.833,,0,134,134,104,1,pseudoword,0,REAL,FALSA
,,,,,,,,,667c758c5dfc4b24fcfa9e0e,001,2024-06-30_06h50.41.903,empathy_intonation_perc,2024.1.4,Win32,200,,,,,,,,,,,,,,188,amplir,,,,,,219.596,220.75,1,0,0.649,,0,135,135,187,1,pseudoword,0,REAL,FALSA
,,,,,,,,,667c758c5dfc4b24fcfa9e0e,001,2024-06-30_06h50.41.903,empathy_intonation_perc,2024.1.4,Win32,200,,,,,,,,,,,,,,154,harvé,,,,,,220.75,223.801,0,1,2.547,,0,136,136,153,1,pseudoword,0,REAL,FALSA
,,,,,,,,,667c758c5dfc4b24fcfa9e0e,001,2024-06-30_06h50.41.903,empathy_intonation_perc,2024.1.4,Win32,200,,,,,,,,,,,,,,41,pasta,,,,,,223.801,225.05,0,1,0.744,,0,137,137,40,1,two_way_cognate,1,REAL,FALSA
,,,,,,,,,667c758c5dfc4b24fcfa9e0e,001,2024-06-30_06h50.41.903,empathy_intonation_perc,2024.1.4,Win32,200,,,,,,,,,,,,,,135,panté,,,,,,225.05,226.291,0,1,0.739,,0,138,138,134,1,pseudoword,0,REAL,FALSA
,,,,,,,,,667c758c5dfc4b24fcfa9e0e,001,2024-06-30_06h50.41.903,empathy_intonation_perc,2024.1.4,Win32,200,,,,,,,,,,,,,,177,entodo,,,,,,226.292,227.555,0,1,0.599,,0,139,139,176,1,pseudoword,0,REAL,FALSA
,,,,,,,,,667c758c5dfc4b24fcfa9e0e,001,2024-06-30_06h50.41.903,empathy_intonation_perc,2024.1.4,Win32,200,,,,,,,,,,,,,,182,desaro,,,,,,227.555,229.017,0,1,0.956,,0,140,140,181,1,pseudoword,0,REAL,FALSA
,,,,,,,,,667c758c5dfc4b24fcfa9e0e,001,2024-06-30_06h50.41.903,empathy_intonation_perc,2024.1.4,Win32,200,,,,,,,,,,,,,,29,clamor,,,,,,229.017,230.158,0,1,0.633,,0,141,141,28,1,two_way_cognate,1,REAL,FALSA
,,,,,,,,,667c758c5dfc4b24fcfa9e0e,001,2024-06-30_06h50.41.903,empathy_intonation_perc,2024.1.4,Win32,200,,,,,,,,,,,,,,35,aurora,,,,,,230.158,231.167,0,1,0.503,,0,142,142,34,1,two_way_cognate,1,REAL,FALSA
,,,,,,,,,667c758c5dfc4b24fcfa9e0e,001,2024-06-30_06h50.41.903,empathy_intonation_perc,2024.1.4,Win32,200,,,,,,,,,,,,,,178,inichó,,,,,,231.167,232.867,1,0,1.195,,0,143,143,177,1,pseudoword,0,REAL,FALSA
,,,,,,,,,667c758c5dfc4b24fcfa9e0e,001,2024-06-30_06h50.41.903,empathy_intonation_perc,2024.1.4,Win32,200,,,,,,,,,,,,,,169,pitis,,,,,,232.867,234.088,0,1,0.719,,0,144,144,168,1,pseudoword,0,REAL,FALSA
,,,,,,,,,667c758c5dfc4b24fcfa9e0e,001,2024-06-30_06h50.41.903,empathy_intonation_perc,2024.1.4,Win32,200,,,,,,,,,,,,,,40,pelvis,,,,,,234.088,235.209,0,1,0.617,,0,145,145,39,1,two_way_cognate,1,REAL,FALSA
,,,,,,,,,667c758c5dfc4b24fcfa9e0e,001,2024-06-30_06h50.41.903,empathy_intonation_perc,2024.1.4,Win32,200,,,,,,,,,,,,,,160,fomeó,,,,,,235.209,237.109,0,1,1.393,,0,146,146,159,1,pseudoword,0,REAL,FALSA
,,,,,,,,,667c758c5dfc4b24fcfa9e0e,001,2024-06-30_06h50.41.903,empathy_intonation_perc,2024.1.4,Win32,200,,,,,,,,,,,,,,20,trauma,,,,,,237.109,238.246,0,1,0.628,,0,147,147,19,1,three_way_cognate,1,REAL,FALSA
,,,,,,,,,667c758c5dfc4b24fcfa9e0e,001,2024-06-30_06h50.41.903,empathy_intonation_perc,2024.1.4,Win32,200,,,,,,,,,,,,,,70,ánimo,,,,,,238.246,239.758,1,0,1.009,,0,148,148,69,1,non_cognate,1,REAL,FALSA
,,,,,,,,,667c758c5dfc4b24fcfa9e0e,001,2024-06-30_06h50.41.903,empathy_intonation_perc,2024.1.4,Win32,200,,,,,,,,,,,,,,133,conso,,,,,,239.758,240.821,0,1,0.559,,0,149,149,132,1,pseudoword,0,REAL,FALSA
,,,,,,,,,667c758c5dfc4b24fcfa9e0e,001,2024-06-30_06h50.41.903,empathy_intonation_perc,2024.1.4,Win32,200,,,,,,,,,,,,,,3,disco,,,,,,240.821,242.075,0,1,0.749,,0,150,150,2,1,three_way_cognate,1,REAL,FALSA
,,,,,,,,,667c758c5dfc4b24fcfa9e0e,001,2024-06-30_06h50.41.903,empathy_intonation_perc,2024.1.4,Win32,200,,,,,,,,,,,,,,107,plago,,,,,,242.076,243.258,1,0,0.676,,0,151,151,106,1,pseudoword,0,REAL,FALSA
,,,,,,,,,667c758c5dfc4b24fcfa9e0e,001,2024-06-30_06h50.41.903,empathy_intonation_perc,2024.1.4,Win32,200,,,,,,,,,,,,,,128,pelí,,,,,,243.258,244.654,0,1,0.891,,0,152,152,127,1,pseudoword,0,REAL,FALSA
,,,,,,,,,667c758c5dfc4b24fcfa9e0e,001,2024-06-30_06h50.41.903,empathy_intonation_perc,2024.1.4,Win32,200,,,,,,,,,,,,,,183,edioso,,,,,,244.654,245.787,1,0,0.629,,0,153,153,182,1,pseudoword,0,REAL,FALSA
,,,,,,,,,667c758c5dfc4b24fcfa9e0e,001,2024-06-30_06h50.41.903,empathy_intonation_perc,2024.1.4,Win32,200,,,,,,,,,,,,,,16,chat,,,,,,245.787,246.829,0,1,0.536,,0,154,154,15,1,three_way_cognate,1,REAL,FALSA
,,,,,,,,,667c758c5dfc4b24fcfa9e0e,001,2024-06-30_06h50.41.903,empathy_intonation_perc,2024.1.4,Win32,200,,,,,,,,,,,,,,85,enorme,,,,,,246.829,248.088,1,0,0.755,,0,155,155,84,1,non_cognate,1,REAL,FALSA
,,,,,,,,,667c758c5dfc4b24fcfa9e0e,001,2024-06-30_06h50.41.903,empathy_intonation_perc,2024.1.4,Win32,200,,,,,,,,,,,,,,45,total,,,,,,248.088,249.291,0,1,0.697,,0,156,156,44,1,two_way_cognate,1,REAL,FALSA
,,,,,,,,,667c758c5dfc4b24fcfa9e0e,001,2024-06-30_06h50.41.903,empathy_intonation_perc,2024.1.4,Win32,200,,,,,,,,,,,,,,54,tapón,,,,,,249.291,250.721,0,1,0.922,,0,157,157,53,1,non_cognate,1,REAL,FALSA
,,,,,,,,,667c758c5dfc4b24fcfa9e0e,001,2024-06-30_06h50.41.903,empathy_intonation_perc,2024.1.4,Win32,200,,,,,,,,,,,,,,69,tiza,,,,,,250.721,251.829,0,1,0.602,,0,158,158,68,1,non_cognate,1,REAL,FALSA
,,,,,,,,,667c758c5dfc4b24fcfa9e0e,001,2024-06-30_06h50.41.903,empathy_intonation_perc,2024.1.4,Win32,200,,,,,,,,,,,,,,159,trcia,,,,,,251.829,252.9,0,1,0.567,,0,159,159,158,1,pseudoword,0,REAL,FALSA
,,,,,,,,,667c758c5dfc4b24fcfa9e0e,001,2024-06-30_06h50.41.903,empathy_intonation_perc,2024.1.4,Win32,200,,,,,,,,,,,,,,100,épinas,,,,,,252.9,254.52,0,1,1.116,,0,160,160,99,1,pseudoword,0,REAL,FALSA
,,,,,,,,,667c758c5dfc4b24fcfa9e0e,001,2024-06-30_06h50.41.903,empathy_intonation_perc,2024.1.4,Win32,200,,,,,,,,,,,,,,151,prías,,,,,,254.521,255.65,0,1,0.619,,0,161,161,150,1,pseudoword,0,REAL,FALSA
,,,,,,,,,667c758c5dfc4b24fcfa9e0e,001,2024-06-30_06h50.41.903,empathy_intonation_perc,2024.1.4,Win32,200,,,,,,,,,,,,,,139,sasos,,,,,,255.651,256.85,0,1,0.691,,0,162,162,138,1,pseudoword,0,REAL,FALSA
,,,,,,,,,667c758c5dfc4b24fcfa9e0e,001,2024-06-30_06h50.41.903,empathy_intonation_perc,2024.1.4,Win32,200,,,,,,,,,,,,,,8,kilo,,,,,,256.851,258.15,1,0,0.792,,0,163,163,7,1,three_way_cognate,1,REAL,FALSA
,,,,,,,,,667c758c5dfc4b24fcfa9e0e,001,2024-06-30_06h50.41.903,empathy_intonation_perc,2024.1.4,Win32,200,,,,,,,,,,,,,,28,ardor,,,,,,258.15,259.491,0,1,0.833,,0,164,164,27,1,two_way_cognate,1,REAL,FALSA
,,,,,,,,,667c758c5dfc4b24fcfa9e0e,001,2024-06-30_06h50.41.903,empathy_intonation_perc,2024.1.4,Win32,200,,,,,,,,,,,,,,137,trugo,,,,,,259.492,260.633,0,1,0.634,,0,165,165,136,1,pseudoword,0,REAL,FALSA
,,,,,,,,,667c758c5dfc4b24fcfa9e0e,001,2024-06-30_06h50.41.903,empathy_intonation_perc,2024.1.4,Win32,200,,,,,,,,,,,,,,124,lobe,,,,,,260.633,263.087,0,1,1.949,,0,166,166,123,1,pseudoword,0,REAL,FALSA
,,,,,,,,,667c758c5dfc4b24fcfa9e0e,001,2024-06-30_06h50.41.903,empathy_intonation_perc,2024.1.4,Win32,200,,,,,,,,,,,,,,87,muleta,,,,,,263.092,264.592,0,1,0.993,,0,167,167,86,1,non_cognate,1,REAL,FALSA
,,,,,,,,,667c758c5dfc4b24fcfa9e0e,001,2024-06-30_06h50.41.903,empathy_intonation_perc,2024.1.4,Win32,200,,,,,,,,,,,,,,34,actor,,,,,,264.592,265.691,0,1,0.59,,0,168,168,33,1,two_way_cognate,1,REAL,FALSA
,,,,,,,,,667c758c5dfc4b24fcfa9e0e,001,2024-06-30_06h50.41.903,empathy_intonation_perc,2024.1.4,Win32,200,,,,,,,,,,,,,,138,tator,,,,,,265.692,267.345,0,1,1.146,,0,169,169,137,1,pseudoword,0,REAL,FALSA
,,,,,,,,,667c758c5dfc4b24fcfa9e0e,001,2024-06-30_06h50.41.903,empathy_intonation_perc,2024.1.4,Win32,200,,,,,,,,,,,,,,27,piano,,,,,,267.345,268.504,0,1,0.656,,0,170,170,26,1,two_way_cognate,1,REAL,FALSA
,,,,,,,,,667c758c5dfc4b24fcfa9e0e,001,2024-06-30_06h50.41.903,empathy_intonation_perc,2024.1.4,Win32,200,,,,,,,,,,,,,,106,diebro,,,,,,268.504,269.949,0,1,0.943,,0,171,171,105,1,pseudoword,0,REAL,FALSA
,,,,,,,,,667c758c5dfc4b24fcfa9e0e,001,2024-06-30_06h50.41.903,empathy_intonation_perc,2024.1.4,Win32,200,,,,,,,,,,,,,,26,enigma,,,,,,269.95,271.395,0,1,0.725,,0,172,172,25,1,two_way_cognate,1,REAL,FALSA
,,,,,,,,,667c758c5dfc4b24fcfa9e0e,001,2024-06-30_06h50.41.903,empathy_intonation_perc,2024.1.4,Win32,200,,,,,,,,,,,,,,167,dobbo,,,,,,271.395,272.475,0,1,0.576,,0,173,173,166,1,pseudoword,0,REAL,FALSA
,,,,,,,,,667c758c5dfc4b24fcfa9e0e,001,2024-06-30_06h50.41.903,empathy_intonation_perc,2024.1.4,Win32,200,,,,,,,,,,,,,,86,cuenco,,,,,,272.475,273.687,0,1,0.705,,0,174,174,85,1,non_cognate,1,REAL,FALSA
,,,,,,,,,667c758c5dfc4b24fcfa9e0e,001,2024-06-30_06h50.41.903,empathy_intonation_perc,2024.1.4,Win32,200,,,,,,,,,,,,,,33,collar,,,,,,273.687,274.917,0,1,0.726,,0,175,175,32,1,two_way_cognate,1,REAL,FALSA
,,,,,,,,,667c758c5dfc4b24fcfa9e0e,001,2024-06-30_06h50.41.903,empathy_intonation_perc,2024.1.4,Win32,200,,,,,,,,,,,,,,97,nocita,,,,,,274.917,276.3,0,1,0.881,,0,176,176,96,1,pseudoword,0,REAL,FALSA
,,,,,,,,,667c758c5dfc4b24fcfa9e0e,001,2024-06-30_06h50.41.903,empathy_intonation_perc,2024.1.4,Win32,200,,,,,,,,,,,,,,123,arane,,,,,,276.3,277.758,0,1,0.955,,0,177,177,122,1,pseudoword,0,REAL,FALSA
,,,,,,,,,667c758c5dfc4b24fcfa9e0e,001,2024-06-30_06h50.41.903,empathy_intonation_perc,2024.1.4,Win32,200,,,,,,,,,,,,,,77,suave,,,,,,277.758,279.212,0,1,0.95,,0,178,178,76,1,non_cognate,1,REAL,FALSA
,,,,,,,,,667c758c5dfc4b24fcfa9e0e,001,2024-06-30_06h50.41.903,empathy_intonation_perc,2024.1.4,Win32,200,,,,,,,,,,,,,,53,punta,,,,,,279.213,280.529,1,0,0.808,,0,179,179,52,1,non_cognate,1,REAL,FALSA
,,,,,,,,,667c758c5dfc4b24fcfa9e0e,001,2024-06-30_06h50.41.903,empathy_intonation_perc,2024.1.4,Win32,200,,,,,,,,,,,,,,93,tapa,,,,,,280.529,283.149,1,0,2.113,,0,180,180,92,1,non_cognate,1,REAL,FALSA
,,,,,,,,,667c758c5dfc4b24fcfa9e0e,001,2024-06-30_06h50.41.903,empathy_intonation_perc,2024.1.4,Win32,200,,,,,,,,,,,,,,17,clan,,,,,,283.155,284.225,0,1,0.56,,0,181,181,16,1,three_way_cognate,1,REAL,FALSA
,,,,,,,,,667c758c5dfc4b24fcfa9e0e,001,2024-06-30_06h50.41.903,empathy_intonation_perc,2024.1.4,Win32,200,,,,,,,,,,,,,,22,mango,,,,,,284.225,286.087,0,1,1.357,,0,182,182,21,1,three_way_cognate,1,REAL,FALSA
,,,,,,,,,667c758c5dfc4b24fcfa9e0e,001,2024-06-30_06h50.41.903,empathy_intonation_perc,2024.1.4,Win32,200,,,,,,,,,,,,,,76,chocar,,,,,,286.087,287.658,0,1,1.066,,0,183,183,75,1,non_cognate,1,REAL,FALSA
,,,,,,,,,667c758c5dfc4b24fcfa9e0e,001,2024-06-30_06h50.41.903,empathy_intonation_perc,2024.1.4,Win32,200,,,,,,,,,,,,,,109,laras,,,,,,287.658,288.758,0,1,0.596,,0,184,184,108,1,pseudoword,0,REAL,FALSA
,,,,,,,,,667c758c5dfc4b24fcfa9e0e,001,2024-06-30_06h50.41.903,empathy_intonation_perc,2024.1.4,Win32,200,,,,,,,,,,,,,,64,rizado,,,,,,288.758,289.866,0,1,0.604,,0,185,185,63,1,non_cognate,1,REAL,FALSA
,,,,,,,,,667c758c5dfc4b24fcfa9e0e,001,2024-06-30_06h50.41.903,empathy_intonation_perc,2024.1.4,Win32,200,,,,,,,,,,,,,,82,brillo,,,,,,289.866,299.174,1,0,8.805,,0,186,186,81,1,non_cognate,1,REAL,FALSA
,,,,,,,,,667c758c5dfc4b24fcfa9e0e,001,2024-06-30_06h50.41.903,empathy_intonation_perc,2024.1.4,Win32,200,,,,,,,,,,,,,,73,llevar,,,,,,299.179,300.591,1,0,0.908,,0,187,187,72,1,non_cognate,1,REAL,FALSA
,,,,,,,,,667c758c5dfc4b24fcfa9e0e,001,2024-06-30_06h50.41.903,empathy_intonation_perc,2024.1.4,Win32,200,,,,,,,,,,,,,,140,chorde,,,,,,300.592,306.77,0,1,5.671,,0,188,188,139,1,pseudoword,0,REAL,FALSA
,,,,,,,,,667c758c5dfc4b24fcfa9e0e,001,2024-06-30_06h50.41.903,empathy_intonation_perc,2024.1.4,Win32,200,,,,,,,,,,,,,,127,vien,,,,,,306.774,309.166,1,0,1.887,,0,189,189,126,1,pseudoword,0,REAL,FALSA
,,,,,,,,,667c758c5dfc4b24fcfa9e0e,001,2024-06-30_06h50.41.903,empathy_intonation_perc,2024.1.4,Win32,200,,,,,,,,,,,,,,90,venado,,,,,,309.166,316.366,1,0,6.696,,0,190,190,89,1,non_cognate,1,REAL,FALSA
,,,,,,,,,667c758c5dfc4b24fcfa9e0e,001,2024-06-30_06h50.41.903,empathy_intonation_perc,2024.1.4,Win32,200,,,,,,,,,,,,,,134,molor,,,,,,316.37,321.662,0,1,4.785,,0,191,191,133,1,pseudoword,0,REAL,FALSA
