key_resp_lextale_trial.keys,key_resp_lextale_trial.corr,key_resp_lextale_trial.rt,trials.thisRepN,trials.thisTrialN,trials.thisN,trials.thisIndex,trials.ran,stim,word,correct_response,button_real,button_false,id,Variety of Spanish that is most familiar to you?,date,expName,psychopyVersion,OS,frameRate,key_resp.keys,key_resp.rt
0,0,1.5101,0,0,0,75,1,76,atar,1,REAL,FAKE,5a08c9a7f2e3460001edb063,Mexican,2022-03-14_12h53.16.209,lextale_sp,2021.2.3,Win32,59.67655308,,
1,0,1.084,0,1,1,34,1,35,rompido,0,REAL,FAKE,5a08c9a7f2e3460001edb063,Mexican,2022-03-14_12h53.16.209,lextale_sp,2021.2.3,Win32,59.67655308,,
0,0,1.293,0,2,2,5,1,6,tergiversar,1,REAL,FAKE,5a08c9a7f2e3460001edb063,Mexican,2022-03-14_12h53.16.209,lextale_sp,2021.2.3,Win32,59.67655308,,
1,0,1.3148,0,3,3,81,1,82,empirador,0,REAL,FAKE,5a08c9a7f2e3460001edb063,Mexican,2022-03-14_12h53.16.209,lextale_sp,2021.2.3,Win32,59.67655308,,
0,0,1.4482,0,4,4,27,1,28,merodear,1,REAL,FAKE,5a08c9a7f2e3460001edb063,Mexican,2022-03-14_12h53.16.209,lextale_sp,2021.2.3,Win32,59.67655308,,
0,0,0.9486,0,5,5,36,1,37,granuja,1,REAL,FAKE,5a08c9a7f2e3460001edb063,Mexican,2022-03-14_12h53.16.209,lextale_sp,2021.2.3,Win32,59.67655308,,
1,1,1.0474,0,6,6,76,1,77,tiburón,1,REAL,FAKE,5a08c9a7f2e3460001edb063,Mexican,2022-03-14_12h53.16.209,lextale_sp,2021.2.3,Win32,59.67655308,,
0,1,1.9508,0,7,7,49,1,50,flamida,0,REAL,FAKE,5a08c9a7f2e3460001edb063,Mexican,2022-03-14_12h53.16.209,lextale_sp,2021.2.3,Win32,59.67655308,,
1,1,1.375,0,8,8,53,1,54,fomentar,1,REAL,FAKE,5a08c9a7f2e3460001edb063,Mexican,2022-03-14_12h53.16.209,lextale_sp,2021.2.3,Win32,59.67655308,,
1,1,0.9589,0,9,9,19,1,20,ávido,1,REAL,FAKE,5a08c9a7f2e3460001edb063,Mexican,2022-03-14_12h53.16.209,lextale_sp,2021.2.3,Win32,59.67655308,,
0,0,1.2328,0,10,10,87,1,88,acantilado,1,REAL,FAKE,5a08c9a7f2e3460001edb063,Mexican,2022-03-14_12h53.16.209,lextale_sp,2021.2.3,Win32,59.67655308,,
0,1,1.7023,0,11,11,31,1,32,fatacidad,0,REAL,FAKE,5a08c9a7f2e3460001edb063,Mexican,2022-03-14_12h53.16.209,lextale_sp,2021.2.3,Win32,59.67655308,,
0,0,1.3534,0,12,12,8,1,9,hacha,1,REAL,FAKE,5a08c9a7f2e3460001edb063,Mexican,2022-03-14_12h53.16.209,lextale_sp,2021.2.3,Win32,59.67655308,,
1,1,2.6327,0,13,13,35,1,36,loro,1,REAL,FAKE,5a08c9a7f2e3460001edb063,Mexican,2022-03-14_12h53.16.209,lextale_sp,2021.2.3,Win32,59.67655308,,
1,1,0.7694,0,14,14,4,1,5,zapato,1,REAL,FAKE,5a08c9a7f2e3460001edb063,Mexican,2022-03-14_12h53.16.209,lextale_sp,2021.2.3,Win32,59.67655308,,
0,0,2.3195,0,15,15,72,1,73,hervidor,1,REAL,FAKE,5a08c9a7f2e3460001edb063,Mexican,2022-03-14_12h53.16.209,lextale_sp,2021.2.3,Win32,59.67655308,,
1,0,1.0196,0,16,16,26,1,27,acutación,0,REAL,FAKE,5a08c9a7f2e3460001edb063,Mexican,2022-03-14_12h53.16.209,lextale_sp,2021.2.3,Win32,59.67655308,,
0,0,0.8097,0,17,17,21,1,22,lacayo,1,REAL,FAKE,5a08c9a7f2e3460001edb063,Mexican,2022-03-14_12h53.16.209,lextale_sp,2021.2.3,Win32,59.67655308,,
1,0,0.934,0,18,18,16,1,17,floroso,0,REAL,FAKE,5a08c9a7f2e3460001edb063,Mexican,2022-03-14_12h53.16.209,lextale_sp,2021.2.3,Win32,59.67655308,,
1,1,0.986,0,19,19,88,1,89,prisa,1,REAL,FAKE,5a08c9a7f2e3460001edb063,Mexican,2022-03-14_12h53.16.209,lextale_sp,2021.2.3,Win32,59.67655308,,
1,1,1.1974,0,20,20,25,1,26,secuestro,1,REAL,FAKE,5a08c9a7f2e3460001edb063,Mexican,2022-03-14_12h53.16.209,lextale_sp,2021.2.3,Win32,59.67655308,,
0,1,1.3772,0,21,21,52,1,53,vegada,0,REAL,FAKE,5a08c9a7f2e3460001edb063,Mexican,2022-03-14_12h53.16.209,lextale_sp,2021.2.3,Win32,59.67655308,,
1,0,1.2294,0,22,22,69,1,70,temblo,0,REAL,FAKE,5a08c9a7f2e3460001edb063,Mexican,2022-03-14_12h53.16.209,lextale_sp,2021.2.3,Win32,59.67655308,,
1,1,0.9793,0,23,23,82,1,83,guante,1,REAL,FAKE,5a08c9a7f2e3460001edb063,Mexican,2022-03-14_12h53.16.209,lextale_sp,2021.2.3,Win32,59.67655308,,
0,0,3.3497,0,24,24,70,1,71,polvoriento,1,REAL,FAKE,5a08c9a7f2e3460001edb063,Mexican,2022-03-14_12h53.16.209,lextale_sp,2021.2.3,Win32,59.67655308,,
1,0,1.0523,0,25,25,3,1,4,batillón,0,REAL,FAKE,5a08c9a7f2e3460001edb063,Mexican,2022-03-14_12h53.16.209,lextale_sp,2021.2.3,Win32,59.67655308,,
1,0,2.7652,0,26,26,28,1,29,decar,0,REAL,FAKE,5a08c9a7f2e3460001edb063,Mexican,2022-03-14_12h53.16.209,lextale_sp,2021.2.3,Win32,59.67655308,,
0,1,0.8473,0,27,27,29,1,30,alardio,0,REAL,FAKE,5a08c9a7f2e3460001edb063,Mexican,2022-03-14_12h53.16.209,lextale_sp,2021.2.3,Win32,59.67655308,,
1,1,0.7356,0,28,28,67,1,68,alegre,1,REAL,FAKE,5a08c9a7f2e3460001edb063,Mexican,2022-03-14_12h53.16.209,lextale_sp,2021.2.3,Win32,59.67655308,,
0,1,1.3794,0,29,29,41,1,42,cadallo,0,REAL,FAKE,5a08c9a7f2e3460001edb063,Mexican,2022-03-14_12h53.16.209,lextale_sp,2021.2.3,Win32,59.67655308,,
0,0,4.2834,0,30,30,84,1,85,laúd,1,REAL,FAKE,5a08c9a7f2e3460001edb063,Mexican,2022-03-14_12h53.16.209,lextale_sp,2021.2.3,Win32,59.67655308,,
0,1,1.5352,0,31,31,86,1,87,grodo,0,REAL,FAKE,5a08c9a7f2e3460001edb063,Mexican,2022-03-14_12h53.16.209,lextale_sp,2021.2.3,Win32,59.67655308,,
0,1,1.1876,0,32,32,71,1,72,pemición,0,REAL,FAKE,5a08c9a7f2e3460001edb063,Mexican,2022-03-14_12h53.16.209,lextale_sp,2021.2.3,Win32,59.67655308,,
1,1,0.7981,0,33,33,30,1,31,pandilla,1,REAL,FAKE,5a08c9a7f2e3460001edb063,Mexican,2022-03-14_12h53.16.209,lextale_sp,2021.2.3,Win32,59.67655308,,
1,1,2.0973,0,34,34,60,1,61,seda,1,REAL,FAKE,5a08c9a7f2e3460001edb063,Mexican,2022-03-14_12h53.16.209,lextale_sp,2021.2.3,Win32,59.67655308,,
1,1,0.9355,0,35,35,51,1,52,camisa,1,REAL,FAKE,5a08c9a7f2e3460001edb063,Mexican,2022-03-14_12h53.16.209,lextale_sp,2021.2.3,Win32,59.67655308,,
1,1,0.7107,0,36,36,63,1,64,orgulloso,1,REAL,FAKE,5a08c9a7f2e3460001edb063,Mexican,2022-03-14_12h53.16.209,lextale_sp,2021.2.3,Win32,59.67655308,,
1,0,2.4292,0,37,37,15,1,16,abracer,0,REAL,FAKE,5a08c9a7f2e3460001edb063,Mexican,2022-03-14_12h53.16.209,lextale_sp,2021.2.3,Win32,59.67655308,,
0,0,0.9331,0,38,38,79,1,80,hormiga,1,REAL,FAKE,5a08c9a7f2e3460001edb063,Mexican,2022-03-14_12h53.16.209,lextale_sp,2021.2.3,Win32,59.67655308,,
1,1,0.9601,0,39,39,2,1,3,pulmones,1,REAL,FAKE,5a08c9a7f2e3460001edb063,Mexican,2022-03-14_12h53.16.209,lextale_sp,2021.2.3,Win32,59.67655308,,
1,1,0.5933,0,40,40,33,1,34,aviso,1,REAL,FAKE,5a08c9a7f2e3460001edb063,Mexican,2022-03-14_12h53.16.209,lextale_sp,2021.2.3,Win32,59.67655308,,
1,1,0.9951,0,41,41,80,1,81,pozo,1,REAL,FAKE,5a08c9a7f2e3460001edb063,Mexican,2022-03-14_12h53.16.209,lextale_sp,2021.2.3,Win32,59.67655308,,
1,0,0.9832,0,42,42,65,1,66,hacido,0,REAL,FAKE,5a08c9a7f2e3460001edb063,Mexican,2022-03-14_12h53.16.209,lextale_sp,2021.2.3,Win32,59.67655308,,
1,0,2.3617,0,43,43,62,1,63,esposante,0,REAL,FAKE,5a08c9a7f2e3460001edb063,Mexican,2022-03-14_12h53.16.209,lextale_sp,2021.2.3,Win32,59.67655308,,
0,0,0.7676,0,44,44,24,1,25,bisagra,1,REAL,FAKE,5a08c9a7f2e3460001edb063,Mexican,2022-03-14_12h53.16.209,lextale_sp,2021.2.3,Win32,59.67655308,,
1,1,0.8802,0,45,45,38,1,39,torpe,1,REAL,FAKE,5a08c9a7f2e3460001edb063,Mexican,2022-03-14_12h53.16.209,lextale_sp,2021.2.3,Win32,59.67655308,,
0,0,1.0164,0,46,46,89,1,90,clavel,1,REAL,FAKE,5a08c9a7f2e3460001edb063,Mexican,2022-03-14_12h53.16.209,lextale_sp,2021.2.3,Win32,59.67655308,,
0,0,2.9802,0,47,47,37,1,38,estornudar,1,REAL,FAKE,5a08c9a7f2e3460001edb063,Mexican,2022-03-14_12h53.16.209,lextale_sp,2021.2.3,Win32,59.67655308,,
0,1,1.1021,0,48,48,73,1,74,cintro,0,REAL,FAKE,5a08c9a7f2e3460001edb063,Mexican,2022-03-14_12h53.16.209,lextale_sp,2021.2.3,Win32,59.67655308,,
0,1,0.9544,0,49,49,83,1,84,escuto,0,REAL,FAKE,5a08c9a7f2e3460001edb063,Mexican,2022-03-14_12h53.16.209,lextale_sp,2021.2.3,Win32,59.67655308,,
0,1,1.334,0,50,50,18,1,19,brecedad,0,REAL,FAKE,5a08c9a7f2e3460001edb063,Mexican,2022-03-14_12h53.16.209,lextale_sp,2021.2.3,Win32,59.67655308,,
1,1,0.6229,0,51,51,59,1,60,matar,1,REAL,FAKE,5a08c9a7f2e3460001edb063,Mexican,2022-03-14_12h53.16.209,lextale_sp,2021.2.3,Win32,59.67655308,,
1,1,0.6361,0,52,52,47,1,48,ladrón,1,REAL,FAKE,5a08c9a7f2e3460001edb063,Mexican,2022-03-14_12h53.16.209,lextale_sp,2021.2.3,Win32,59.67655308,,
0,0,0.8002,0,53,53,12,1,13,helar,1,REAL,FAKE,5a08c9a7f2e3460001edb063,Mexican,2022-03-14_12h53.16.209,lextale_sp,2021.2.3,Win32,59.67655308,,
1,1,0.7183,0,54,54,66,1,67,cabello,1,REAL,FAKE,5a08c9a7f2e3460001edb063,Mexican,2022-03-14_12h53.16.209,lextale_sp,2021.2.3,Win32,59.67655308,,
1,1,0.9173,0,55,55,14,1,15,regar,1,REAL,FAKE,5a08c9a7f2e3460001edb063,Mexican,2022-03-14_12h53.16.209,lextale_sp,2021.2.3,Win32,59.67655308,,
1,0,0.727,0,56,56,7,1,8,cadeña,0,REAL,FAKE,5a08c9a7f2e3460001edb063,Mexican,2022-03-14_12h53.16.209,lextale_sp,2021.2.3,Win32,59.67655308,,
0,1,0.7401,0,57,57,0,1,1,terzo,0,REAL,FAKE,5a08c9a7f2e3460001edb063,Mexican,2022-03-14_12h53.16.209,lextale_sp,2021.2.3,Win32,59.67655308,,
0,1,0.8335,0,58,58,17,1,18,arsa,0,REAL,FAKE,5a08c9a7f2e3460001edb063,Mexican,2022-03-14_12h53.16.209,lextale_sp,2021.2.3,Win32,59.67655308,,
1,1,0.6669,0,59,59,85,1,86,barato,1,REAL,FAKE,5a08c9a7f2e3460001edb063,Mexican,2022-03-14_12h53.16.209,lextale_sp,2021.2.3,Win32,59.67655308,,
0,1,2.2615,0,60,60,22,1,23,lampera,0,REAL,FAKE,5a08c9a7f2e3460001edb063,Mexican,2022-03-14_12h53.16.209,lextale_sp,2021.2.3,Win32,59.67655308,,
1,1,1.0766,0,61,61,40,1,41,rebuscar,1,REAL,FAKE,5a08c9a7f2e3460001edb063,Mexican,2022-03-14_12h53.16.209,lextale_sp,2021.2.3,Win32,59.67655308,,
1,1,0.8016,0,62,62,54,1,55,nevar,1,REAL,FAKE,5a08c9a7f2e3460001edb063,Mexican,2022-03-14_12h53.16.209,lextale_sp,2021.2.3,Win32,59.67655308,,
1,1,2.624,0,63,63,50,1,51,candado,1,REAL,FAKE,5a08c9a7f2e3460001edb063,Mexican,2022-03-14_12h53.16.209,lextale_sp,2021.2.3,Win32,59.67655308,,
1,1,0.8361,0,64,64,56,1,57,tacaño,1,REAL,FAKE,5a08c9a7f2e3460001edb063,Mexican,2022-03-14_12h53.16.209,lextale_sp,2021.2.3,Win32,59.67655308,,
0,0,2.8014,0,65,65,77,1,78,frondoso,1,REAL,FAKE,5a08c9a7f2e3460001edb063,Mexican,2022-03-14_12h53.16.209,lextale_sp,2021.2.3,Win32,59.67655308,,
0,0,0.7262,0,66,66,74,1,75,yacer,1,REAL,FAKE,5a08c9a7f2e3460001edb063,Mexican,2022-03-14_12h53.16.209,lextale_sp,2021.2.3,Win32,59.67655308,,
0,0,1.2124,0,67,67,68,1,69,engatusar,1,REAL,FAKE,5a08c9a7f2e3460001edb063,Mexican,2022-03-14_12h53.16.209,lextale_sp,2021.2.3,Win32,59.67655308,,
1,1,0.6499,0,68,68,61,1,62,flaco,1,REAL,FAKE,5a08c9a7f2e3460001edb063,Mexican,2022-03-14_12h53.16.209,lextale_sp,2021.2.3,Win32,59.67655308,,
1,1,0.8338,0,69,69,11,1,12,asesinato,1,REAL,FAKE,5a08c9a7f2e3460001edb063,Mexican,2022-03-14_12h53.16.209,lextale_sp,2021.2.3,Win32,59.67655308,,
0,1,1.1022,0,70,70,57,1,58,plaudir,0,REAL,FAKE,5a08c9a7f2e3460001edb063,Mexican,2022-03-14_12h53.16.209,lextale_sp,2021.2.3,Win32,59.67655308,,
1,1,0.6661,0,71,71,58,1,59,besar,1,REAL,FAKE,5a08c9a7f2e3460001edb063,Mexican,2022-03-14_12h53.16.209,lextale_sp,2021.2.3,Win32,59.67655308,,
0,1,1.0103,0,72,72,46,1,47,cartinar,0,REAL,FAKE,5a08c9a7f2e3460001edb063,Mexican,2022-03-14_12h53.16.209,lextale_sp,2021.2.3,Win32,59.67655308,,
1,1,1.1039,0,73,73,39,1,40,alfombra,1,REAL,FAKE,5a08c9a7f2e3460001edb063,Mexican,2022-03-14_12h53.16.209,lextale_sp,2021.2.3,Win32,59.67655308,,
1,1,1.0055,0,74,74,43,1,44,cuchara,1,REAL,FAKE,5a08c9a7f2e3460001edb063,Mexican,2022-03-14_12h53.16.209,lextale_sp,2021.2.3,Win32,59.67655308,,
0,1,0.7688,0,75,75,9,1,10,antar,0,REAL,FAKE,5a08c9a7f2e3460001edb063,Mexican,2022-03-14_12h53.16.209,lextale_sp,2021.2.3,Win32,59.67655308,,
0,1,0.7891,0,76,76,32,1,33,pauca,0,REAL,FAKE,5a08c9a7f2e3460001edb063,Mexican,2022-03-14_12h53.16.209,lextale_sp,2021.2.3,Win32,59.67655308,,
0,1,2.9364,0,77,77,20,1,21,capillo,0,REAL,FAKE,5a08c9a7f2e3460001edb063,Mexican,2022-03-14_12h53.16.209,lextale_sp,2021.2.3,Win32,59.67655308,,
0,0,0.8871,0,78,78,44,1,45,jilguero,1,REAL,FAKE,5a08c9a7f2e3460001edb063,Mexican,2022-03-14_12h53.16.209,lextale_sp,2021.2.3,Win32,59.67655308,,
0,0,0.8295,0,79,79,55,1,56,musgo,1,REAL,FAKE,5a08c9a7f2e3460001edb063,Mexican,2022-03-14_12h53.16.209,lextale_sp,2021.2.3,Win32,59.67655308,,
0,0,2.3085,0,80,80,64,1,65,bizcocho,1,REAL,FAKE,5a08c9a7f2e3460001edb063,Mexican,2022-03-14_12h53.16.209,lextale_sp,2021.2.3,Win32,59.67655308,,
0,0,0.678,0,81,81,1,1,2,pellizcar,1,REAL,FAKE,5a08c9a7f2e3460001edb063,Mexican,2022-03-14_12h53.16.209,lextale_sp,2021.2.3,Win32,59.67655308,,
0,1,1.4516,0,82,82,78,1,79,tropaje,0,REAL,FAKE,5a08c9a7f2e3460001edb063,Mexican,2022-03-14_12h53.16.209,lextale_sp,2021.2.3,Win32,59.67655308,,
0,0,1.2352,0,83,83,45,1,46,martillo,1,REAL,FAKE,5a08c9a7f2e3460001edb063,Mexican,2022-03-14_12h53.16.209,lextale_sp,2021.2.3,Win32,59.67655308,,
1,1,0.7935,0,84,84,48,1,49,ganar,1,REAL,FAKE,5a08c9a7f2e3460001edb063,Mexican,2022-03-14_12h53.16.209,lextale_sp,2021.2.3,Win32,59.67655308,,
0,0,0.6461,0,85,85,10,1,11,cenefa,1,REAL,FAKE,5a08c9a7f2e3460001edb063,Mexican,2022-03-14_12h53.16.209,lextale_sp,2021.2.3,Win32,59.67655308,,
0,0,0.7625,0,86,86,23,1,24,látigo,1,REAL,FAKE,5a08c9a7f2e3460001edb063,Mexican,2022-03-14_12h53.16.209,lextale_sp,2021.2.3,Win32,59.67655308,,
0,0,1.11,0,87,87,13,1,14,yunque,1,REAL,FAKE,5a08c9a7f2e3460001edb063,Mexican,2022-03-14_12h53.16.209,lextale_sp,2021.2.3,Win32,59.67655308,,
1,1,1.0507,0,88,88,6,1,7,pésimo,1,REAL,FAKE,5a08c9a7f2e3460001edb063,Mexican,2022-03-14_12h53.16.209,lextale_sp,2021.2.3,Win32,59.67655308,,
0,0,0.8337,0,89,89,42,1,43,canela,1,REAL,FAKE,5a08c9a7f2e3460001edb063,Mexican,2022-03-14_12h53.16.209,lextale_sp,2021.2.3,Win32,59.67655308,,
,,,,,,,,,,,,,5a08c9a7f2e3460001edb063,Mexican,2022-03-14_12h53.16.209,lextale_sp,2021.2.3,Win32,59.67655308,space,3.4397
