key_resp_lextale_trial.keys,key_resp_lextale_trial.corr,key_resp_lextale_trial.rt,trials.thisRepN,trials.thisTrialN,trials.thisN,trials.thisIndex,trials.ran,stim,word,correct_response,button_real,button_false,id,Variety of Spanish that is most familiar to you?,date,expName,psychopyVersion,OS,frameRate,key_resp.keys,key_resp.rt
0,1,2.2721,0,0,0,18,1,19,brecedad,0,REAL,FAKE,610b5ab7c6387ecf37ea0630,castellano,2022-03-17_09h43.13.004,lextale_sp,2021.2.3,Win32,60.0024001,,
0,1,1.0087,0,1,1,32,1,33,pauca,0,REAL,FAKE,610b5ab7c6387ecf37ea0630,castellano,2022-03-17_09h43.13.004,lextale_sp,2021.2.3,Win32,60.0024001,,
1,0,0.7871,0,2,2,65,1,66,hacido,0,REAL,FAKE,610b5ab7c6387ecf37ea0630,castellano,2022-03-17_09h43.13.004,lextale_sp,2021.2.3,Win32,60.0024001,,
1,1,0.8546,0,3,3,47,1,48,ladrón,1,REAL,FAKE,610b5ab7c6387ecf37ea0630,castellano,2022-03-17_09h43.13.004,lextale_sp,2021.2.3,Win32,60.0024001,,
0,0,0.8473,0,4,4,8,1,9,hacha,1,REAL,FAKE,610b5ab7c6387ecf37ea0630,castellano,2022-03-17_09h43.13.004,lextale_sp,2021.2.3,Win32,60.0024001,,
0,1,0.9358,0,5,5,57,1,58,plaudir,0,REAL,FAKE,610b5ab7c6387ecf37ea0630,castellano,2022-03-17_09h43.13.004,lextale_sp,2021.2.3,Win32,60.0024001,,
0,0,0.734,0,6,6,27,1,28,merodear,1,REAL,FAKE,610b5ab7c6387ecf37ea0630,castellano,2022-03-17_09h43.13.004,lextale_sp,2021.2.3,Win32,60.0024001,,
1,1,0.8505,0,7,7,30,1,31,pandilla,1,REAL,FAKE,610b5ab7c6387ecf37ea0630,castellano,2022-03-17_09h43.13.004,lextale_sp,2021.2.3,Win32,60.0024001,,
1,1,0.7157,0,8,8,6,1,7,pésimo,1,REAL,FAKE,610b5ab7c6387ecf37ea0630,castellano,2022-03-17_09h43.13.004,lextale_sp,2021.2.3,Win32,60.0024001,,
1,1,0.7538,0,9,9,85,1,86,barato,1,REAL,FAKE,610b5ab7c6387ecf37ea0630,castellano,2022-03-17_09h43.13.004,lextale_sp,2021.2.3,Win32,60.0024001,,
1,0,0.9024,0,10,10,16,1,17,floroso,0,REAL,FAKE,610b5ab7c6387ecf37ea0630,castellano,2022-03-17_09h43.13.004,lextale_sp,2021.2.3,Win32,60.0024001,,
1,1,0.7322,0,11,11,36,1,37,granuja,1,REAL,FAKE,610b5ab7c6387ecf37ea0630,castellano,2022-03-17_09h43.13.004,lextale_sp,2021.2.3,Win32,60.0024001,,
0,0,0.6512,0,12,12,84,1,85,laúd,1,REAL,FAKE,610b5ab7c6387ecf37ea0630,castellano,2022-03-17_09h43.13.004,lextale_sp,2021.2.3,Win32,60.0024001,,
0,1,1.0334,0,13,13,71,1,72,pemición,0,REAL,FAKE,610b5ab7c6387ecf37ea0630,castellano,2022-03-17_09h43.13.004,lextale_sp,2021.2.3,Win32,60.0024001,,
1,1,0.9343,0,14,14,13,1,14,yunque,1,REAL,FAKE,610b5ab7c6387ecf37ea0630,castellano,2022-03-17_09h43.13.004,lextale_sp,2021.2.3,Win32,60.0024001,,
0,1,0.8909,0,15,15,31,1,32,fatacidad,0,REAL,FAKE,610b5ab7c6387ecf37ea0630,castellano,2022-03-17_09h43.13.004,lextale_sp,2021.2.3,Win32,60.0024001,,
1,0,0.7967,0,16,16,0,1,1,terzo,0,REAL,FAKE,610b5ab7c6387ecf37ea0630,castellano,2022-03-17_09h43.13.004,lextale_sp,2021.2.3,Win32,60.0024001,,
0,1,0.726,0,17,17,7,1,8,cadeña,0,REAL,FAKE,610b5ab7c6387ecf37ea0630,castellano,2022-03-17_09h43.13.004,lextale_sp,2021.2.3,Win32,60.0024001,,
1,1,0.7559,0,18,18,79,1,80,hormiga,1,REAL,FAKE,610b5ab7c6387ecf37ea0630,castellano,2022-03-17_09h43.13.004,lextale_sp,2021.2.3,Win32,60.0024001,,
1,1,0.7608,0,19,19,77,1,78,frondoso,1,REAL,FAKE,610b5ab7c6387ecf37ea0630,castellano,2022-03-17_09h43.13.004,lextale_sp,2021.2.3,Win32,60.0024001,,
0,0,0.7971,0,20,20,5,1,6,tergiversar,1,REAL,FAKE,610b5ab7c6387ecf37ea0630,castellano,2022-03-17_09h43.13.004,lextale_sp,2021.2.3,Win32,60.0024001,,
0,1,0.8484,0,21,21,49,1,50,flamida,0,REAL,FAKE,610b5ab7c6387ecf37ea0630,castellano,2022-03-17_09h43.13.004,lextale_sp,2021.2.3,Win32,60.0024001,,
0,0,0.9467,0,22,22,24,1,25,bisagra,1,REAL,FAKE,610b5ab7c6387ecf37ea0630,castellano,2022-03-17_09h43.13.004,lextale_sp,2021.2.3,Win32,60.0024001,,
0,1,0.6868,0,23,23,28,1,29,decar,0,REAL,FAKE,610b5ab7c6387ecf37ea0630,castellano,2022-03-17_09h43.13.004,lextale_sp,2021.2.3,Win32,60.0024001,,
1,1,0.6544,0,24,24,2,1,3,pulmones,1,REAL,FAKE,610b5ab7c6387ecf37ea0630,castellano,2022-03-17_09h43.13.004,lextale_sp,2021.2.3,Win32,60.0024001,,
1,1,0.7752,0,25,25,64,1,65,bizcocho,1,REAL,FAKE,610b5ab7c6387ecf37ea0630,castellano,2022-03-17_09h43.13.004,lextale_sp,2021.2.3,Win32,60.0024001,,
0,0,0.8512,0,26,26,87,1,88,acantilado,1,REAL,FAKE,610b5ab7c6387ecf37ea0630,castellano,2022-03-17_09h43.13.004,lextale_sp,2021.2.3,Win32,60.0024001,,
1,1,0.597,0,27,27,14,1,15,regar,1,REAL,FAKE,610b5ab7c6387ecf37ea0630,castellano,2022-03-17_09h43.13.004,lextale_sp,2021.2.3,Win32,60.0024001,,
1,0,0.5914,0,28,28,34,1,35,rompido,0,REAL,FAKE,610b5ab7c6387ecf37ea0630,castellano,2022-03-17_09h43.13.004,lextale_sp,2021.2.3,Win32,60.0024001,,
1,1,0.8188,0,29,29,72,1,73,hervidor,1,REAL,FAKE,610b5ab7c6387ecf37ea0630,castellano,2022-03-17_09h43.13.004,lextale_sp,2021.2.3,Win32,60.0024001,,
1,1,0.8337,0,30,30,54,1,55,nevar,1,REAL,FAKE,610b5ab7c6387ecf37ea0630,castellano,2022-03-17_09h43.13.004,lextale_sp,2021.2.3,Win32,60.0024001,,
1,1,0.8069,0,31,31,37,1,38,estornudar,1,REAL,FAKE,610b5ab7c6387ecf37ea0630,castellano,2022-03-17_09h43.13.004,lextale_sp,2021.2.3,Win32,60.0024001,,
1,0,0.8176,0,32,32,20,1,21,capillo,0,REAL,FAKE,610b5ab7c6387ecf37ea0630,castellano,2022-03-17_09h43.13.004,lextale_sp,2021.2.3,Win32,60.0024001,,
1,1,0.7472,0,33,33,25,1,26,secuestro,1,REAL,FAKE,610b5ab7c6387ecf37ea0630,castellano,2022-03-17_09h43.13.004,lextale_sp,2021.2.3,Win32,60.0024001,,
1,1,0.7052,0,34,34,56,1,57,tacaño,1,REAL,FAKE,610b5ab7c6387ecf37ea0630,castellano,2022-03-17_09h43.13.004,lextale_sp,2021.2.3,Win32,60.0024001,,
1,0,0.8079,0,35,35,83,1,84,escuto,0,REAL,FAKE,610b5ab7c6387ecf37ea0630,castellano,2022-03-17_09h43.13.004,lextale_sp,2021.2.3,Win32,60.0024001,,
0,1,0.8352,0,36,36,22,1,23,lampera,0,REAL,FAKE,610b5ab7c6387ecf37ea0630,castellano,2022-03-17_09h43.13.004,lextale_sp,2021.2.3,Win32,60.0024001,,
0,1,0.6837,0,37,37,69,1,70,temblo,0,REAL,FAKE,610b5ab7c6387ecf37ea0630,castellano,2022-03-17_09h43.13.004,lextale_sp,2021.2.3,Win32,60.0024001,,
0,1,0.7406,0,38,38,26,1,27,acutación,0,REAL,FAKE,610b5ab7c6387ecf37ea0630,castellano,2022-03-17_09h43.13.004,lextale_sp,2021.2.3,Win32,60.0024001,,
0,0,0.675,0,39,39,1,1,2,pellizcar,1,REAL,FAKE,610b5ab7c6387ecf37ea0630,castellano,2022-03-17_09h43.13.004,lextale_sp,2021.2.3,Win32,60.0024001,,
0,1,0.7317,0,40,40,29,1,30,alardio,0,REAL,FAKE,610b5ab7c6387ecf37ea0630,castellano,2022-03-17_09h43.13.004,lextale_sp,2021.2.3,Win32,60.0024001,,
0,1,0.6807,0,41,41,46,1,47,cartinar,0,REAL,FAKE,610b5ab7c6387ecf37ea0630,castellano,2022-03-17_09h43.13.004,lextale_sp,2021.2.3,Win32,60.0024001,,
1,1,0.6647,0,42,42,58,1,59,besar,1,REAL,FAKE,610b5ab7c6387ecf37ea0630,castellano,2022-03-17_09h43.13.004,lextale_sp,2021.2.3,Win32,60.0024001,,
1,1,0.6806,0,43,43,66,1,67,cabello,1,REAL,FAKE,610b5ab7c6387ecf37ea0630,castellano,2022-03-17_09h43.13.004,lextale_sp,2021.2.3,Win32,60.0024001,,
1,1,0.7205,0,44,44,61,1,62,flaco,1,REAL,FAKE,610b5ab7c6387ecf37ea0630,castellano,2022-03-17_09h43.13.004,lextale_sp,2021.2.3,Win32,60.0024001,,
0,0,0.7184,0,45,45,21,1,22,lacayo,1,REAL,FAKE,610b5ab7c6387ecf37ea0630,castellano,2022-03-17_09h43.13.004,lextale_sp,2021.2.3,Win32,60.0024001,,
0,1,0.6466,0,46,46,78,1,79,tropaje,0,REAL,FAKE,610b5ab7c6387ecf37ea0630,castellano,2022-03-17_09h43.13.004,lextale_sp,2021.2.3,Win32,60.0024001,,
1,1,0.653,0,47,47,63,1,64,orgulloso,1,REAL,FAKE,610b5ab7c6387ecf37ea0630,castellano,2022-03-17_09h43.13.004,lextale_sp,2021.2.3,Win32,60.0024001,,
0,0,0.7002,0,48,48,89,1,90,clavel,1,REAL,FAKE,610b5ab7c6387ecf37ea0630,castellano,2022-03-17_09h43.13.004,lextale_sp,2021.2.3,Win32,60.0024001,,
0,1,0.6846,0,49,49,41,1,42,cadallo,0,REAL,FAKE,610b5ab7c6387ecf37ea0630,castellano,2022-03-17_09h43.13.004,lextale_sp,2021.2.3,Win32,60.0024001,,
1,1,0.6927,0,50,50,33,1,34,aviso,1,REAL,FAKE,610b5ab7c6387ecf37ea0630,castellano,2022-03-17_09h43.13.004,lextale_sp,2021.2.3,Win32,60.0024001,,
1,0,0.7399,0,51,51,62,1,63,esposante,0,REAL,FAKE,610b5ab7c6387ecf37ea0630,castellano,2022-03-17_09h43.13.004,lextale_sp,2021.2.3,Win32,60.0024001,,
1,1,0.7373,0,52,52,82,1,83,guante,1,REAL,FAKE,610b5ab7c6387ecf37ea0630,castellano,2022-03-17_09h43.13.004,lextale_sp,2021.2.3,Win32,60.0024001,,
1,0,0.5832,0,53,53,9,1,10,antar,0,REAL,FAKE,610b5ab7c6387ecf37ea0630,castellano,2022-03-17_09h43.13.004,lextale_sp,2021.2.3,Win32,60.0024001,,
1,1,0.8907,0,54,54,11,1,12,asesinato,1,REAL,FAKE,610b5ab7c6387ecf37ea0630,castellano,2022-03-17_09h43.13.004,lextale_sp,2021.2.3,Win32,60.0024001,,
1,1,0.6259,0,55,55,88,1,89,prisa,1,REAL,FAKE,610b5ab7c6387ecf37ea0630,castellano,2022-03-17_09h43.13.004,lextale_sp,2021.2.3,Win32,60.0024001,,
1,1,0.6919,0,56,56,39,1,40,alfombra,1,REAL,FAKE,610b5ab7c6387ecf37ea0630,castellano,2022-03-17_09h43.13.004,lextale_sp,2021.2.3,Win32,60.0024001,,
0,0,0.7324,0,57,57,55,1,56,musgo,1,REAL,FAKE,610b5ab7c6387ecf37ea0630,castellano,2022-03-17_09h43.13.004,lextale_sp,2021.2.3,Win32,60.0024001,,
0,0,0.8886,0,58,58,53,1,54,fomentar,1,REAL,FAKE,610b5ab7c6387ecf37ea0630,castellano,2022-03-17_09h43.13.004,lextale_sp,2021.2.3,Win32,60.0024001,,
0,1,0.7912,0,59,59,15,1,16,abracer,0,REAL,FAKE,610b5ab7c6387ecf37ea0630,castellano,2022-03-17_09h43.13.004,lextale_sp,2021.2.3,Win32,60.0024001,,
1,1,0.548,0,60,60,51,1,52,camisa,1,REAL,FAKE,610b5ab7c6387ecf37ea0630,castellano,2022-03-17_09h43.13.004,lextale_sp,2021.2.3,Win32,60.0024001,,
0,1,0.6488,0,61,61,81,1,82,empirador,0,REAL,FAKE,610b5ab7c6387ecf37ea0630,castellano,2022-03-17_09h43.13.004,lextale_sp,2021.2.3,Win32,60.0024001,,
0,0,0.6816,0,62,62,80,1,81,pozo,1,REAL,FAKE,610b5ab7c6387ecf37ea0630,castellano,2022-03-17_09h43.13.004,lextale_sp,2021.2.3,Win32,60.0024001,,
1,1,0.767,0,63,63,42,1,43,canela,1,REAL,FAKE,610b5ab7c6387ecf37ea0630,castellano,2022-03-17_09h43.13.004,lextale_sp,2021.2.3,Win32,60.0024001,,
0,1,0.5726,0,64,64,17,1,18,arsa,0,REAL,FAKE,610b5ab7c6387ecf37ea0630,castellano,2022-03-17_09h43.13.004,lextale_sp,2021.2.3,Win32,60.0024001,,
0,0,0.7054,0,65,65,35,1,36,loro,1,REAL,FAKE,610b5ab7c6387ecf37ea0630,castellano,2022-03-17_09h43.13.004,lextale_sp,2021.2.3,Win32,60.0024001,,
1,1,0.7356,0,66,66,12,1,13,helar,1,REAL,FAKE,610b5ab7c6387ecf37ea0630,castellano,2022-03-17_09h43.13.004,lextale_sp,2021.2.3,Win32,60.0024001,,
1,1,0.7735,0,67,67,75,1,76,atar,1,REAL,FAKE,610b5ab7c6387ecf37ea0630,castellano,2022-03-17_09h43.13.004,lextale_sp,2021.2.3,Win32,60.0024001,,
0,1,0.6013,0,68,68,86,1,87,grodo,0,REAL,FAKE,610b5ab7c6387ecf37ea0630,castellano,2022-03-17_09h43.13.004,lextale_sp,2021.2.3,Win32,60.0024001,,
1,1,1.0301,0,69,69,40,1,41,rebuscar,1,REAL,FAKE,610b5ab7c6387ecf37ea0630,castellano,2022-03-17_09h43.13.004,lextale_sp,2021.2.3,Win32,60.0024001,,
1,1,0.8054,0,70,70,60,1,61,seda,1,REAL,FAKE,610b5ab7c6387ecf37ea0630,castellano,2022-03-17_09h43.13.004,lextale_sp,2021.2.3,Win32,60.0024001,,
0,0,0.8724,0,71,71,50,1,51,candado,1,REAL,FAKE,610b5ab7c6387ecf37ea0630,castellano,2022-03-17_09h43.13.004,lextale_sp,2021.2.3,Win32,60.0024001,,
0,0,0.6245,0,72,72,68,1,69,engatusar,1,REAL,FAKE,610b5ab7c6387ecf37ea0630,castellano,2022-03-17_09h43.13.004,lextale_sp,2021.2.3,Win32,60.0024001,,
1,1,0.6339,0,73,73,19,1,20,ávido,1,REAL,FAKE,610b5ab7c6387ecf37ea0630,castellano,2022-03-17_09h43.13.004,lextale_sp,2021.2.3,Win32,60.0024001,,
1,1,0.6205,0,74,74,43,1,44,cuchara,1,REAL,FAKE,610b5ab7c6387ecf37ea0630,castellano,2022-03-17_09h43.13.004,lextale_sp,2021.2.3,Win32,60.0024001,,
1,0,0.5662,0,75,75,73,1,74,cintro,0,REAL,FAKE,610b5ab7c6387ecf37ea0630,castellano,2022-03-17_09h43.13.004,lextale_sp,2021.2.3,Win32,60.0024001,,
0,0,0.7865,0,76,76,23,1,24,látigo,1,REAL,FAKE,610b5ab7c6387ecf37ea0630,castellano,2022-03-17_09h43.13.004,lextale_sp,2021.2.3,Win32,60.0024001,,
0,0,0.7896,0,77,77,10,1,11,cenefa,1,REAL,FAKE,610b5ab7c6387ecf37ea0630,castellano,2022-03-17_09h43.13.004,lextale_sp,2021.2.3,Win32,60.0024001,,
1,1,0.5855,0,78,78,4,1,5,zapato,1,REAL,FAKE,610b5ab7c6387ecf37ea0630,castellano,2022-03-17_09h43.13.004,lextale_sp,2021.2.3,Win32,60.0024001,,
1,0,0.8301,0,79,79,3,1,4,batillón,0,REAL,FAKE,610b5ab7c6387ecf37ea0630,castellano,2022-03-17_09h43.13.004,lextale_sp,2021.2.3,Win32,60.0024001,,
0,0,0.6799,0,80,80,38,1,39,torpe,1,REAL,FAKE,610b5ab7c6387ecf37ea0630,castellano,2022-03-17_09h43.13.004,lextale_sp,2021.2.3,Win32,60.0024001,,
0,0,0.6374,0,81,81,45,1,46,martillo,1,REAL,FAKE,610b5ab7c6387ecf37ea0630,castellano,2022-03-17_09h43.13.004,lextale_sp,2021.2.3,Win32,60.0024001,,
0,0,0.5995,0,82,82,74,1,75,yacer,1,REAL,FAKE,610b5ab7c6387ecf37ea0630,castellano,2022-03-17_09h43.13.004,lextale_sp,2021.2.3,Win32,60.0024001,,
1,1,0.5967,0,83,83,48,1,49,ganar,1,REAL,FAKE,610b5ab7c6387ecf37ea0630,castellano,2022-03-17_09h43.13.004,lextale_sp,2021.2.3,Win32,60.0024001,,
1,0,0.8214,0,84,84,52,1,53,vegada,0,REAL,FAKE,610b5ab7c6387ecf37ea0630,castellano,2022-03-17_09h43.13.004,lextale_sp,2021.2.3,Win32,60.0024001,,
1,1,0.5673,0,85,85,59,1,60,matar,1,REAL,FAKE,610b5ab7c6387ecf37ea0630,castellano,2022-03-17_09h43.13.004,lextale_sp,2021.2.3,Win32,60.0024001,,
1,1,0.6921,0,86,86,76,1,77,tiburón,1,REAL,FAKE,610b5ab7c6387ecf37ea0630,castellano,2022-03-17_09h43.13.004,lextale_sp,2021.2.3,Win32,60.0024001,,
0,0,0.6839,0,87,87,44,1,45,jilguero,1,REAL,FAKE,610b5ab7c6387ecf37ea0630,castellano,2022-03-17_09h43.13.004,lextale_sp,2021.2.3,Win32,60.0024001,,
1,1,0.6432,0,88,88,67,1,68,alegre,1,REAL,FAKE,610b5ab7c6387ecf37ea0630,castellano,2022-03-17_09h43.13.004,lextale_sp,2021.2.3,Win32,60.0024001,,
0,0,0.5886,0,89,89,70,1,71,polvoriento,1,REAL,FAKE,610b5ab7c6387ecf37ea0630,castellano,2022-03-17_09h43.13.004,lextale_sp,2021.2.3,Win32,60.0024001,,
,,,,,,,,,,,,,610b5ab7c6387ecf37ea0630,castellano,2022-03-17_09h43.13.004,lextale_sp,2021.2.3,Win32,60.0024001,space,9.3116
