key_resp_lextale_trial.keys,key_resp_lextale_trial.corr,key_resp_lextale_trial.rt,trials.thisRepN,trials.thisTrialN,trials.thisN,trials.thisIndex,trials.ran,stim,word,correct_response,button_real,button_false,id,Variety of Spanish that is most familiar to you?,date,expName,psychopyVersion,OS,frameRate,key_resp.keys,key_resp.rt
1,1,1.3589,0,0,0,2,1,3,pulmones,1,REAL,FAKE,5ef59d011c4119208ae8e40d,mexican,2022-03-13_13h14.52.127,lextale_sp,2021.2.3,Linux x86_64,59.97001499,,
1,1,1.1895,0,1,1,50,1,51,candado,1,REAL,FAKE,5ef59d011c4119208ae8e40d,mexican,2022-03-13_13h14.52.127,lextale_sp,2021.2.3,Linux x86_64,59.97001499,,
0,0,1.1515,0,2,2,38,1,39,torpe,1,REAL,FAKE,5ef59d011c4119208ae8e40d,mexican,2022-03-13_13h14.52.127,lextale_sp,2021.2.3,Linux x86_64,59.97001499,,
0,1,0.8709,0,3,3,71,1,72,pemición,0,REAL,FAKE,5ef59d011c4119208ae8e40d,mexican,2022-03-13_13h14.52.127,lextale_sp,2021.2.3,Linux x86_64,59.97001499,,
1,1,0.703,0,4,4,59,1,60,matar,1,REAL,FAKE,5ef59d011c4119208ae8e40d,mexican,2022-03-13_13h14.52.127,lextale_sp,2021.2.3,Linux x86_64,59.97001499,,
1,1,0.5811,0,5,5,58,1,59,besar,1,REAL,FAKE,5ef59d011c4119208ae8e40d,mexican,2022-03-13_13h14.52.127,lextale_sp,2021.2.3,Linux x86_64,59.97001499,,
0,1,1.0989,0,6,6,31,1,32,fatacidad,0,REAL,FAKE,5ef59d011c4119208ae8e40d,mexican,2022-03-13_13h14.52.127,lextale_sp,2021.2.3,Linux x86_64,59.97001499,,
0,0,1.3463,0,7,7,30,1,31,pandilla,1,REAL,FAKE,5ef59d011c4119208ae8e40d,mexican,2022-03-13_13h14.52.127,lextale_sp,2021.2.3,Linux x86_64,59.97001499,,
0,1,1.006,0,8,8,17,1,18,arsa,0,REAL,FAKE,5ef59d011c4119208ae8e40d,mexican,2022-03-13_13h14.52.127,lextale_sp,2021.2.3,Linux x86_64,59.97001499,,
0,1,1.6519,0,9,9,65,1,66,hacido,0,REAL,FAKE,5ef59d011c4119208ae8e40d,mexican,2022-03-13_13h14.52.127,lextale_sp,2021.2.3,Linux x86_64,59.97001499,,
1,1,0.7154,0,10,10,67,1,68,alegre,1,REAL,FAKE,5ef59d011c4119208ae8e40d,mexican,2022-03-13_13h14.52.127,lextale_sp,2021.2.3,Linux x86_64,59.97001499,,
0,0,0.7323,0,11,11,77,1,78,frondoso,1,REAL,FAKE,5ef59d011c4119208ae8e40d,mexican,2022-03-13_13h14.52.127,lextale_sp,2021.2.3,Linux x86_64,59.97001499,,
0,1,0.7833,0,12,12,86,1,87,grodo,0,REAL,FAKE,5ef59d011c4119208ae8e40d,mexican,2022-03-13_13h14.52.127,lextale_sp,2021.2.3,Linux x86_64,59.97001499,,
1,0,0.7168,0,13,13,69,1,70,temblo,0,REAL,FAKE,5ef59d011c4119208ae8e40d,mexican,2022-03-13_13h14.52.127,lextale_sp,2021.2.3,Linux x86_64,59.97001499,,
0,0,1.5857,0,14,14,87,1,88,acantilado,1,REAL,FAKE,5ef59d011c4119208ae8e40d,mexican,2022-03-13_13h14.52.127,lextale_sp,2021.2.3,Linux x86_64,59.97001499,,
0,1,0.9633,0,15,15,52,1,53,vegada,0,REAL,FAKE,5ef59d011c4119208ae8e40d,mexican,2022-03-13_13h14.52.127,lextale_sp,2021.2.3,Linux x86_64,59.97001499,,
0,1,2.3931,0,16,16,41,1,42,cadallo,0,REAL,FAKE,5ef59d011c4119208ae8e40d,mexican,2022-03-13_13h14.52.127,lextale_sp,2021.2.3,Linux x86_64,59.97001499,,
0,1,0.9323,0,17,17,18,1,19,brecedad,0,REAL,FAKE,5ef59d011c4119208ae8e40d,mexican,2022-03-13_13h14.52.127,lextale_sp,2021.2.3,Linux x86_64,59.97001499,,
0,0,3.036,0,18,18,27,1,28,merodear,1,REAL,FAKE,5ef59d011c4119208ae8e40d,mexican,2022-03-13_13h14.52.127,lextale_sp,2021.2.3,Linux x86_64,59.97001499,,
1,0,0.9768,0,19,19,83,1,84,escuto,0,REAL,FAKE,5ef59d011c4119208ae8e40d,mexican,2022-03-13_13h14.52.127,lextale_sp,2021.2.3,Linux x86_64,59.97001499,,
1,1,1.3348,0,20,20,68,1,69,engatusar,1,REAL,FAKE,5ef59d011c4119208ae8e40d,mexican,2022-03-13_13h14.52.127,lextale_sp,2021.2.3,Linux x86_64,59.97001499,,
1,1,0.8329,0,21,21,45,1,46,martillo,1,REAL,FAKE,5ef59d011c4119208ae8e40d,mexican,2022-03-13_13h14.52.127,lextale_sp,2021.2.3,Linux x86_64,59.97001499,,
1,0,0.767,0,22,22,57,1,58,plaudir,0,REAL,FAKE,5ef59d011c4119208ae8e40d,mexican,2022-03-13_13h14.52.127,lextale_sp,2021.2.3,Linux x86_64,59.97001499,,
0,1,1.2134,0,23,23,22,1,23,lampera,0,REAL,FAKE,5ef59d011c4119208ae8e40d,mexican,2022-03-13_13h14.52.127,lextale_sp,2021.2.3,Linux x86_64,59.97001499,,
1,1,1.2013,0,24,24,55,1,56,musgo,1,REAL,FAKE,5ef59d011c4119208ae8e40d,mexican,2022-03-13_13h14.52.127,lextale_sp,2021.2.3,Linux x86_64,59.97001499,,
0,1,1.0558,0,25,25,78,1,79,tropaje,0,REAL,FAKE,5ef59d011c4119208ae8e40d,mexican,2022-03-13_13h14.52.127,lextale_sp,2021.2.3,Linux x86_64,59.97001499,,
0,0,1.4694,0,26,26,89,1,90,clavel,1,REAL,FAKE,5ef59d011c4119208ae8e40d,mexican,2022-03-13_13h14.52.127,lextale_sp,2021.2.3,Linux x86_64,59.97001499,,
0,0,0.7823,0,27,27,10,1,11,cenefa,1,REAL,FAKE,5ef59d011c4119208ae8e40d,mexican,2022-03-13_13h14.52.127,lextale_sp,2021.2.3,Linux x86_64,59.97001499,,
1,0,0.6828,0,28,28,16,1,17,floroso,0,REAL,FAKE,5ef59d011c4119208ae8e40d,mexican,2022-03-13_13h14.52.127,lextale_sp,2021.2.3,Linux x86_64,59.97001499,,
0,1,1.0539,0,29,29,29,1,30,alardio,0,REAL,FAKE,5ef59d011c4119208ae8e40d,mexican,2022-03-13_13h14.52.127,lextale_sp,2021.2.3,Linux x86_64,59.97001499,,
1,1,0.5994,0,30,30,14,1,15,regar,1,REAL,FAKE,5ef59d011c4119208ae8e40d,mexican,2022-03-13_13h14.52.127,lextale_sp,2021.2.3,Linux x86_64,59.97001499,,
1,1,0.9159,0,31,31,82,1,83,guante,1,REAL,FAKE,5ef59d011c4119208ae8e40d,mexican,2022-03-13_13h14.52.127,lextale_sp,2021.2.3,Linux x86_64,59.97001499,,
1,0,0.8545,0,32,32,62,1,63,esposante,0,REAL,FAKE,5ef59d011c4119208ae8e40d,mexican,2022-03-13_13h14.52.127,lextale_sp,2021.2.3,Linux x86_64,59.97001499,,
1,1,0.7999,0,33,33,42,1,43,canela,1,REAL,FAKE,5ef59d011c4119208ae8e40d,mexican,2022-03-13_13h14.52.127,lextale_sp,2021.2.3,Linux x86_64,59.97001499,,
0,0,0.6661,0,34,34,21,1,22,lacayo,1,REAL,FAKE,5ef59d011c4119208ae8e40d,mexican,2022-03-13_13h14.52.127,lextale_sp,2021.2.3,Linux x86_64,59.97001499,,
0,0,0.9736,0,35,35,44,1,45,jilguero,1,REAL,FAKE,5ef59d011c4119208ae8e40d,mexican,2022-03-13_13h14.52.127,lextale_sp,2021.2.3,Linux x86_64,59.97001499,,
0,1,1.2594,0,36,36,49,1,50,flamida,0,REAL,FAKE,5ef59d011c4119208ae8e40d,mexican,2022-03-13_13h14.52.127,lextale_sp,2021.2.3,Linux x86_64,59.97001499,,
1,1,0.6559,0,37,37,85,1,86,barato,1,REAL,FAKE,5ef59d011c4119208ae8e40d,mexican,2022-03-13_13h14.52.127,lextale_sp,2021.2.3,Linux x86_64,59.97001499,,
1,0,0.5493,0,38,38,28,1,29,decar,0,REAL,FAKE,5ef59d011c4119208ae8e40d,mexican,2022-03-13_13h14.52.127,lextale_sp,2021.2.3,Linux x86_64,59.97001499,,
1,0,0.6834,0,39,39,3,1,4,batillón,0,REAL,FAKE,5ef59d011c4119208ae8e40d,mexican,2022-03-13_13h14.52.127,lextale_sp,2021.2.3,Linux x86_64,59.97001499,,
1,0,0.6874,0,40,40,20,1,21,capillo,0,REAL,FAKE,5ef59d011c4119208ae8e40d,mexican,2022-03-13_13h14.52.127,lextale_sp,2021.2.3,Linux x86_64,59.97001499,,
0,0,1.0328,0,41,41,1,1,2,pellizcar,1,REAL,FAKE,5ef59d011c4119208ae8e40d,mexican,2022-03-13_13h14.52.127,lextale_sp,2021.2.3,Linux x86_64,59.97001499,,
1,1,0.8506,0,42,42,11,1,12,asesinato,1,REAL,FAKE,5ef59d011c4119208ae8e40d,mexican,2022-03-13_13h14.52.127,lextale_sp,2021.2.3,Linux x86_64,59.97001499,,
1,0,0.9418,0,43,43,46,1,47,cartinar,0,REAL,FAKE,5ef59d011c4119208ae8e40d,mexican,2022-03-13_13h14.52.127,lextale_sp,2021.2.3,Linux x86_64,59.97001499,,
0,0,0.6428,0,44,44,13,1,14,yunque,1,REAL,FAKE,5ef59d011c4119208ae8e40d,mexican,2022-03-13_13h14.52.127,lextale_sp,2021.2.3,Linux x86_64,59.97001499,,
0,0,1.1004,0,45,45,75,1,76,atar,1,REAL,FAKE,5ef59d011c4119208ae8e40d,mexican,2022-03-13_13h14.52.127,lextale_sp,2021.2.3,Linux x86_64,59.97001499,,
1,1,0.8752,0,46,46,61,1,62,flaco,1,REAL,FAKE,5ef59d011c4119208ae8e40d,mexican,2022-03-13_13h14.52.127,lextale_sp,2021.2.3,Linux x86_64,59.97001499,,
0,0,0.983,0,47,47,36,1,37,granuja,1,REAL,FAKE,5ef59d011c4119208ae8e40d,mexican,2022-03-13_13h14.52.127,lextale_sp,2021.2.3,Linux x86_64,59.97001499,,
1,1,1.0817,0,48,48,72,1,73,hervidor,1,REAL,FAKE,5ef59d011c4119208ae8e40d,mexican,2022-03-13_13h14.52.127,lextale_sp,2021.2.3,Linux x86_64,59.97001499,,
0,0,1.0036,0,49,49,12,1,13,helar,1,REAL,FAKE,5ef59d011c4119208ae8e40d,mexican,2022-03-13_13h14.52.127,lextale_sp,2021.2.3,Linux x86_64,59.97001499,,
0,0,1.2664,0,50,50,5,1,6,tergiversar,1,REAL,FAKE,5ef59d011c4119208ae8e40d,mexican,2022-03-13_13h14.52.127,lextale_sp,2021.2.3,Linux x86_64,59.97001499,,
0,0,0.9724,0,51,51,35,1,36,loro,1,REAL,FAKE,5ef59d011c4119208ae8e40d,mexican,2022-03-13_13h14.52.127,lextale_sp,2021.2.3,Linux x86_64,59.97001499,,
0,0,0.873,0,52,52,8,1,9,hacha,1,REAL,FAKE,5ef59d011c4119208ae8e40d,mexican,2022-03-13_13h14.52.127,lextale_sp,2021.2.3,Linux x86_64,59.97001499,,
1,0,0.6497,0,53,53,0,1,1,terzo,0,REAL,FAKE,5ef59d011c4119208ae8e40d,mexican,2022-03-13_13h14.52.127,lextale_sp,2021.2.3,Linux x86_64,59.97001499,,
1,0,0.9458,0,54,54,26,1,27,acutación,0,REAL,FAKE,5ef59d011c4119208ae8e40d,mexican,2022-03-13_13h14.52.127,lextale_sp,2021.2.3,Linux x86_64,59.97001499,,
0,0,0.7316,0,55,55,84,1,85,laúd,1,REAL,FAKE,5ef59d011c4119208ae8e40d,mexican,2022-03-13_13h14.52.127,lextale_sp,2021.2.3,Linux x86_64,59.97001499,,
1,1,1.4007,0,56,56,80,1,81,pozo,1,REAL,FAKE,5ef59d011c4119208ae8e40d,mexican,2022-03-13_13h14.52.127,lextale_sp,2021.2.3,Linux x86_64,59.97001499,,
1,1,0.7136,0,57,57,47,1,48,ladrón,1,REAL,FAKE,5ef59d011c4119208ae8e40d,mexican,2022-03-13_13h14.52.127,lextale_sp,2021.2.3,Linux x86_64,59.97001499,,
0,0,1.0163,0,58,58,60,1,61,seda,1,REAL,FAKE,5ef59d011c4119208ae8e40d,mexican,2022-03-13_13h14.52.127,lextale_sp,2021.2.3,Linux x86_64,59.97001499,,
0,0,1.0715,0,59,59,53,1,54,fomentar,1,REAL,FAKE,5ef59d011c4119208ae8e40d,mexican,2022-03-13_13h14.52.127,lextale_sp,2021.2.3,Linux x86_64,59.97001499,,
1,1,0.7493,0,60,60,51,1,52,camisa,1,REAL,FAKE,5ef59d011c4119208ae8e40d,mexican,2022-03-13_13h14.52.127,lextale_sp,2021.2.3,Linux x86_64,59.97001499,,
0,0,1.2894,0,61,61,56,1,57,tacaño,1,REAL,FAKE,5ef59d011c4119208ae8e40d,mexican,2022-03-13_13h14.52.127,lextale_sp,2021.2.3,Linux x86_64,59.97001499,,
0,0,1.3504,0,62,62,76,1,77,tiburón,1,REAL,FAKE,5ef59d011c4119208ae8e40d,mexican,2022-03-13_13h14.52.127,lextale_sp,2021.2.3,Linux x86_64,59.97001499,,
1,1,0.7165,0,63,63,63,1,64,orgulloso,1,REAL,FAKE,5ef59d011c4119208ae8e40d,mexican,2022-03-13_13h14.52.127,lextale_sp,2021.2.3,Linux x86_64,59.97001499,,
0,0,0.7309,0,64,64,74,1,75,yacer,1,REAL,FAKE,5ef59d011c4119208ae8e40d,mexican,2022-03-13_13h14.52.127,lextale_sp,2021.2.3,Linux x86_64,59.97001499,,
1,1,1.8036,0,65,65,40,1,41,rebuscar,1,REAL,FAKE,5ef59d011c4119208ae8e40d,mexican,2022-03-13_13h14.52.127,lextale_sp,2021.2.3,Linux x86_64,59.97001499,,
0,0,1.4161,0,66,66,6,1,7,pésimo,1,REAL,FAKE,5ef59d011c4119208ae8e40d,mexican,2022-03-13_13h14.52.127,lextale_sp,2021.2.3,Linux x86_64,59.97001499,,
1,1,0.6957,0,67,67,88,1,89,prisa,1,REAL,FAKE,5ef59d011c4119208ae8e40d,mexican,2022-03-13_13h14.52.127,lextale_sp,2021.2.3,Linux x86_64,59.97001499,,
1,1,0.7336,0,68,68,4,1,5,zapato,1,REAL,FAKE,5ef59d011c4119208ae8e40d,mexican,2022-03-13_13h14.52.127,lextale_sp,2021.2.3,Linux x86_64,59.97001499,,
0,1,1.2421,0,69,69,32,1,33,pauca,0,REAL,FAKE,5ef59d011c4119208ae8e40d,mexican,2022-03-13_13h14.52.127,lextale_sp,2021.2.3,Linux x86_64,59.97001499,,
1,1,1.1027,0,70,70,19,1,20,ávido,1,REAL,FAKE,5ef59d011c4119208ae8e40d,mexican,2022-03-13_13h14.52.127,lextale_sp,2021.2.3,Linux x86_64,59.97001499,,
1,1,0.6817,0,71,71,43,1,44,cuchara,1,REAL,FAKE,5ef59d011c4119208ae8e40d,mexican,2022-03-13_13h14.52.127,lextale_sp,2021.2.3,Linux x86_64,59.97001499,,
0,0,1.6498,0,72,72,70,1,71,polvoriento,1,REAL,FAKE,5ef59d011c4119208ae8e40d,mexican,2022-03-13_13h14.52.127,lextale_sp,2021.2.3,Linux x86_64,59.97001499,,
0,1,2.2333,0,73,73,9,1,10,antar,0,REAL,FAKE,5ef59d011c4119208ae8e40d,mexican,2022-03-13_13h14.52.127,lextale_sp,2021.2.3,Linux x86_64,59.97001499,,
1,1,0.6867,0,74,74,48,1,49,ganar,1,REAL,FAKE,5ef59d011c4119208ae8e40d,mexican,2022-03-13_13h14.52.127,lextale_sp,2021.2.3,Linux x86_64,59.97001499,,
1,1,0.8726,0,75,75,64,1,65,bizcocho,1,REAL,FAKE,5ef59d011c4119208ae8e40d,mexican,2022-03-13_13h14.52.127,lextale_sp,2021.2.3,Linux x86_64,59.97001499,,
1,1,0.7177,0,76,76,66,1,67,cabello,1,REAL,FAKE,5ef59d011c4119208ae8e40d,mexican,2022-03-13_13h14.52.127,lextale_sp,2021.2.3,Linux x86_64,59.97001499,,
1,1,0.6894,0,77,77,39,1,40,alfombra,1,REAL,FAKE,5ef59d011c4119208ae8e40d,mexican,2022-03-13_13h14.52.127,lextale_sp,2021.2.3,Linux x86_64,59.97001499,,
0,0,0.9662,0,78,78,23,1,24,látigo,1,REAL,FAKE,5ef59d011c4119208ae8e40d,mexican,2022-03-13_13h14.52.127,lextale_sp,2021.2.3,Linux x86_64,59.97001499,,
0,1,1.634,0,79,79,73,1,74,cintro,0,REAL,FAKE,5ef59d011c4119208ae8e40d,mexican,2022-03-13_13h14.52.127,lextale_sp,2021.2.3,Linux x86_64,59.97001499,,
1,1,0.615,0,80,80,25,1,26,secuestro,1,REAL,FAKE,5ef59d011c4119208ae8e40d,mexican,2022-03-13_13h14.52.127,lextale_sp,2021.2.3,Linux x86_64,59.97001499,,
1,0,1.3672,0,81,81,81,1,82,empirador,0,REAL,FAKE,5ef59d011c4119208ae8e40d,mexican,2022-03-13_13h14.52.127,lextale_sp,2021.2.3,Linux x86_64,59.97001499,,
0,0,0.8664,0,82,82,79,1,80,hormiga,1,REAL,FAKE,5ef59d011c4119208ae8e40d,mexican,2022-03-13_13h14.52.127,lextale_sp,2021.2.3,Linux x86_64,59.97001499,,
0,0,0.7499,0,83,83,24,1,25,bisagra,1,REAL,FAKE,5ef59d011c4119208ae8e40d,mexican,2022-03-13_13h14.52.127,lextale_sp,2021.2.3,Linux x86_64,59.97001499,,
1,1,0.6398,0,84,84,33,1,34,aviso,1,REAL,FAKE,5ef59d011c4119208ae8e40d,mexican,2022-03-13_13h14.52.127,lextale_sp,2021.2.3,Linux x86_64,59.97001499,,
1,1,0.8749,0,85,85,54,1,55,nevar,1,REAL,FAKE,5ef59d011c4119208ae8e40d,mexican,2022-03-13_13h14.52.127,lextale_sp,2021.2.3,Linux x86_64,59.97001499,,
0,1,0.7241,0,86,86,7,1,8,cadeña,0,REAL,FAKE,5ef59d011c4119208ae8e40d,mexican,2022-03-13_13h14.52.127,lextale_sp,2021.2.3,Linux x86_64,59.97001499,,
1,1,1.1479,0,87,87,37,1,38,estornudar,1,REAL,FAKE,5ef59d011c4119208ae8e40d,mexican,2022-03-13_13h14.52.127,lextale_sp,2021.2.3,Linux x86_64,59.97001499,,
1,0,0.6477,0,88,88,15,1,16,abracer,0,REAL,FAKE,5ef59d011c4119208ae8e40d,mexican,2022-03-13_13h14.52.127,lextale_sp,2021.2.3,Linux x86_64,59.97001499,,
1,0,1.0984,0,89,89,34,1,35,rompido,0,REAL,FAKE,5ef59d011c4119208ae8e40d,mexican,2022-03-13_13h14.52.127,lextale_sp,2021.2.3,Linux x86_64,59.97001499,,
,,,,,,,,,,,,,5ef59d011c4119208ae8e40d,mexican,2022-03-13_13h14.52.127,lextale_sp,2021.2.3,Linux x86_64,59.97001499,space,31.3056
