key_resp_lextale_trial.keys,key_resp_lextale_trial.corr,key_resp_lextale_trial.rt,trials.thisRepN,trials.thisTrialN,trials.thisN,trials.thisIndex,trials.ran,stim,word,correct_response,button_real,button_false,id,Variety of Spanish that is most familiar to you?,date,expName,psychopyVersion,OS,frameRate,key_resp.keys,key_resp.rt
1,1,3.6096,0,0,0,53,1,54,fomentar,1,REAL,FAKE,60fdbf3649d66c64177af5e0,Mexican,2022-03-18_17h30.45.899,lextale_sp,2021.2.3,Win32,60.09976561,,
1,1,1.3918,0,1,1,82,1,83,guante,1,REAL,FAKE,60fdbf3649d66c64177af5e0,Mexican,2022-03-18_17h30.45.899,lextale_sp,2021.2.3,Win32,60.09976561,,
1,1,0.9863,0,2,2,4,1,5,zapato,1,REAL,FAKE,60fdbf3649d66c64177af5e0,Mexican,2022-03-18_17h30.45.899,lextale_sp,2021.2.3,Win32,60.09976561,,
1,0,1.2952,0,3,3,26,1,27,acutación,0,REAL,FAKE,60fdbf3649d66c64177af5e0,Mexican,2022-03-18_17h30.45.899,lextale_sp,2021.2.3,Win32,60.09976561,,
0,1,1.309,0,4,4,69,1,70,temblo,0,REAL,FAKE,60fdbf3649d66c64177af5e0,Mexican,2022-03-18_17h30.45.899,lextale_sp,2021.2.3,Win32,60.09976561,,
1,1,2.954,0,5,5,61,1,62,flaco,1,REAL,FAKE,60fdbf3649d66c64177af5e0,Mexican,2022-03-18_17h30.45.899,lextale_sp,2021.2.3,Win32,60.09976561,,
1,0,1.5344,0,6,6,81,1,82,empirador,0,REAL,FAKE,60fdbf3649d66c64177af5e0,Mexican,2022-03-18_17h30.45.899,lextale_sp,2021.2.3,Win32,60.09976561,,
0,1,1.5051,0,7,7,32,1,33,pauca,0,REAL,FAKE,60fdbf3649d66c64177af5e0,Mexican,2022-03-18_17h30.45.899,lextale_sp,2021.2.3,Win32,60.09976561,,
0,0,2.109,0,8,8,76,1,77,tiburón,1,REAL,FAKE,60fdbf3649d66c64177af5e0,Mexican,2022-03-18_17h30.45.899,lextale_sp,2021.2.3,Win32,60.09976561,,
0,1,1.7711,0,9,9,7,1,8,cadeña,0,REAL,FAKE,60fdbf3649d66c64177af5e0,Mexican,2022-03-18_17h30.45.899,lextale_sp,2021.2.3,Win32,60.09976561,,
0,0,0.9974,0,10,10,75,1,76,atar,1,REAL,FAKE,60fdbf3649d66c64177af5e0,Mexican,2022-03-18_17h30.45.899,lextale_sp,2021.2.3,Win32,60.09976561,,
1,1,4.1522,0,11,11,37,1,38,estornudar,1,REAL,FAKE,60fdbf3649d66c64177af5e0,Mexican,2022-03-18_17h30.45.899,lextale_sp,2021.2.3,Win32,60.09976561,,
1,0,0.9801,0,12,12,3,1,4,batillón,0,REAL,FAKE,60fdbf3649d66c64177af5e0,Mexican,2022-03-18_17h30.45.899,lextale_sp,2021.2.3,Win32,60.09976561,,
0,1,1.2053,0,13,13,29,1,30,alardio,0,REAL,FAKE,60fdbf3649d66c64177af5e0,Mexican,2022-03-18_17h30.45.899,lextale_sp,2021.2.3,Win32,60.09976561,,
0,1,1.1385,0,14,14,52,1,53,vegada,0,REAL,FAKE,60fdbf3649d66c64177af5e0,Mexican,2022-03-18_17h30.45.899,lextale_sp,2021.2.3,Win32,60.09976561,,
1,0,1.315,0,15,15,49,1,50,flamida,0,REAL,FAKE,60fdbf3649d66c64177af5e0,Mexican,2022-03-18_17h30.45.899,lextale_sp,2021.2.3,Win32,60.09976561,,
1,1,1.0084,0,16,16,35,1,36,loro,1,REAL,FAKE,60fdbf3649d66c64177af5e0,Mexican,2022-03-18_17h30.45.899,lextale_sp,2021.2.3,Win32,60.09976561,,
0,0,1.3584,0,17,17,72,1,73,hervidor,1,REAL,FAKE,60fdbf3649d66c64177af5e0,Mexican,2022-03-18_17h30.45.899,lextale_sp,2021.2.3,Win32,60.09976561,,
1,1,3.1325,0,18,18,45,1,46,martillo,1,REAL,FAKE,60fdbf3649d66c64177af5e0,Mexican,2022-03-18_17h30.45.899,lextale_sp,2021.2.3,Win32,60.09976561,,
1,1,0.9347,0,19,19,85,1,86,barato,1,REAL,FAKE,60fdbf3649d66c64177af5e0,Mexican,2022-03-18_17h30.45.899,lextale_sp,2021.2.3,Win32,60.09976561,,
0,1,1.5008,0,20,20,17,1,18,arsa,0,REAL,FAKE,60fdbf3649d66c64177af5e0,Mexican,2022-03-18_17h30.45.899,lextale_sp,2021.2.3,Win32,60.09976561,,
0,0,4.0824,0,21,21,27,1,28,merodear,1,REAL,FAKE,60fdbf3649d66c64177af5e0,Mexican,2022-03-18_17h30.45.899,lextale_sp,2021.2.3,Win32,60.09976561,,
1,1,1.0078,0,22,22,30,1,31,pandilla,1,REAL,FAKE,60fdbf3649d66c64177af5e0,Mexican,2022-03-18_17h30.45.899,lextale_sp,2021.2.3,Win32,60.09976561,,
1,1,0.8252,0,23,23,19,1,20,ávido,1,REAL,FAKE,60fdbf3649d66c64177af5e0,Mexican,2022-03-18_17h30.45.899,lextale_sp,2021.2.3,Win32,60.09976561,,
0,0,1.506,0,24,24,13,1,14,yunque,1,REAL,FAKE,60fdbf3649d66c64177af5e0,Mexican,2022-03-18_17h30.45.899,lextale_sp,2021.2.3,Win32,60.09976561,,
0,0,2.7657,0,25,25,70,1,71,polvoriento,1,REAL,FAKE,60fdbf3649d66c64177af5e0,Mexican,2022-03-18_17h30.45.899,lextale_sp,2021.2.3,Win32,60.09976561,,
0,0,3.1912,0,26,26,56,1,57,tacaño,1,REAL,FAKE,60fdbf3649d66c64177af5e0,Mexican,2022-03-18_17h30.45.899,lextale_sp,2021.2.3,Win32,60.09976561,,
0,0,1.451,0,27,27,8,1,9,hacha,1,REAL,FAKE,60fdbf3649d66c64177af5e0,Mexican,2022-03-18_17h30.45.899,lextale_sp,2021.2.3,Win32,60.09976561,,
1,1,2.7653,0,28,28,12,1,13,helar,1,REAL,FAKE,60fdbf3649d66c64177af5e0,Mexican,2022-03-18_17h30.45.899,lextale_sp,2021.2.3,Win32,60.09976561,,
0,0,2.3411,0,29,29,38,1,39,torpe,1,REAL,FAKE,60fdbf3649d66c64177af5e0,Mexican,2022-03-18_17h30.45.899,lextale_sp,2021.2.3,Win32,60.09976561,,
1,0,1.116,0,30,30,46,1,47,cartinar,0,REAL,FAKE,60fdbf3649d66c64177af5e0,Mexican,2022-03-18_17h30.45.899,lextale_sp,2021.2.3,Win32,60.09976561,,
0,0,1.3968,0,31,31,55,1,56,musgo,1,REAL,FAKE,60fdbf3649d66c64177af5e0,Mexican,2022-03-18_17h30.45.899,lextale_sp,2021.2.3,Win32,60.09976561,,
1,1,3.98,0,32,32,14,1,15,regar,1,REAL,FAKE,60fdbf3649d66c64177af5e0,Mexican,2022-03-18_17h30.45.899,lextale_sp,2021.2.3,Win32,60.09976561,,
0,0,2.6638,0,33,33,77,1,78,frondoso,1,REAL,FAKE,60fdbf3649d66c64177af5e0,Mexican,2022-03-18_17h30.45.899,lextale_sp,2021.2.3,Win32,60.09976561,,
0,1,1.4469,0,34,34,86,1,87,grodo,0,REAL,FAKE,60fdbf3649d66c64177af5e0,Mexican,2022-03-18_17h30.45.899,lextale_sp,2021.2.3,Win32,60.09976561,,
1,1,1.766,0,35,35,87,1,88,acantilado,1,REAL,FAKE,60fdbf3649d66c64177af5e0,Mexican,2022-03-18_17h30.45.899,lextale_sp,2021.2.3,Win32,60.09976561,,
0,0,5.3761,0,36,36,1,1,2,pellizcar,1,REAL,FAKE,60fdbf3649d66c64177af5e0,Mexican,2022-03-18_17h30.45.899,lextale_sp,2021.2.3,Win32,60.09976561,,
1,1,1.3459,0,37,37,33,1,34,aviso,1,REAL,FAKE,60fdbf3649d66c64177af5e0,Mexican,2022-03-18_17h30.45.899,lextale_sp,2021.2.3,Win32,60.09976561,,
0,0,2.2416,0,38,38,79,1,80,hormiga,1,REAL,FAKE,60fdbf3649d66c64177af5e0,Mexican,2022-03-18_17h30.45.899,lextale_sp,2021.2.3,Win32,60.09976561,,
0,0,1.3685,0,39,39,11,1,12,asesinato,1,REAL,FAKE,60fdbf3649d66c64177af5e0,Mexican,2022-03-18_17h30.45.899,lextale_sp,2021.2.3,Win32,60.09976561,,
1,0,2.6158,0,40,40,31,1,32,fatacidad,0,REAL,FAKE,60fdbf3649d66c64177af5e0,Mexican,2022-03-18_17h30.45.899,lextale_sp,2021.2.3,Win32,60.09976561,,
1,0,0.6309,0,41,41,83,1,84,escuto,0,REAL,FAKE,60fdbf3649d66c64177af5e0,Mexican,2022-03-18_17h30.45.899,lextale_sp,2021.2.3,Win32,60.09976561,,
0,0,0.8008,0,42,42,44,1,45,jilguero,1,REAL,FAKE,60fdbf3649d66c64177af5e0,Mexican,2022-03-18_17h30.45.899,lextale_sp,2021.2.3,Win32,60.09976561,,
1,0,6.0708,0,43,43,78,1,79,tropaje,0,REAL,FAKE,60fdbf3649d66c64177af5e0,Mexican,2022-03-18_17h30.45.899,lextale_sp,2021.2.3,Win32,60.09976561,,
1,1,0.9535,0,44,44,36,1,37,granuja,1,REAL,FAKE,60fdbf3649d66c64177af5e0,Mexican,2022-03-18_17h30.45.899,lextale_sp,2021.2.3,Win32,60.09976561,,
1,1,2.5707,0,45,45,88,1,89,prisa,1,REAL,FAKE,60fdbf3649d66c64177af5e0,Mexican,2022-03-18_17h30.45.899,lextale_sp,2021.2.3,Win32,60.09976561,,
0,0,1.6435,0,46,46,2,1,3,pulmones,1,REAL,FAKE,60fdbf3649d66c64177af5e0,Mexican,2022-03-18_17h30.45.899,lextale_sp,2021.2.3,Win32,60.09976561,,
1,0,1.0044,0,47,47,62,1,63,esposante,0,REAL,FAKE,60fdbf3649d66c64177af5e0,Mexican,2022-03-18_17h30.45.899,lextale_sp,2021.2.3,Win32,60.09976561,,
1,1,0.7386,0,48,48,59,1,60,matar,1,REAL,FAKE,60fdbf3649d66c64177af5e0,Mexican,2022-03-18_17h30.45.899,lextale_sp,2021.2.3,Win32,60.09976561,,
1,1,1.3839,0,49,49,50,1,51,candado,1,REAL,FAKE,60fdbf3649d66c64177af5e0,Mexican,2022-03-18_17h30.45.899,lextale_sp,2021.2.3,Win32,60.09976561,,
1,1,0.6712,0,50,50,51,1,52,camisa,1,REAL,FAKE,60fdbf3649d66c64177af5e0,Mexican,2022-03-18_17h30.45.899,lextale_sp,2021.2.3,Win32,60.09976561,,
1,0,0.7093,0,51,51,65,1,66,hacido,0,REAL,FAKE,60fdbf3649d66c64177af5e0,Mexican,2022-03-18_17h30.45.899,lextale_sp,2021.2.3,Win32,60.09976561,,
0,1,0.8338,0,52,52,0,1,1,terzo,0,REAL,FAKE,60fdbf3649d66c64177af5e0,Mexican,2022-03-18_17h30.45.899,lextale_sp,2021.2.3,Win32,60.09976561,,
0,0,0.889,0,53,53,64,1,65,bizcocho,1,REAL,FAKE,60fdbf3649d66c64177af5e0,Mexican,2022-03-18_17h30.45.899,lextale_sp,2021.2.3,Win32,60.09976561,,
1,1,1.7669,0,54,54,40,1,41,rebuscar,1,REAL,FAKE,60fdbf3649d66c64177af5e0,Mexican,2022-03-18_17h30.45.899,lextale_sp,2021.2.3,Win32,60.09976561,,
1,1,5.4511,0,55,55,43,1,44,cuchara,1,REAL,FAKE,60fdbf3649d66c64177af5e0,Mexican,2022-03-18_17h30.45.899,lextale_sp,2021.2.3,Win32,60.09976561,,
0,0,1.9601,0,56,56,39,1,40,alfombra,1,REAL,FAKE,60fdbf3649d66c64177af5e0,Mexican,2022-03-18_17h30.45.899,lextale_sp,2021.2.3,Win32,60.09976561,,
1,0,0.6136,0,57,57,41,1,42,cadallo,0,REAL,FAKE,60fdbf3649d66c64177af5e0,Mexican,2022-03-18_17h30.45.899,lextale_sp,2021.2.3,Win32,60.09976561,,
1,0,0.781,0,58,58,28,1,29,decar,0,REAL,FAKE,60fdbf3649d66c64177af5e0,Mexican,2022-03-18_17h30.45.899,lextale_sp,2021.2.3,Win32,60.09976561,,
0,0,2.5386,0,59,59,5,1,6,tergiversar,1,REAL,FAKE,60fdbf3649d66c64177af5e0,Mexican,2022-03-18_17h30.45.899,lextale_sp,2021.2.3,Win32,60.09976561,,
0,1,2.8649,0,60,60,18,1,19,brecedad,0,REAL,FAKE,60fdbf3649d66c64177af5e0,Mexican,2022-03-18_17h30.45.899,lextale_sp,2021.2.3,Win32,60.09976561,,
1,0,0.7476,0,61,61,15,1,16,abracer,0,REAL,FAKE,60fdbf3649d66c64177af5e0,Mexican,2022-03-18_17h30.45.899,lextale_sp,2021.2.3,Win32,60.09976561,,
1,0,0.5593,0,62,62,20,1,21,capillo,0,REAL,FAKE,60fdbf3649d66c64177af5e0,Mexican,2022-03-18_17h30.45.899,lextale_sp,2021.2.3,Win32,60.09976561,,
0,1,0.9841,0,63,63,34,1,35,rompido,0,REAL,FAKE,60fdbf3649d66c64177af5e0,Mexican,2022-03-18_17h30.45.899,lextale_sp,2021.2.3,Win32,60.09976561,,
0,0,2.3448,0,64,64,89,1,90,clavel,1,REAL,FAKE,60fdbf3649d66c64177af5e0,Mexican,2022-03-18_17h30.45.899,lextale_sp,2021.2.3,Win32,60.09976561,,
1,1,0.665,0,65,65,80,1,81,pozo,1,REAL,FAKE,60fdbf3649d66c64177af5e0,Mexican,2022-03-18_17h30.45.899,lextale_sp,2021.2.3,Win32,60.09976561,,
1,1,0.6458,0,66,66,58,1,59,besar,1,REAL,FAKE,60fdbf3649d66c64177af5e0,Mexican,2022-03-18_17h30.45.899,lextale_sp,2021.2.3,Win32,60.09976561,,
1,1,2.2088,0,67,67,21,1,22,lacayo,1,REAL,FAKE,60fdbf3649d66c64177af5e0,Mexican,2022-03-18_17h30.45.899,lextale_sp,2021.2.3,Win32,60.09976561,,
1,0,1.7871,0,68,68,57,1,58,plaudir,0,REAL,FAKE,60fdbf3649d66c64177af5e0,Mexican,2022-03-18_17h30.45.899,lextale_sp,2021.2.3,Win32,60.09976561,,
1,1,0.7275,0,69,69,23,1,24,látigo,1,REAL,FAKE,60fdbf3649d66c64177af5e0,Mexican,2022-03-18_17h30.45.899,lextale_sp,2021.2.3,Win32,60.09976561,,
1,1,1.0283,0,70,70,54,1,55,nevar,1,REAL,FAKE,60fdbf3649d66c64177af5e0,Mexican,2022-03-18_17h30.45.899,lextale_sp,2021.2.3,Win32,60.09976561,,
1,1,0.8131,0,71,71,42,1,43,canela,1,REAL,FAKE,60fdbf3649d66c64177af5e0,Mexican,2022-03-18_17h30.45.899,lextale_sp,2021.2.3,Win32,60.09976561,,
1,0,1.3361,0,72,72,22,1,23,lampera,0,REAL,FAKE,60fdbf3649d66c64177af5e0,Mexican,2022-03-18_17h30.45.899,lextale_sp,2021.2.3,Win32,60.09976561,,
0,1,1.5424,0,73,73,16,1,17,floroso,0,REAL,FAKE,60fdbf3649d66c64177af5e0,Mexican,2022-03-18_17h30.45.899,lextale_sp,2021.2.3,Win32,60.09976561,,
1,1,1.1841,0,74,74,25,1,26,secuestro,1,REAL,FAKE,60fdbf3649d66c64177af5e0,Mexican,2022-03-18_17h30.45.899,lextale_sp,2021.2.3,Win32,60.09976561,,
1,1,0.7015,0,75,75,66,1,67,cabello,1,REAL,FAKE,60fdbf3649d66c64177af5e0,Mexican,2022-03-18_17h30.45.899,lextale_sp,2021.2.3,Win32,60.09976561,,
1,1,1.7661,0,76,76,68,1,69,engatusar,1,REAL,FAKE,60fdbf3649d66c64177af5e0,Mexican,2022-03-18_17h30.45.899,lextale_sp,2021.2.3,Win32,60.09976561,,
1,1,0.6285,0,77,77,48,1,49,ganar,1,REAL,FAKE,60fdbf3649d66c64177af5e0,Mexican,2022-03-18_17h30.45.899,lextale_sp,2021.2.3,Win32,60.09976561,,
1,1,1.2477,0,78,78,84,1,85,laúd,1,REAL,FAKE,60fdbf3649d66c64177af5e0,Mexican,2022-03-18_17h30.45.899,lextale_sp,2021.2.3,Win32,60.09976561,,
1,1,0.8173,0,79,79,60,1,61,seda,1,REAL,FAKE,60fdbf3649d66c64177af5e0,Mexican,2022-03-18_17h30.45.899,lextale_sp,2021.2.3,Win32,60.09976561,,
1,1,1.0157,0,80,80,6,1,7,pésimo,1,REAL,FAKE,60fdbf3649d66c64177af5e0,Mexican,2022-03-18_17h30.45.899,lextale_sp,2021.2.3,Win32,60.09976561,,
1,1,2.4364,0,81,81,24,1,25,bisagra,1,REAL,FAKE,60fdbf3649d66c64177af5e0,Mexican,2022-03-18_17h30.45.899,lextale_sp,2021.2.3,Win32,60.09976561,,
1,0,0.5916,0,82,82,73,1,74,cintro,0,REAL,FAKE,60fdbf3649d66c64177af5e0,Mexican,2022-03-18_17h30.45.899,lextale_sp,2021.2.3,Win32,60.09976561,,
1,1,0.986,0,83,83,74,1,75,yacer,1,REAL,FAKE,60fdbf3649d66c64177af5e0,Mexican,2022-03-18_17h30.45.899,lextale_sp,2021.2.3,Win32,60.09976561,,
1,1,0.5697,0,84,84,47,1,48,ladrón,1,REAL,FAKE,60fdbf3649d66c64177af5e0,Mexican,2022-03-18_17h30.45.899,lextale_sp,2021.2.3,Win32,60.09976561,,
1,1,1.1218,0,85,85,10,1,11,cenefa,1,REAL,FAKE,60fdbf3649d66c64177af5e0,Mexican,2022-03-18_17h30.45.899,lextale_sp,2021.2.3,Win32,60.09976561,,
0,0,0.7797,0,86,86,63,1,64,orgulloso,1,REAL,FAKE,60fdbf3649d66c64177af5e0,Mexican,2022-03-18_17h30.45.899,lextale_sp,2021.2.3,Win32,60.09976561,,
1,0,2.2267,0,87,87,71,1,72,pemición,0,REAL,FAKE,60fdbf3649d66c64177af5e0,Mexican,2022-03-18_17h30.45.899,lextale_sp,2021.2.3,Win32,60.09976561,,
1,1,1.2312,0,88,88,67,1,68,alegre,1,REAL,FAKE,60fdbf3649d66c64177af5e0,Mexican,2022-03-18_17h30.45.899,lextale_sp,2021.2.3,Win32,60.09976561,,
1,0,0.7347,0,89,89,9,1,10,antar,0,REAL,FAKE,60fdbf3649d66c64177af5e0,Mexican,2022-03-18_17h30.45.899,lextale_sp,2021.2.3,Win32,60.09976561,,
,,,,,,,,,,,,,60fdbf3649d66c64177af5e0,Mexican,2022-03-18_17h30.45.899,lextale_sp,2021.2.3,Win32,60.09976561,space,10.9071
