key_resp_lextale_trial.keys,key_resp_lextale_trial.corr,key_resp_lextale_trial.rt,trials.thisRepN,trials.thisTrialN,trials.thisN,trials.thisIndex,trials.ran,stim,word,correct_response,button_real,button_false,id,Variety of Spanish that is most familiar to you?,date,expName,psychopyVersion,OS,frameRate,key_resp.keys,key_resp.rt
1,1,1.269,0,0,0,47,1,48,ladrón,1,REAL,FAKE,5ff5f7ad932d56101bf7c90d,Castellano,2022-03-11_12h15.52.202,lextale_sp,2021.2.3,MacIntel,60.0240096,,
1,1,0.798,0,1,1,6,1,7,pésimo,1,REAL,FAKE,5ff5f7ad932d56101bf7c90d,Castellano,2022-03-11_12h15.52.202,lextale_sp,2021.2.3,MacIntel,60.0240096,,
1,1,0.821,0,2,2,51,1,52,camisa,1,REAL,FAKE,5ff5f7ad932d56101bf7c90d,Castellano,2022-03-11_12h15.52.202,lextale_sp,2021.2.3,MacIntel,60.0240096,,
0,1,0.85,0,3,3,41,1,42,cadallo,0,REAL,FAKE,5ff5f7ad932d56101bf7c90d,Castellano,2022-03-11_12h15.52.202,lextale_sp,2021.2.3,MacIntel,60.0240096,,
1,1,0.784,0,4,4,54,1,55,nevar,1,REAL,FAKE,5ff5f7ad932d56101bf7c90d,Castellano,2022-03-11_12h15.52.202,lextale_sp,2021.2.3,MacIntel,60.0240096,,
0,0,1.015,0,5,5,50,1,51,candado,1,REAL,FAKE,5ff5f7ad932d56101bf7c90d,Castellano,2022-03-11_12h15.52.202,lextale_sp,2021.2.3,MacIntel,60.0240096,,
0,1,1.132,0,6,6,69,1,70,temblo,0,REAL,FAKE,5ff5f7ad932d56101bf7c90d,Castellano,2022-03-11_12h15.52.202,lextale_sp,2021.2.3,MacIntel,60.0240096,,
1,1,0.859,0,7,7,40,1,41,rebuscar,1,REAL,FAKE,5ff5f7ad932d56101bf7c90d,Castellano,2022-03-11_12h15.52.202,lextale_sp,2021.2.3,MacIntel,60.0240096,,
1,1,0.715,0,8,8,33,1,34,aviso,1,REAL,FAKE,5ff5f7ad932d56101bf7c90d,Castellano,2022-03-11_12h15.52.202,lextale_sp,2021.2.3,MacIntel,60.0240096,,
1,1,1.106,0,9,9,72,1,73,hervidor,1,REAL,FAKE,5ff5f7ad932d56101bf7c90d,Castellano,2022-03-11_12h15.52.202,lextale_sp,2021.2.3,MacIntel,60.0240096,,
1,1,0.68,0,10,10,63,1,64,orgulloso,1,REAL,FAKE,5ff5f7ad932d56101bf7c90d,Castellano,2022-03-11_12h15.52.202,lextale_sp,2021.2.3,MacIntel,60.0240096,,
0,1,0.801,0,11,11,46,1,47,cartinar,0,REAL,FAKE,5ff5f7ad932d56101bf7c90d,Castellano,2022-03-11_12h15.52.202,lextale_sp,2021.2.3,MacIntel,60.0240096,,
1,1,0.765,0,12,12,87,1,88,acantilado,1,REAL,FAKE,5ff5f7ad932d56101bf7c90d,Castellano,2022-03-11_12h15.52.202,lextale_sp,2021.2.3,MacIntel,60.0240096,,
0,1,0.885,0,13,13,65,1,66,hacido,0,REAL,FAKE,5ff5f7ad932d56101bf7c90d,Castellano,2022-03-11_12h15.52.202,lextale_sp,2021.2.3,MacIntel,60.0240096,,
0,1,0.884,0,14,14,18,1,19,brecedad,0,REAL,FAKE,5ff5f7ad932d56101bf7c90d,Castellano,2022-03-11_12h15.52.202,lextale_sp,2021.2.3,MacIntel,60.0240096,,
1,1,1.561,0,15,15,84,1,85,laúd,1,REAL,FAKE,5ff5f7ad932d56101bf7c90d,Castellano,2022-03-11_12h15.52.202,lextale_sp,2021.2.3,MacIntel,60.0240096,,
1,1,0.775,0,16,16,60,1,61,seda,1,REAL,FAKE,5ff5f7ad932d56101bf7c90d,Castellano,2022-03-11_12h15.52.202,lextale_sp,2021.2.3,MacIntel,60.0240096,,
1,1,0.7,0,17,17,58,1,59,besar,1,REAL,FAKE,5ff5f7ad932d56101bf7c90d,Castellano,2022-03-11_12h15.52.202,lextale_sp,2021.2.3,MacIntel,60.0240096,,
1,1,2.712,0,18,18,36,1,37,granuja,1,REAL,FAKE,5ff5f7ad932d56101bf7c90d,Castellano,2022-03-11_12h15.52.202,lextale_sp,2021.2.3,MacIntel,60.0240096,,
0,1,1.469,0,19,19,15,1,16,abracer,0,REAL,FAKE,5ff5f7ad932d56101bf7c90d,Castellano,2022-03-11_12h15.52.202,lextale_sp,2021.2.3,MacIntel,60.0240096,,
0,1,0.986,0,20,20,22,1,23,lampera,0,REAL,FAKE,5ff5f7ad932d56101bf7c90d,Castellano,2022-03-11_12h15.52.202,lextale_sp,2021.2.3,MacIntel,60.0240096,,
1,1,0.893,0,21,21,77,1,78,frondoso,1,REAL,FAKE,5ff5f7ad932d56101bf7c90d,Castellano,2022-03-11_12h15.52.202,lextale_sp,2021.2.3,MacIntel,60.0240096,,
1,0,0.973,0,22,22,20,1,21,capillo,0,REAL,FAKE,5ff5f7ad932d56101bf7c90d,Castellano,2022-03-11_12h15.52.202,lextale_sp,2021.2.3,MacIntel,60.0240096,,
1,1,1.001,0,23,23,70,1,71,polvoriento,1,REAL,FAKE,5ff5f7ad932d56101bf7c90d,Castellano,2022-03-11_12h15.52.202,lextale_sp,2021.2.3,MacIntel,60.0240096,,
1,1,0.767,0,24,24,4,1,5,zapato,1,REAL,FAKE,5ff5f7ad932d56101bf7c90d,Castellano,2022-03-11_12h15.52.202,lextale_sp,2021.2.3,MacIntel,60.0240096,,
1,0,3.81,0,25,25,29,1,30,alardio,0,REAL,FAKE,5ff5f7ad932d56101bf7c90d,Castellano,2022-03-11_12h15.52.202,lextale_sp,2021.2.3,MacIntel,60.0240096,,
1,1,1.238,0,26,26,19,1,20,ávido,1,REAL,FAKE,5ff5f7ad932d56101bf7c90d,Castellano,2022-03-11_12h15.52.202,lextale_sp,2021.2.3,MacIntel,60.0240096,,
1,1,0.962,0,27,27,27,1,28,merodear,1,REAL,FAKE,5ff5f7ad932d56101bf7c90d,Castellano,2022-03-11_12h15.52.202,lextale_sp,2021.2.3,MacIntel,60.0240096,,
0,1,1.016,0,28,28,73,1,74,cintro,0,REAL,FAKE,5ff5f7ad932d56101bf7c90d,Castellano,2022-03-11_12h15.52.202,lextale_sp,2021.2.3,MacIntel,60.0240096,,
1,1,1.15,0,29,29,1,1,2,pellizcar,1,REAL,FAKE,5ff5f7ad932d56101bf7c90d,Castellano,2022-03-11_12h15.52.202,lextale_sp,2021.2.3,MacIntel,60.0240096,,
1,1,1.051,0,30,30,30,1,31,pandilla,1,REAL,FAKE,5ff5f7ad932d56101bf7c90d,Castellano,2022-03-11_12h15.52.202,lextale_sp,2021.2.3,MacIntel,60.0240096,,
1,1,0.724,0,31,31,85,1,86,barato,1,REAL,FAKE,5ff5f7ad932d56101bf7c90d,Castellano,2022-03-11_12h15.52.202,lextale_sp,2021.2.3,MacIntel,60.0240096,,
0,1,1.299,0,32,32,7,1,8,cadeña,0,REAL,FAKE,5ff5f7ad932d56101bf7c90d,Castellano,2022-03-11_12h15.52.202,lextale_sp,2021.2.3,MacIntel,60.0240096,,
0,1,0.984,0,33,33,0,1,1,terzo,0,REAL,FAKE,5ff5f7ad932d56101bf7c90d,Castellano,2022-03-11_12h15.52.202,lextale_sp,2021.2.3,MacIntel,60.0240096,,
1,1,0.727,0,34,34,61,1,62,flaco,1,REAL,FAKE,5ff5f7ad932d56101bf7c90d,Castellano,2022-03-11_12h15.52.202,lextale_sp,2021.2.3,MacIntel,60.0240096,,
1,1,0.715,0,35,35,25,1,26,secuestro,1,REAL,FAKE,5ff5f7ad932d56101bf7c90d,Castellano,2022-03-11_12h15.52.202,lextale_sp,2021.2.3,MacIntel,60.0240096,,
1,1,0.648,0,36,36,43,1,44,cuchara,1,REAL,FAKE,5ff5f7ad932d56101bf7c90d,Castellano,2022-03-11_12h15.52.202,lextale_sp,2021.2.3,MacIntel,60.0240096,,
1,1,0.777,0,37,37,53,1,54,fomentar,1,REAL,FAKE,5ff5f7ad932d56101bf7c90d,Castellano,2022-03-11_12h15.52.202,lextale_sp,2021.2.3,MacIntel,60.0240096,,
0,1,0.952,0,38,38,28,1,29,decar,0,REAL,FAKE,5ff5f7ad932d56101bf7c90d,Castellano,2022-03-11_12h15.52.202,lextale_sp,2021.2.3,MacIntel,60.0240096,,
1,1,0.782,0,39,39,37,1,38,estornudar,1,REAL,FAKE,5ff5f7ad932d56101bf7c90d,Castellano,2022-03-11_12h15.52.202,lextale_sp,2021.2.3,MacIntel,60.0240096,,
0,1,1.718,0,40,40,81,1,82,empirador,0,REAL,FAKE,5ff5f7ad932d56101bf7c90d,Castellano,2022-03-11_12h15.52.202,lextale_sp,2021.2.3,MacIntel,60.0240096,,
1,0,1.162,0,41,41,52,1,53,vegada,0,REAL,FAKE,5ff5f7ad932d56101bf7c90d,Castellano,2022-03-11_12h15.52.202,lextale_sp,2021.2.3,MacIntel,60.0240096,,
0,1,0.867,0,42,42,26,1,27,acutación,0,REAL,FAKE,5ff5f7ad932d56101bf7c90d,Castellano,2022-03-11_12h15.52.202,lextale_sp,2021.2.3,MacIntel,60.0240096,,
0,1,1.101,0,43,43,62,1,63,esposante,0,REAL,FAKE,5ff5f7ad932d56101bf7c90d,Castellano,2022-03-11_12h15.52.202,lextale_sp,2021.2.3,MacIntel,60.0240096,,
1,1,0.75,0,44,44,2,1,3,pulmones,1,REAL,FAKE,5ff5f7ad932d56101bf7c90d,Castellano,2022-03-11_12h15.52.202,lextale_sp,2021.2.3,MacIntel,60.0240096,,
1,1,0.967,0,45,45,12,1,13,helar,1,REAL,FAKE,5ff5f7ad932d56101bf7c90d,Castellano,2022-03-11_12h15.52.202,lextale_sp,2021.2.3,MacIntel,60.0240096,,
1,1,0.749,0,46,46,80,1,81,pozo,1,REAL,FAKE,5ff5f7ad932d56101bf7c90d,Castellano,2022-03-11_12h15.52.202,lextale_sp,2021.2.3,MacIntel,60.0240096,,
1,1,0.869,0,47,47,55,1,56,musgo,1,REAL,FAKE,5ff5f7ad932d56101bf7c90d,Castellano,2022-03-11_12h15.52.202,lextale_sp,2021.2.3,MacIntel,60.0240096,,
1,1,1.119,0,48,48,5,1,6,tergiversar,1,REAL,FAKE,5ff5f7ad932d56101bf7c90d,Castellano,2022-03-11_12h15.52.202,lextale_sp,2021.2.3,MacIntel,60.0240096,,
1,1,0.807,0,49,49,56,1,57,tacaño,1,REAL,FAKE,5ff5f7ad932d56101bf7c90d,Castellano,2022-03-11_12h15.52.202,lextale_sp,2021.2.3,MacIntel,60.0240096,,
1,1,1.043,0,50,50,23,1,24,látigo,1,REAL,FAKE,5ff5f7ad932d56101bf7c90d,Castellano,2022-03-11_12h15.52.202,lextale_sp,2021.2.3,MacIntel,60.0240096,,
0,1,0.878,0,51,51,86,1,87,grodo,0,REAL,FAKE,5ff5f7ad932d56101bf7c90d,Castellano,2022-03-11_12h15.52.202,lextale_sp,2021.2.3,MacIntel,60.0240096,,
1,1,0.974,0,52,52,8,1,9,hacha,1,REAL,FAKE,5ff5f7ad932d56101bf7c90d,Castellano,2022-03-11_12h15.52.202,lextale_sp,2021.2.3,MacIntel,60.0240096,,
0,0,1.464,0,53,53,68,1,69,engatusar,1,REAL,FAKE,5ff5f7ad932d56101bf7c90d,Castellano,2022-03-11_12h15.52.202,lextale_sp,2021.2.3,MacIntel,60.0240096,,
1,1,0.712,0,54,54,59,1,60,matar,1,REAL,FAKE,5ff5f7ad932d56101bf7c90d,Castellano,2022-03-11_12h15.52.202,lextale_sp,2021.2.3,MacIntel,60.0240096,,
0,1,2.311,0,55,55,57,1,58,plaudir,0,REAL,FAKE,5ff5f7ad932d56101bf7c90d,Castellano,2022-03-11_12h15.52.202,lextale_sp,2021.2.3,MacIntel,60.0240096,,
1,1,0.695,0,56,56,48,1,49,ganar,1,REAL,FAKE,5ff5f7ad932d56101bf7c90d,Castellano,2022-03-11_12h15.52.202,lextale_sp,2021.2.3,MacIntel,60.0240096,,
1,1,0.817,0,57,57,35,1,36,loro,1,REAL,FAKE,5ff5f7ad932d56101bf7c90d,Castellano,2022-03-11_12h15.52.202,lextale_sp,2021.2.3,MacIntel,60.0240096,,
0,1,0.874,0,58,58,49,1,50,flamida,0,REAL,FAKE,5ff5f7ad932d56101bf7c90d,Castellano,2022-03-11_12h15.52.202,lextale_sp,2021.2.3,MacIntel,60.0240096,,
0,0,0.843,0,59,59,10,1,11,cenefa,1,REAL,FAKE,5ff5f7ad932d56101bf7c90d,Castellano,2022-03-11_12h15.52.202,lextale_sp,2021.2.3,MacIntel,60.0240096,,
1,0,1.645,0,60,60,78,1,79,tropaje,0,REAL,FAKE,5ff5f7ad932d56101bf7c90d,Castellano,2022-03-11_12h15.52.202,lextale_sp,2021.2.3,MacIntel,60.0240096,,
1,1,0.792,0,61,61,39,1,40,alfombra,1,REAL,FAKE,5ff5f7ad932d56101bf7c90d,Castellano,2022-03-11_12h15.52.202,lextale_sp,2021.2.3,MacIntel,60.0240096,,
0,1,1.169,0,62,62,17,1,18,arsa,0,REAL,FAKE,5ff5f7ad932d56101bf7c90d,Castellano,2022-03-11_12h15.52.202,lextale_sp,2021.2.3,MacIntel,60.0240096,,
1,1,0.944,0,63,63,74,1,75,yacer,1,REAL,FAKE,5ff5f7ad932d56101bf7c90d,Castellano,2022-03-11_12h15.52.202,lextale_sp,2021.2.3,MacIntel,60.0240096,,
1,1,0.751,0,64,64,76,1,77,tiburón,1,REAL,FAKE,5ff5f7ad932d56101bf7c90d,Castellano,2022-03-11_12h15.52.202,lextale_sp,2021.2.3,MacIntel,60.0240096,,
1,1,0.751,0,65,65,38,1,39,torpe,1,REAL,FAKE,5ff5f7ad932d56101bf7c90d,Castellano,2022-03-11_12h15.52.202,lextale_sp,2021.2.3,MacIntel,60.0240096,,
1,1,0.736,0,66,66,75,1,76,atar,1,REAL,FAKE,5ff5f7ad932d56101bf7c90d,Castellano,2022-03-11_12h15.52.202,lextale_sp,2021.2.3,MacIntel,60.0240096,,
0,1,0.879,0,67,67,9,1,10,antar,0,REAL,FAKE,5ff5f7ad932d56101bf7c90d,Castellano,2022-03-11_12h15.52.202,lextale_sp,2021.2.3,MacIntel,60.0240096,,
0,1,1.025,0,68,68,3,1,4,batillón,0,REAL,FAKE,5ff5f7ad932d56101bf7c90d,Castellano,2022-03-11_12h15.52.202,lextale_sp,2021.2.3,MacIntel,60.0240096,,
0,1,0.851,0,69,69,32,1,33,pauca,0,REAL,FAKE,5ff5f7ad932d56101bf7c90d,Castellano,2022-03-11_12h15.52.202,lextale_sp,2021.2.3,MacIntel,60.0240096,,
0,0,0.817,0,70,70,21,1,22,lacayo,1,REAL,FAKE,5ff5f7ad932d56101bf7c90d,Castellano,2022-03-11_12h15.52.202,lextale_sp,2021.2.3,MacIntel,60.0240096,,
1,1,0.685,0,71,71,82,1,83,guante,1,REAL,FAKE,5ff5f7ad932d56101bf7c90d,Castellano,2022-03-11_12h15.52.202,lextale_sp,2021.2.3,MacIntel,60.0240096,,
1,1,0.645,0,72,72,88,1,89,prisa,1,REAL,FAKE,5ff5f7ad932d56101bf7c90d,Castellano,2022-03-11_12h15.52.202,lextale_sp,2021.2.3,MacIntel,60.0240096,,
1,1,1.033,0,73,73,89,1,90,clavel,1,REAL,FAKE,5ff5f7ad932d56101bf7c90d,Castellano,2022-03-11_12h15.52.202,lextale_sp,2021.2.3,MacIntel,60.0240096,,
1,1,0.548,0,74,74,79,1,80,hormiga,1,REAL,FAKE,5ff5f7ad932d56101bf7c90d,Castellano,2022-03-11_12h15.52.202,lextale_sp,2021.2.3,MacIntel,60.0240096,,
1,1,0.806,0,75,75,13,1,14,yunque,1,REAL,FAKE,5ff5f7ad932d56101bf7c90d,Castellano,2022-03-11_12h15.52.202,lextale_sp,2021.2.3,MacIntel,60.0240096,,
0,0,2.749,0,76,76,44,1,45,jilguero,1,REAL,FAKE,5ff5f7ad932d56101bf7c90d,Castellano,2022-03-11_12h15.52.202,lextale_sp,2021.2.3,MacIntel,60.0240096,,
1,1,0.818,0,77,77,42,1,43,canela,1,REAL,FAKE,5ff5f7ad932d56101bf7c90d,Castellano,2022-03-11_12h15.52.202,lextale_sp,2021.2.3,MacIntel,60.0240096,,
0,1,1.428,0,78,78,83,1,84,escuto,0,REAL,FAKE,5ff5f7ad932d56101bf7c90d,Castellano,2022-03-11_12h15.52.202,lextale_sp,2021.2.3,MacIntel,60.0240096,,
0,1,0.967,0,79,79,31,1,32,fatacidad,0,REAL,FAKE,5ff5f7ad932d56101bf7c90d,Castellano,2022-03-11_12h15.52.202,lextale_sp,2021.2.3,MacIntel,60.0240096,,
1,1,0.603,0,80,80,67,1,68,alegre,1,REAL,FAKE,5ff5f7ad932d56101bf7c90d,Castellano,2022-03-11_12h15.52.202,lextale_sp,2021.2.3,MacIntel,60.0240096,,
1,1,0.691,0,81,81,45,1,46,martillo,1,REAL,FAKE,5ff5f7ad932d56101bf7c90d,Castellano,2022-03-11_12h15.52.202,lextale_sp,2021.2.3,MacIntel,60.0240096,,
1,1,0.609,0,82,82,14,1,15,regar,1,REAL,FAKE,5ff5f7ad932d56101bf7c90d,Castellano,2022-03-11_12h15.52.202,lextale_sp,2021.2.3,MacIntel,60.0240096,,
0,1,0.944,0,83,83,16,1,17,floroso,0,REAL,FAKE,5ff5f7ad932d56101bf7c90d,Castellano,2022-03-11_12h15.52.202,lextale_sp,2021.2.3,MacIntel,60.0240096,,
1,1,0.718,0,84,84,64,1,65,bizcocho,1,REAL,FAKE,5ff5f7ad932d56101bf7c90d,Castellano,2022-03-11_12h15.52.202,lextale_sp,2021.2.3,MacIntel,60.0240096,,
0,1,0.786,0,85,85,71,1,72,pemición,0,REAL,FAKE,5ff5f7ad932d56101bf7c90d,Castellano,2022-03-11_12h15.52.202,lextale_sp,2021.2.3,MacIntel,60.0240096,,
1,1,0.685,0,86,86,24,1,25,bisagra,1,REAL,FAKE,5ff5f7ad932d56101bf7c90d,Castellano,2022-03-11_12h15.52.202,lextale_sp,2021.2.3,MacIntel,60.0240096,,
0,1,0.986,0,87,87,34,1,35,rompido,0,REAL,FAKE,5ff5f7ad932d56101bf7c90d,Castellano,2022-03-11_12h15.52.202,lextale_sp,2021.2.3,MacIntel,60.0240096,,
1,1,0.661,0,88,88,66,1,67,cabello,1,REAL,FAKE,5ff5f7ad932d56101bf7c90d,Castellano,2022-03-11_12h15.52.202,lextale_sp,2021.2.3,MacIntel,60.0240096,,
1,1,0.71,0,89,89,11,1,12,asesinato,1,REAL,FAKE,5ff5f7ad932d56101bf7c90d,Castellano,2022-03-11_12h15.52.202,lextale_sp,2021.2.3,MacIntel,60.0240096,,
,,,,,,,,,,,,,5ff5f7ad932d56101bf7c90d,Castellano,2022-03-11_12h15.52.202,lextale_sp,2021.2.3,MacIntel,60.0240096,space,7.72
