key_resp_lextale_trial.keys,key_resp_lextale_trial.corr,key_resp_lextale_trial.rt,trials.thisRepN,trials.thisTrialN,trials.thisN,trials.thisIndex,trials.ran,stim,word,correct_response,button_real,button_false,id,Variety of Spanish that is most familiar to you?,date,expName,psychopyVersion,OS,frameRate,key_resp.keys,key_resp.rt
1,1,1.304,0,0,0,48,1,49,ganar,1,REAL,FAKE,5bebd4111296920001d55c5a,Castilian,2022-03-11_14h41.30.371,lextale_sp,2021.2.3,MacIntel,62.5,,
0,1,1.617,0,1,1,49,1,50,flamida,0,REAL,FAKE,5bebd4111296920001d55c5a,Castilian,2022-03-11_14h41.30.371,lextale_sp,2021.2.3,MacIntel,62.5,,
1,0,0.666,0,2,2,7,1,8,cadeña,0,REAL,FAKE,5bebd4111296920001d55c5a,Castilian,2022-03-11_14h41.30.371,lextale_sp,2021.2.3,MacIntel,62.5,,
0,1,1.264,0,3,3,9,1,10,antar,0,REAL,FAKE,5bebd4111296920001d55c5a,Castilian,2022-03-11_14h41.30.371,lextale_sp,2021.2.3,MacIntel,62.5,,
0,0,0.994,0,4,4,45,1,46,martillo,1,REAL,FAKE,5bebd4111296920001d55c5a,Castilian,2022-03-11_14h41.30.371,lextale_sp,2021.2.3,MacIntel,62.5,,
1,1,0.597,0,5,5,66,1,67,cabello,1,REAL,FAKE,5bebd4111296920001d55c5a,Castilian,2022-03-11_14h41.30.371,lextale_sp,2021.2.3,MacIntel,62.5,,
1,0,0.624,0,6,6,65,1,66,hacido,0,REAL,FAKE,5bebd4111296920001d55c5a,Castilian,2022-03-11_14h41.30.371,lextale_sp,2021.2.3,MacIntel,62.5,,
1,0,1.31,0,7,7,81,1,82,empirador,0,REAL,FAKE,5bebd4111296920001d55c5a,Castilian,2022-03-11_14h41.30.371,lextale_sp,2021.2.3,MacIntel,62.5,,
1,0,0.546,0,8,8,73,1,74,cintro,0,REAL,FAKE,5bebd4111296920001d55c5a,Castilian,2022-03-11_14h41.30.371,lextale_sp,2021.2.3,MacIntel,62.5,,
1,0,0.662,0,9,9,3,1,4,batillón,0,REAL,FAKE,5bebd4111296920001d55c5a,Castilian,2022-03-11_14h41.30.371,lextale_sp,2021.2.3,MacIntel,62.5,,
1,1,0.729,0,10,10,88,1,89,prisa,1,REAL,FAKE,5bebd4111296920001d55c5a,Castilian,2022-03-11_14h41.30.371,lextale_sp,2021.2.3,MacIntel,62.5,,
1,1,1.062,0,11,11,30,1,31,pandilla,1,REAL,FAKE,5bebd4111296920001d55c5a,Castilian,2022-03-11_14h41.30.371,lextale_sp,2021.2.3,MacIntel,62.5,,
1,1,0.695,0,12,12,60,1,61,seda,1,REAL,FAKE,5bebd4111296920001d55c5a,Castilian,2022-03-11_14h41.30.371,lextale_sp,2021.2.3,MacIntel,62.5,,
1,1,0.563,0,13,13,51,1,52,camisa,1,REAL,FAKE,5bebd4111296920001d55c5a,Castilian,2022-03-11_14h41.30.371,lextale_sp,2021.2.3,MacIntel,62.5,,
0,1,0.952,0,14,14,17,1,18,arsa,0,REAL,FAKE,5bebd4111296920001d55c5a,Castilian,2022-03-11_14h41.30.371,lextale_sp,2021.2.3,MacIntel,62.5,,
1,1,0.614,0,15,15,42,1,43,canela,1,REAL,FAKE,5bebd4111296920001d55c5a,Castilian,2022-03-11_14h41.30.371,lextale_sp,2021.2.3,MacIntel,62.5,,
0,0,1.011,0,16,16,77,1,78,frondoso,1,REAL,FAKE,5bebd4111296920001d55c5a,Castilian,2022-03-11_14h41.30.371,lextale_sp,2021.2.3,MacIntel,62.5,,
1,0,1.106,0,17,17,0,1,1,terzo,0,REAL,FAKE,5bebd4111296920001d55c5a,Castilian,2022-03-11_14h41.30.371,lextale_sp,2021.2.3,MacIntel,62.5,,
1,0,0.98,0,18,18,26,1,27,acutación,0,REAL,FAKE,5bebd4111296920001d55c5a,Castilian,2022-03-11_14h41.30.371,lextale_sp,2021.2.3,MacIntel,62.5,,
1,0,0.789,0,19,19,16,1,17,floroso,0,REAL,FAKE,5bebd4111296920001d55c5a,Castilian,2022-03-11_14h41.30.371,lextale_sp,2021.2.3,MacIntel,62.5,,
1,0,0.705,0,20,20,78,1,79,tropaje,0,REAL,FAKE,5bebd4111296920001d55c5a,Castilian,2022-03-11_14h41.30.371,lextale_sp,2021.2.3,MacIntel,62.5,,
1,1,0.597,0,21,21,75,1,76,atar,1,REAL,FAKE,5bebd4111296920001d55c5a,Castilian,2022-03-11_14h41.30.371,lextale_sp,2021.2.3,MacIntel,62.5,,
1,1,0.745,0,22,22,23,1,24,látigo,1,REAL,FAKE,5bebd4111296920001d55c5a,Castilian,2022-03-11_14h41.30.371,lextale_sp,2021.2.3,MacIntel,62.5,,
1,1,1.042,0,23,23,37,1,38,estornudar,1,REAL,FAKE,5bebd4111296920001d55c5a,Castilian,2022-03-11_14h41.30.371,lextale_sp,2021.2.3,MacIntel,62.5,,
0,1,1.068,0,24,24,52,1,53,vegada,0,REAL,FAKE,5bebd4111296920001d55c5a,Castilian,2022-03-11_14h41.30.371,lextale_sp,2021.2.3,MacIntel,62.5,,
1,1,0.665,0,25,25,59,1,60,matar,1,REAL,FAKE,5bebd4111296920001d55c5a,Castilian,2022-03-11_14h41.30.371,lextale_sp,2021.2.3,MacIntel,62.5,,
0,1,1.401,0,26,26,18,1,19,brecedad,0,REAL,FAKE,5bebd4111296920001d55c5a,Castilian,2022-03-11_14h41.30.371,lextale_sp,2021.2.3,MacIntel,62.5,,
1,1,0.853,0,27,27,82,1,83,guante,1,REAL,FAKE,5bebd4111296920001d55c5a,Castilian,2022-03-11_14h41.30.371,lextale_sp,2021.2.3,MacIntel,62.5,,
1,1,1.076,0,28,28,19,1,20,ávido,1,REAL,FAKE,5bebd4111296920001d55c5a,Castilian,2022-03-11_14h41.30.371,lextale_sp,2021.2.3,MacIntel,62.5,,
0,0,3.237,0,29,29,87,1,88,acantilado,1,REAL,FAKE,5bebd4111296920001d55c5a,Castilian,2022-03-11_14h41.30.371,lextale_sp,2021.2.3,MacIntel,62.5,,
1,0,0.685,0,30,30,20,1,21,capillo,0,REAL,FAKE,5bebd4111296920001d55c5a,Castilian,2022-03-11_14h41.30.371,lextale_sp,2021.2.3,MacIntel,62.5,,
0,0,2.048,0,31,31,5,1,6,tergiversar,1,REAL,FAKE,5bebd4111296920001d55c5a,Castilian,2022-03-11_14h41.30.371,lextale_sp,2021.2.3,MacIntel,62.5,,
1,1,0.701,0,32,32,67,1,68,alegre,1,REAL,FAKE,5bebd4111296920001d55c5a,Castilian,2022-03-11_14h41.30.371,lextale_sp,2021.2.3,MacIntel,62.5,,
0,0,1.529,0,33,33,44,1,45,jilguero,1,REAL,FAKE,5bebd4111296920001d55c5a,Castilian,2022-03-11_14h41.30.371,lextale_sp,2021.2.3,MacIntel,62.5,,
0,1,0.801,0,34,34,32,1,33,pauca,0,REAL,FAKE,5bebd4111296920001d55c5a,Castilian,2022-03-11_14h41.30.371,lextale_sp,2021.2.3,MacIntel,62.5,,
1,1,0.645,0,35,35,47,1,48,ladrón,1,REAL,FAKE,5bebd4111296920001d55c5a,Castilian,2022-03-11_14h41.30.371,lextale_sp,2021.2.3,MacIntel,62.5,,
1,1,0.678,0,36,36,79,1,80,hormiga,1,REAL,FAKE,5bebd4111296920001d55c5a,Castilian,2022-03-11_14h41.30.371,lextale_sp,2021.2.3,MacIntel,62.5,,
1,0,0.747,0,37,37,57,1,58,plaudir,0,REAL,FAKE,5bebd4111296920001d55c5a,Castilian,2022-03-11_14h41.30.371,lextale_sp,2021.2.3,MacIntel,62.5,,
1,1,0.679,0,38,38,61,1,62,flaco,1,REAL,FAKE,5bebd4111296920001d55c5a,Castilian,2022-03-11_14h41.30.371,lextale_sp,2021.2.3,MacIntel,62.5,,
1,1,0.597,0,39,39,76,1,77,tiburón,1,REAL,FAKE,5bebd4111296920001d55c5a,Castilian,2022-03-11_14h41.30.371,lextale_sp,2021.2.3,MacIntel,62.5,,
1,1,0.756,0,40,40,13,1,14,yunque,1,REAL,FAKE,5bebd4111296920001d55c5a,Castilian,2022-03-11_14h41.30.371,lextale_sp,2021.2.3,MacIntel,62.5,,
1,1,1.397,0,41,41,2,1,3,pulmones,1,REAL,FAKE,5bebd4111296920001d55c5a,Castilian,2022-03-11_14h41.30.371,lextale_sp,2021.2.3,MacIntel,62.5,,
1,1,0.678,0,42,42,38,1,39,torpe,1,REAL,FAKE,5bebd4111296920001d55c5a,Castilian,2022-03-11_14h41.30.371,lextale_sp,2021.2.3,MacIntel,62.5,,
1,1,0.781,0,43,43,74,1,75,yacer,1,REAL,FAKE,5bebd4111296920001d55c5a,Castilian,2022-03-11_14h41.30.371,lextale_sp,2021.2.3,MacIntel,62.5,,
0,0,1.583,0,44,44,27,1,28,merodear,1,REAL,FAKE,5bebd4111296920001d55c5a,Castilian,2022-03-11_14h41.30.371,lextale_sp,2021.2.3,MacIntel,62.5,,
0,0,2.052,0,45,45,1,1,2,pellizcar,1,REAL,FAKE,5bebd4111296920001d55c5a,Castilian,2022-03-11_14h41.30.371,lextale_sp,2021.2.3,MacIntel,62.5,,
0,0,0.747,0,46,46,55,1,56,musgo,1,REAL,FAKE,5bebd4111296920001d55c5a,Castilian,2022-03-11_14h41.30.371,lextale_sp,2021.2.3,MacIntel,62.5,,
0,0,1.652,0,47,47,6,1,7,pésimo,1,REAL,FAKE,5bebd4111296920001d55c5a,Castilian,2022-03-11_14h41.30.371,lextale_sp,2021.2.3,MacIntel,62.5,,
0,1,1.373,0,48,48,69,1,70,temblo,0,REAL,FAKE,5bebd4111296920001d55c5a,Castilian,2022-03-11_14h41.30.371,lextale_sp,2021.2.3,MacIntel,62.5,,
1,1,0.529,0,49,49,33,1,34,aviso,1,REAL,FAKE,5bebd4111296920001d55c5a,Castilian,2022-03-11_14h41.30.371,lextale_sp,2021.2.3,MacIntel,62.5,,
0,1,0.974,0,50,50,34,1,35,rompido,0,REAL,FAKE,5bebd4111296920001d55c5a,Castilian,2022-03-11_14h41.30.371,lextale_sp,2021.2.3,MacIntel,62.5,,
0,1,1.184,0,51,51,46,1,47,cartinar,0,REAL,FAKE,5bebd4111296920001d55c5a,Castilian,2022-03-11_14h41.30.371,lextale_sp,2021.2.3,MacIntel,62.5,,
0,1,0.879,0,52,52,41,1,42,cadallo,0,REAL,FAKE,5bebd4111296920001d55c5a,Castilian,2022-03-11_14h41.30.371,lextale_sp,2021.2.3,MacIntel,62.5,,
0,0,2.046,0,53,53,70,1,71,polvoriento,1,REAL,FAKE,5bebd4111296920001d55c5a,Castilian,2022-03-11_14h41.30.371,lextale_sp,2021.2.3,MacIntel,62.5,,
0,0,1.394,0,54,54,24,1,25,bisagra,1,REAL,FAKE,5bebd4111296920001d55c5a,Castilian,2022-03-11_14h41.30.371,lextale_sp,2021.2.3,MacIntel,62.5,,
0,0,1.002,0,55,55,89,1,90,clavel,1,REAL,FAKE,5bebd4111296920001d55c5a,Castilian,2022-03-11_14h41.30.371,lextale_sp,2021.2.3,MacIntel,62.5,,
1,1,0.601,0,56,56,4,1,5,zapato,1,REAL,FAKE,5bebd4111296920001d55c5a,Castilian,2022-03-11_14h41.30.371,lextale_sp,2021.2.3,MacIntel,62.5,,
0,0,0.806,0,57,57,10,1,11,cenefa,1,REAL,FAKE,5bebd4111296920001d55c5a,Castilian,2022-03-11_14h41.30.371,lextale_sp,2021.2.3,MacIntel,62.5,,
0,0,0.716,0,58,58,21,1,22,lacayo,1,REAL,FAKE,5bebd4111296920001d55c5a,Castilian,2022-03-11_14h41.30.371,lextale_sp,2021.2.3,MacIntel,62.5,,
0,1,0.67,0,59,59,86,1,87,grodo,0,REAL,FAKE,5bebd4111296920001d55c5a,Castilian,2022-03-11_14h41.30.371,lextale_sp,2021.2.3,MacIntel,62.5,,
0,0,1.942,0,60,60,36,1,37,granuja,1,REAL,FAKE,5bebd4111296920001d55c5a,Castilian,2022-03-11_14h41.30.371,lextale_sp,2021.2.3,MacIntel,62.5,,
1,1,0.722,0,61,61,50,1,51,candado,1,REAL,FAKE,5bebd4111296920001d55c5a,Castilian,2022-03-11_14h41.30.371,lextale_sp,2021.2.3,MacIntel,62.5,,
1,1,0.757,0,62,62,80,1,81,pozo,1,REAL,FAKE,5bebd4111296920001d55c5a,Castilian,2022-03-11_14h41.30.371,lextale_sp,2021.2.3,MacIntel,62.5,,
0,1,1.142,0,63,63,71,1,72,pemición,0,REAL,FAKE,5bebd4111296920001d55c5a,Castilian,2022-03-11_14h41.30.371,lextale_sp,2021.2.3,MacIntel,62.5,,
1,0,0.683,0,64,64,62,1,63,esposante,0,REAL,FAKE,5bebd4111296920001d55c5a,Castilian,2022-03-11_14h41.30.371,lextale_sp,2021.2.3,MacIntel,62.5,,
1,1,0.664,0,65,65,72,1,73,hervidor,1,REAL,FAKE,5bebd4111296920001d55c5a,Castilian,2022-03-11_14h41.30.371,lextale_sp,2021.2.3,MacIntel,62.5,,
1,1,0.557,0,66,66,53,1,54,fomentar,1,REAL,FAKE,5bebd4111296920001d55c5a,Castilian,2022-03-11_14h41.30.371,lextale_sp,2021.2.3,MacIntel,62.5,,
1,1,0.822,0,67,67,84,1,85,laúd,1,REAL,FAKE,5bebd4111296920001d55c5a,Castilian,2022-03-11_14h41.30.371,lextale_sp,2021.2.3,MacIntel,62.5,,
1,0,0.8,0,68,68,83,1,84,escuto,0,REAL,FAKE,5bebd4111296920001d55c5a,Castilian,2022-03-11_14h41.30.371,lextale_sp,2021.2.3,MacIntel,62.5,,
1,0,2.148,0,69,69,28,1,29,decar,0,REAL,FAKE,5bebd4111296920001d55c5a,Castilian,2022-03-11_14h41.30.371,lextale_sp,2021.2.3,MacIntel,62.5,,
1,1,0.71,0,70,70,25,1,26,secuestro,1,REAL,FAKE,5bebd4111296920001d55c5a,Castilian,2022-03-11_14h41.30.371,lextale_sp,2021.2.3,MacIntel,62.5,,
1,1,0.646,0,71,71,64,1,65,bizcocho,1,REAL,FAKE,5bebd4111296920001d55c5a,Castilian,2022-03-11_14h41.30.371,lextale_sp,2021.2.3,MacIntel,62.5,,
0,0,1.261,0,72,72,40,1,41,rebuscar,1,REAL,FAKE,5bebd4111296920001d55c5a,Castilian,2022-03-11_14h41.30.371,lextale_sp,2021.2.3,MacIntel,62.5,,
1,0,0.757,0,73,73,15,1,16,abracer,0,REAL,FAKE,5bebd4111296920001d55c5a,Castilian,2022-03-11_14h41.30.371,lextale_sp,2021.2.3,MacIntel,62.5,,
0,1,2.08,0,74,74,29,1,30,alardio,0,REAL,FAKE,5bebd4111296920001d55c5a,Castilian,2022-03-11_14h41.30.371,lextale_sp,2021.2.3,MacIntel,62.5,,
1,1,1.155,0,75,75,43,1,44,cuchara,1,REAL,FAKE,5bebd4111296920001d55c5a,Castilian,2022-03-11_14h41.30.371,lextale_sp,2021.2.3,MacIntel,62.5,,
1,1,0.567,0,76,76,58,1,59,besar,1,REAL,FAKE,5bebd4111296920001d55c5a,Castilian,2022-03-11_14h41.30.371,lextale_sp,2021.2.3,MacIntel,62.5,,
1,1,0.517,0,77,77,54,1,55,nevar,1,REAL,FAKE,5bebd4111296920001d55c5a,Castilian,2022-03-11_14h41.30.371,lextale_sp,2021.2.3,MacIntel,62.5,,
1,1,0.926,0,78,78,14,1,15,regar,1,REAL,FAKE,5bebd4111296920001d55c5a,Castilian,2022-03-11_14h41.30.371,lextale_sp,2021.2.3,MacIntel,62.5,,
1,1,0.642,0,79,79,12,1,13,helar,1,REAL,FAKE,5bebd4111296920001d55c5a,Castilian,2022-03-11_14h41.30.371,lextale_sp,2021.2.3,MacIntel,62.5,,
1,1,1.181,0,80,80,56,1,57,tacaño,1,REAL,FAKE,5bebd4111296920001d55c5a,Castilian,2022-03-11_14h41.30.371,lextale_sp,2021.2.3,MacIntel,62.5,,
0,1,2.446,0,81,81,31,1,32,fatacidad,0,REAL,FAKE,5bebd4111296920001d55c5a,Castilian,2022-03-11_14h41.30.371,lextale_sp,2021.2.3,MacIntel,62.5,,
0,0,1.069,0,82,82,8,1,9,hacha,1,REAL,FAKE,5bebd4111296920001d55c5a,Castilian,2022-03-11_14h41.30.371,lextale_sp,2021.2.3,MacIntel,62.5,,
1,1,1.135,0,83,83,11,1,12,asesinato,1,REAL,FAKE,5bebd4111296920001d55c5a,Castilian,2022-03-11_14h41.30.371,lextale_sp,2021.2.3,MacIntel,62.5,,
0,1,0.962,0,84,84,22,1,23,lampera,0,REAL,FAKE,5bebd4111296920001d55c5a,Castilian,2022-03-11_14h41.30.371,lextale_sp,2021.2.3,MacIntel,62.5,,
0,0,1.439,0,85,85,68,1,69,engatusar,1,REAL,FAKE,5bebd4111296920001d55c5a,Castilian,2022-03-11_14h41.30.371,lextale_sp,2021.2.3,MacIntel,62.5,,
1,1,0.659,0,86,86,63,1,64,orgulloso,1,REAL,FAKE,5bebd4111296920001d55c5a,Castilian,2022-03-11_14h41.30.371,lextale_sp,2021.2.3,MacIntel,62.5,,
1,1,0.917,0,87,87,35,1,36,loro,1,REAL,FAKE,5bebd4111296920001d55c5a,Castilian,2022-03-11_14h41.30.371,lextale_sp,2021.2.3,MacIntel,62.5,,
1,1,0.736,0,88,88,39,1,40,alfombra,1,REAL,FAKE,5bebd4111296920001d55c5a,Castilian,2022-03-11_14h41.30.371,lextale_sp,2021.2.3,MacIntel,62.5,,
1,1,0.665,0,89,89,85,1,86,barato,1,REAL,FAKE,5bebd4111296920001d55c5a,Castilian,2022-03-11_14h41.30.371,lextale_sp,2021.2.3,MacIntel,62.5,,
,,,,,,,,,,,,,5bebd4111296920001d55c5a,Castilian,2022-03-11_14h41.30.371,lextale_sp,2021.2.3,MacIntel,62.5,space,12.375
