lextale_instructions.started,lextale_instructions.stopped,lextale_instructions_loop.thisRepN,lextale_instructions_loop.thisTrialN,lextale_instructions_loop.thisN,lextale_instructions_loop.thisIndex,lextale_instructions_loop.ran,instructions_text,continue_text,participant,session,date,expName,psychopyVersion,OS,frameRate,lextale_practice.started,lextale_practice.stopped,key_resp_lextale_practice.keys,key_resp_lextale_practice.corr,key_resp_lextale_practice.rt,key_resp_lextale_practice.duration,lextale_practice_feedback.started,lextale_practice_feedback.stopped,lextale_practice_trials.thisRepN,lextale_practice_trials.thisTrialN,lextale_practice_trials.thisN,lextale_practice_trials.thisIndex,lextale_practice_trials.ran,stim,word,correct_response,prac_button_real,prac_button_false,lextale_check.started,lextale_check.stopped,lextale_trial.started,lextale_trial.stopped,key_resp_lextale_trial.keys,key_resp_lextale_trial.corr,key_resp_lextale_trial.rt,key_resp_lextale_trial.duration,lextail_trials.thisRepN,lextail_trials.thisTrialN,lextail_trials.thisN,lextail_trials.thisIndex,lextail_trials.ran,type,correct_reponse,button_real,button_false
0.0037,7.2029,0,0,0,0,1,"Este es un test de vocabulario en español. 
  
  A continuación vas a ver 90 secuencias de letras que parecen 'españolas'.
  
  Solo algunas de ellas son palabras de verdad.",(presiona la barra espaciadora para continuar),56c89222dfea6c000bb23762,001,2024-06-30_05h34.06.829,empathy_intonation_perc,2024.1.4,Win32,144.9275362,,,,,,,,,,,,,,,,,,,,,,,,,,,,,,,,,,,
7.2033,15.8549,0,1,1,1,1,"Por favor, señala las palabras que tú conoces (aquellas que estás convencido que son palabras españolas, incluso aunque no seas capaz de dar el significado preciso).",(presiona la barra espaciadora para continuar),56c89222dfea6c000bb23762,001,2024-06-30_05h34.06.829,empathy_intonation_perc,2024.1.4,Win32,144.9275362,,,,,,,,,,,,,,,,,,,,,,,,,,,,,,,,,,,
15.8551,28.2088,0,2,2,2,1,Pero cuidado: los errores se penalizan. Por eso no tiene sentido tratar de incrementar tu puntuación marcando como reales palabras que nunca has visto.,(presiona la barra espaciadora para continuar),56c89222dfea6c000bb23762,001,2024-06-30_05h34.06.829,empathy_intonation_perc,2024.1.4,Win32,144.9275362,,,,,,,,,,,,,,,,,,,,,,,,,,,,,,,,,,,
28.209,33.6464,0,3,3,3,1,"Presiona la tecla 1 si piensas que es una palabra real y la tecla 
  0 si piensas que es una palabra falsa. 
  
  Vamos a practicar un poco...",(presiona la barra espaciadora para continuar),56c89222dfea6c000bb23762,001,2024-06-30_05h34.06.829,empathy_intonation_perc,2024.1.4,Win32,144.9275362,,,,,,,,,,,,,,,,,,,,,,,,,,,,,,,,,,,
,,,,,,,,,56c89222dfea6c000bb23762,001,2024-06-30_05h34.06.829,empathy_intonation_perc,2024.1.4,Win32,144.9275362,33.6485,37.445,0,1,3.2824,,37.4452,38.4449,0,0,0,0,1,0,depiste,0,REAL,FALSA,,,,,,,,,,,,,,,,,
,,,,,,,,,56c89222dfea6c000bb23762,001,2024-06-30_05h34.06.829,empathy_intonation_perc,2024.1.4,Win32,144.9275362,38.4454,39.6253,1,1,0.6645,,39.6253,40.6251,0,1,1,1,1,0,sí,1,REAL,FALSA,,,,,,,,,,,,,,,,,
,,,,,,,,,56c89222dfea6c000bb23762,001,2024-06-30_05h34.06.829,empathy_intonation_perc,2024.1.4,Win32,144.9275362,40.6255,42.2502,1,0,1.1087,,42.2503,43.2503,0,2,2,2,1,0,coné,0,REAL,FALSA,,,,,,,,,,,,,,,,,
,,,,,,,,,56c89222dfea6c000bb23762,001,2024-06-30_05h34.06.829,empathy_intonation_perc,2024.1.4,Win32,144.9275362,43.2506,44.4863,0,1,0.7209,,44.4863,45.4863,0,3,3,3,1,0,calpar,0,REAL,FALSA,,,,,,,,,,,,,,,,,
,,,,,,,,,56c89222dfea6c000bb23762,001,2024-06-30_05h34.06.829,empathy_intonation_perc,2024.1.4,Win32,144.9275362,45.4867,46.9029,0,1,0.9021,,46.9029,47.9029,0,4,4,4,1,0,joten,0,REAL,FALSA,,,,,,,,,,,,,,,,,
,,,,,,,,,56c89222dfea6c000bb23762,001,2024-06-30_05h34.06.829,empathy_intonation_perc,2024.1.4,Win32,144.9275362,47.9033,52.1251,0,0,3.7088,,52.1251,53.1251,0,5,5,5,1,0,sacapuntas,1,REAL,FALSA,,,,,,,,,,,,,,,,,
,,,,,,,,,56c89222dfea6c000bb23762,001,2024-06-30_05h34.06.829,empathy_intonation_perc,2024.1.4,Win32,144.9275362,53.1311,54.6945,1,0,1.0544,,54.6945,55.6944,0,6,6,6,1,0,priba,0,REAL,FALSA,,,,,,,,,,,,,,,,,
,,,,,,,,,56c89222dfea6c000bb23762,001,2024-06-30_05h34.06.829,empathy_intonation_perc,2024.1.4,Win32,144.9275362,55.7006,57.368,0,1,1.1604,,57.368,58.368,0,7,7,7,1,0,pelasula,0,REAL,FALSA,,,,,,,,,,,,,,,,,
,,,,,,,,,56c89222dfea6c000bb23762,001,2024-06-30_05h34.06.829,empathy_intonation_perc,2024.1.4,Win32,144.9275362,58.3682,59.6665,1,1,0.7878,,59.6667,60.6666,0,8,8,8,1,0,bien,1,REAL,FALSA,,,,,,,,,,,,,,,,,
,,,,,,,,,56c89222dfea6c000bb23762,001,2024-06-30_05h34.06.829,empathy_intonation_perc,2024.1.4,Win32,144.9275362,60.6669,61.854,1,1,0.6739,,61.8541,62.854,0,9,9,9,1,0,casa,1,REAL,FALSA,,,,,,,,,,,,,,,,,
,,,,,,,,,56c89222dfea6c000bb23762,001,2024-06-30_05h34.06.829,empathy_intonation_perc,2024.1.4,Win32,144.9275362,62.8542,64.472,1,0,1.1028,,64.4721,65.4721,0,10,10,10,1,0,lejo,0,REAL,FALSA,,,,,,,,,,,,,,,,,
,,,,,,,,,56c89222dfea6c000bb23762,001,2024-06-30_05h34.06.829,empathy_intonation_perc,2024.1.4,Win32,144.9275362,65.4725,67.4581,1,0,1.4729,,67.4582,68.4581,0,11,11,11,1,0,pretantas,0,REAL,FALSA,,,,,,,,,,,,,,,,,
,,,,,,,,,56c89222dfea6c000bb23762,001,2024-06-30_05h34.06.829,empathy_intonation_perc,2024.1.4,Win32,144.9275362,,,,,,,,,,,,,,,,,,,68.4585,71.3888,,,,,,,,,,,,,,,
,,,,,,,,,56c89222dfea6c000bb23762,001,2024-06-30_05h34.06.829,empathy_intonation_perc,2024.1.4,Win32,144.9275362,,,,,,,,,,,,,,60,siglo,,,,,,71.401,73.8124,0,1,1.9043,,0,0,0,59,1,non_cognate,1,REAL,FALSA
,,,,,,,,,56c89222dfea6c000bb23762,001,2024-06-30_05h34.06.829,empathy_intonation_perc,2024.1.4,Win32,144.9275362,,,,,,,,,,,,,,53,punta,,,,,,73.8184,75.097,1,0,0.7697,,0,1,1,52,1,non_cognate,1,REAL,FALSA
,,,,,,,,,56c89222dfea6c000bb23762,001,2024-06-30_05h34.06.829,empathy_intonation_perc,2024.1.4,Win32,144.9275362,,,,,,,,,,,,,,180,pupica,,,,,,75.0973,76.694,0,1,1.085,,0,2,2,179,1,pseudoword,0,REAL,FALSA
,,,,,,,,,56c89222dfea6c000bb23762,001,2024-06-30_05h34.06.829,empathy_intonation_perc,2024.1.4,Win32,144.9275362,,,,,,,,,,,,,,155,kugis,,,,,,76.6943,77.9093,0,1,0.6998,,0,3,3,154,1,pseudoword,0,REAL,FALSA
,,,,,,,,,56c89222dfea6c000bb23762,001,2024-06-30_05h34.06.829,empathy_intonation_perc,2024.1.4,Win32,144.9275362,,,,,,,,,,,,,,87,muleta,,,,,,77.9096,80.3746,1,0,1.9495,,0,4,4,86,1,non_cognate,1,REAL,FALSA
,,,,,,,,,56c89222dfea6c000bb23762,001,2024-06-30_05h34.06.829,empathy_intonation_perc,2024.1.4,Win32,144.9275362,,,,,,,,,,,,,,152,prave,,,,,,80.3749,81.9788,0,1,1.0891,,0,5,5,151,1,pseudoword,0,REAL,FALSA
,,,,,,,,,56c89222dfea6c000bb23762,001,2024-06-30_05h34.06.829,empathy_intonation_perc,2024.1.4,Win32,144.9275362,,,,,,,,,,,,,,120,mauja,,,,,,81.979,83.6384,0,1,1.1489,,0,6,6,119,1,pseudoword,0,REAL,FALSA
,,,,,,,,,56c89222dfea6c000bb23762,001,2024-06-30_05h34.06.829,empathy_intonation_perc,2024.1.4,Win32,144.9275362,,,,,,,,,,,,,,44,editor,,,,,,83.6388,85.7009,1,0,1.5491,,0,7,7,43,1,two_way_cognate,1,REAL,FALSA
,,,,,,,,,56c89222dfea6c000bb23762,001,2024-06-30_05h34.06.829,empathy_intonation_perc,2024.1.4,Win32,144.9275362,,,,,,,,,,,,,,14,aura,,,,,,85.7071,87.423,1,0,1.2103,,0,8,8,13,1,three_way_cognate,1,REAL,FALSA
,,,,,,,,,56c89222dfea6c000bb23762,001,2024-06-30_05h34.06.829,empathy_intonation_perc,2024.1.4,Win32,144.9275362,,,,,,,,,,,,,,62,pegar,,,,,,87.4233,88.909,0,1,0.9715,,0,9,9,61,1,non_cognate,1,REAL,FALSA
,,,,,,,,,56c89222dfea6c000bb23762,001,2024-06-30_05h34.06.829,empathy_intonation_perc,2024.1.4,Win32,144.9275362,,,,,,,,,,,,,,71,torta,,,,,,88.9093,90.9021,0,1,1.4804,,0,10,10,70,1,non_cognate,1,REAL,FALSA
,,,,,,,,,56c89222dfea6c000bb23762,001,2024-06-30_05h34.06.829,empathy_intonation_perc,2024.1.4,Win32,144.9275362,,,,,,,,,,,,,,182,desaro,,,,,,90.9024,92.3743,0,1,0.9562,,0,11,11,181,1,pseudoword,0,REAL,FALSA
,,,,,,,,,56c89222dfea6c000bb23762,001,2024-06-30_05h34.06.829,empathy_intonation_perc,2024.1.4,Win32,144.9275362,,,,,,,,,,,,,,186,rizate,,,,,,92.3746,93.7284,0,1,0.8381,,0,12,12,185,1,pseudoword,0,REAL,FALSA
,,,,,,,,,56c89222dfea6c000bb23762,001,2024-06-30_05h34.06.829,empathy_intonation_perc,2024.1.4,Win32,144.9275362,,,,,,,,,,,,,,50,sierra,,,,,,93.7287,94.8742,1,0,0.6347,,0,13,13,49,1,non_cognate,1,REAL,FALSA
,,,,,,,,,56c89222dfea6c000bb23762,001,2024-06-30_05h34.06.829,empathy_intonation_perc,2024.1.4,Win32,144.9275362,,,,,,,,,,,,,,58,colcha,,,,,,94.8746,96.5825,0,1,1.1938,,0,14,14,57,1,non_cognate,1,REAL,FALSA
,,,,,,,,,56c89222dfea6c000bb23762,001,2024-06-30_05h34.06.829,empathy_intonation_perc,2024.1.4,Win32,144.9275362,,,,,,,,,,,,,,117,morrá,,,,,,96.5829,97.8672,0,1,0.7736,,0,15,15,116,1,pseudoword,0,REAL,FALSA
,,,,,,,,,56c89222dfea6c000bb23762,001,2024-06-30_05h34.06.829,empathy_intonation_perc,2024.1.4,Win32,144.9275362,,,,,,,,,,,,,,29,clamor,,,,,,97.8676,99.2006,1,0,0.8179,,0,16,16,28,1,two_way_cognate,1,REAL,FALSA
,,,,,,,,,56c89222dfea6c000bb23762,001,2024-06-30_05h34.06.829,empathy_intonation_perc,2024.1.4,Win32,144.9275362,,,,,,,,,,,,,,134,molor,,,,,,99.2009,100.7075,1,0,0.9925,,0,17,17,133,1,pseudoword,0,REAL,FALSA
,,,,,,,,,56c89222dfea6c000bb23762,001,2024-06-30_05h34.06.829,empathy_intonation_perc,2024.1.4,Win32,144.9275362,,,,,,,,,,,,,,159,trcia,,,,,,100.7079,101.9506,0,1,0.7277,,0,18,18,158,1,pseudoword,0,REAL,FALSA
,,,,,,,,,56c89222dfea6c000bb23762,001,2024-06-30_05h34.06.829,empathy_intonation_perc,2024.1.4,Win32,144.9275362,,,,,,,,,,,,,,127,vien,,,,,,101.9509,103.4019,1,0,0.9393,,0,19,19,126,1,pseudoword,0,REAL,FALSA
,,,,,,,,,56c89222dfea6c000bb23762,001,2024-06-30_05h34.06.829,empathy_intonation_perc,2024.1.4,Win32,144.9275362,,,,,,,,,,,,,,75,patada,,,,,,103.4023,104.9018,1,0,0.9858,,0,20,20,74,1,non_cognate,1,REAL,FALSA
,,,,,,,,,56c89222dfea6c000bb23762,001,2024-06-30_05h34.06.829,empathy_intonation_perc,2024.1.4,Win32,144.9275362,,,,,,,,,,,,,,80,cuenco,,,,,,104.9021,106.3325,1,0,0.919,,0,21,21,79,1,non_cognate,1,REAL,FALSA
,,,,,,,,,56c89222dfea6c000bb23762,001,2024-06-30_05h34.06.829,empathy_intonation_perc,2024.1.4,Win32,144.9275362,,,,,,,,,,,,,,109,laras,,,,,,106.3328,107.6866,0,1,0.842,,0,22,22,108,1,pseudoword,0,REAL,FALSA
,,,,,,,,,56c89222dfea6c000bb23762,001,2024-06-30_05h34.06.829,empathy_intonation_perc,2024.1.4,Win32,144.9275362,,,,,,,,,,,,,,101,losco,,,,,,107.6869,109.1796,0,1,0.9816,,0,23,23,100,1,pseudoword,0,REAL,FALSA
,,,,,,,,,56c89222dfea6c000bb23762,001,2024-06-30_05h34.06.829,empathy_intonation_perc,2024.1.4,Win32,144.9275362,,,,,,,,,,,,,,184,huenos,,,,,,109.18,110.5338,1,0,0.8402,,0,24,24,183,1,pseudoword,0,REAL,FALSA
,,,,,,,,,56c89222dfea6c000bb23762,001,2024-06-30_05h34.06.829,empathy_intonation_perc,2024.1.4,Win32,144.9275362,,,,,,,,,,,,,,133,conso,,,,,,110.5341,111.9781,1,0,0.9305,,0,25,25,132,1,pseudoword,0,REAL,FALSA
,,,,,,,,,56c89222dfea6c000bb23762,001,2024-06-30_05h34.06.829,empathy_intonation_perc,2024.1.4,Win32,144.9275362,,,,,,,,,,,,,,169,pitis,,,,,,111.9784,113.3184,0,1,0.8296,,0,26,26,168,1,pseudoword,0,REAL,FALSA
,,,,,,,,,56c89222dfea6c000bb23762,001,2024-06-30_05h34.06.829,empathy_intonation_perc,2024.1.4,Win32,144.9275362,,,,,,,,,,,,,,76,chocar,,,,,,113.3187,114.6864,0,1,0.8515,,0,27,27,75,1,non_cognate,1,REAL,FALSA
,,,,,,,,,56c89222dfea6c000bb23762,001,2024-06-30_05h34.06.829,empathy_intonation_perc,2024.1.4,Win32,144.9275362,,,,,,,,,,,,,,20,trauma,,,,,,114.6868,115.8462,1,0,0.6472,,0,28,28,19,1,three_way_cognate,1,REAL,FALSA
,,,,,,,,,56c89222dfea6c000bb23762,001,2024-06-30_05h34.06.829,empathy_intonation_perc,2024.1.4,Win32,144.9275362,,,,,,,,,,,,,,177,entodo,,,,,,115.8465,117.2281,0,1,0.8708,,0,29,29,176,1,pseudoword,0,REAL,FALSA
,,,,,,,,,56c89222dfea6c000bb23762,001,2024-06-30_05h34.06.829,empathy_intonation_perc,2024.1.4,Win32,144.9275362,,,,,,,,,,,,,,121,barbs,,,,,,117.2284,118.867,1,0,1.1279,,0,30,30,120,1,pseudoword,0,REAL,FALSA
,,,,,,,,,56c89222dfea6c000bb23762,001,2024-06-30_05h34.06.829,empathy_intonation_perc,2024.1.4,Win32,144.9275362,,,,,,,,,,,,,,65,guerra,,,,,,118.8673,120.2494,1,0,0.8714,,0,31,31,64,1,non_cognate,1,REAL,FALSA
,,,,,,,,,56c89222dfea6c000bb23762,001,2024-06-30_05h34.06.829,empathy_intonation_perc,2024.1.4,Win32,144.9275362,,,,,,,,,,,,,,118,bará,,,,,,120.2497,121.8182,0,1,1.059,,0,32,32,117,1,pseudoword,0,REAL,FALSA
,,,,,,,,,56c89222dfea6c000bb23762,001,2024-06-30_05h34.06.829,empathy_intonation_perc,2024.1.4,Win32,144.9275362,,,,,,,,,,,,,,26,enigma,,,,,,121.8184,123.1724,1,0,0.8387,,0,33,33,25,1,two_way_cognate,1,REAL,FALSA
,,,,,,,,,56c89222dfea6c000bb23762,001,2024-06-30_05h34.06.829,empathy_intonation_perc,2024.1.4,Win32,144.9275362,,,,,,,,,,,,,,172,dogue,,,,,,123.1727,124.6168,0,1,0.931,,0,34,34,171,1,pseudoword,0,REAL,FALSA
,,,,,,,,,56c89222dfea6c000bb23762,001,2024-06-30_05h34.06.829,empathy_intonation_perc,2024.1.4,Win32,144.9275362,,,,,,,,,,,,,,140,chorde,,,,,,124.6171,125.8877,0,1,0.7569,,0,35,35,139,1,pseudoword,0,REAL,FALSA
,,,,,,,,,56c89222dfea6c000bb23762,001,2024-06-30_05h34.06.829,empathy_intonation_perc,2024.1.4,Win32,144.9275362,,,,,,,,,,,,,,79,suelo,,,,,,125.888,127.2279,0,1,0.8283,,0,36,36,78,1,non_cognate,1,REAL,FALSA
,,,,,,,,,56c89222dfea6c000bb23762,001,2024-06-30_05h34.06.829,empathy_intonation_perc,2024.1.4,Win32,144.9275362,,,,,,,,,,,,,,59,feo,,,,,,127.2284,128.9293,0,1,1.1862,,0,37,37,58,1,non_cognate,1,REAL,FALSA
,,,,,,,,,56c89222dfea6c000bb23762,001,2024-06-30_05h34.06.829,empathy_intonation_perc,2024.1.4,Win32,144.9275362,,,,,,,,,,,,,,98,martir,,,,,,128.9297,130.1793,0,1,0.7343,,0,38,38,97,1,pseudoword,0,REAL,FALSA
,,,,,,,,,56c89222dfea6c000bb23762,001,2024-06-30_05h34.06.829,empathy_intonation_perc,2024.1.4,Win32,144.9275362,,,,,,,,,,,,,,51,listo,,,,,,130.1796,131.3459,0,1,0.6514,,0,39,39,50,1,non_cognate,1,REAL,FALSA
,,,,,,,,,56c89222dfea6c000bb23762,001,2024-06-30_05h34.06.829,empathy_intonation_perc,2024.1.4,Win32,144.9275362,,,,,,,,,,,,,,96,caro,,,,,,131.3463,132.443,1,0,0.5816,,0,40,40,95,1,non_cognate,1,REAL,FALSA
,,,,,,,,,56c89222dfea6c000bb23762,001,2024-06-30_05h34.06.829,empathy_intonation_perc,2024.1.4,Win32,144.9275362,,,,,,,,,,,,,,35,aurora,,,,,,132.4434,133.6722,1,0,0.7139,,0,41,41,34,1,two_way_cognate,1,REAL,FALSA
,,,,,,,,,56c89222dfea6c000bb23762,001,2024-06-30_05h34.06.829,empathy_intonation_perc,2024.1.4,Win32,144.9275362,,,,,,,,,,,,,,158,babrá,,,,,,133.6725,135.0611,1,0,0.8769,,0,42,42,157,1,pseudoword,0,REAL,FALSA
,,,,,,,,,56c89222dfea6c000bb23762,001,2024-06-30_05h34.06.829,empathy_intonation_perc,2024.1.4,Win32,144.9275362,,,,,,,,,,,,,,19,mafia,,,,,,135.0614,136.2486,1,0,0.672,,0,43,43,18,1,three_way_cognate,1,REAL,FALSA
,,,,,,,,,56c89222dfea6c000bb23762,001,2024-06-30_05h34.06.829,empathy_intonation_perc,2024.1.4,Win32,144.9275362,,,,,,,,,,,,,,83,hálito,,,,,,136.2489,137.45,0,1,0.6915,,0,44,44,82,1,non_cognate,1,REAL,FALSA
,,,,,,,,,56c89222dfea6c000bb23762,001,2024-06-30_05h34.06.829,empathy_intonation_perc,2024.1.4,Win32,144.9275362,,,,,,,,,,,,,,192,próces,,,,,,137.4503,139.8874,0,1,1.9248,,0,45,45,191,1,pseudoword,0,REAL,FALSA
,,,,,,,,,56c89222dfea6c000bb23762,001,2024-06-30_05h34.06.829,empathy_intonation_perc,2024.1.4,Win32,144.9275362,,,,,,,,,,,,,,114,dibrea,,,,,,139.8934,141.1999,0,1,0.8007,,0,46,46,113,1,pseudoword,0,REAL,FALSA
,,,,,,,,,56c89222dfea6c000bb23762,001,2024-06-30_05h34.06.829,empathy_intonation_perc,2024.1.4,Win32,144.9275362,,,,,,,,,,,,,,11,golf,,,,,,141.2002,142.311,1,0,0.601,,0,47,47,10,1,three_way_cognate,1,REAL,FALSA
,,,,,,,,,56c89222dfea6c000bb23762,001,2024-06-30_05h34.06.829,empathy_intonation_perc,2024.1.4,Win32,144.9275362,,,,,,,,,,,,,,13,plan,,,,,,142.3115,143.3943,1,0,0.5727,,0,48,48,12,1,three_way_cognate,1,REAL,FALSA
,,,,,,,,,56c89222dfea6c000bb23762,001,2024-06-30_05h34.06.829,empathy_intonation_perc,2024.1.4,Win32,144.9275362,,,,,,,,,,,,,,92,flecha,,,,,,143.3946,145.2553,0,1,1.3485,,0,49,49,91,1,non_cognate,1,REAL,FALSA
,,,,,,,,,56c89222dfea6c000bb23762,001,2024-06-30_05h34.06.829,empathy_intonation_perc,2024.1.4,Win32,144.9275362,,,,,,,,,,,,,,15,test,,,,,,145.2556,146.3666,1,0,0.5953,,0,50,50,14,1,three_way_cognate,1,REAL,FALSA
,,,,,,,,,56c89222dfea6c000bb23762,001,2024-06-30_05h34.06.829,empathy_intonation_perc,2024.1.4,Win32,144.9275362,,,,,,,,,,,,,,45,total,,,,,,146.3669,147.4983,1,0,0.6183,,0,51,51,44,1,two_way_cognate,1,REAL,FALSA
,,,,,,,,,56c89222dfea6c000bb23762,001,2024-06-30_05h34.06.829,empathy_intonation_perc,2024.1.4,Win32,144.9275362,,,,,,,,,,,,,,176,gripar,,,,,,147.4986,148.8039,0,1,0.7931,,0,52,52,175,1,pseudoword,0,REAL,FALSA
,,,,,,,,,56c89222dfea6c000bb23762,001,2024-06-30_05h34.06.829,empathy_intonation_perc,2024.1.4,Win32,144.9275362,,,,,,,,,,,,,,88,percha,,,,,,148.8042,149.9567,0,1,0.6406,,0,53,53,87,1,non_cognate,1,REAL,FALSA
,,,,,,,,,56c89222dfea6c000bb23762,001,2024-06-30_05h34.06.829,empathy_intonation_perc,2024.1.4,Win32,144.9275362,,,,,,,,,,,,,,161,civas,,,,,,149.957,151.0678,0,1,0.596,,0,54,54,160,1,pseudoword,0,REAL,FALSA
,,,,,,,,,56c89222dfea6c000bb23762,001,2024-06-30_05h34.06.829,empathy_intonation_perc,2024.1.4,Win32,144.9275362,,,,,,,,,,,,,,40,pelvis,,,,,,151.0681,152.3942,1,0,0.8128,,0,55,55,39,1,two_way_cognate,1,REAL,FALSA
,,,,,,,,,56c89222dfea6c000bb23762,001,2024-06-30_05h34.06.829,empathy_intonation_perc,2024.1.4,Win32,144.9275362,,,,,,,,,,,,,,135,panté,,,,,,152.3945,153.5122,0,1,0.6024,,0,56,56,134,1,pseudoword,0,REAL,FALSA
,,,,,,,,,56c89222dfea6c000bb23762,001,2024-06-30_05h34.06.829,empathy_intonation_perc,2024.1.4,Win32,144.9275362,,,,,,,,,,,,,,33,collar,,,,,,153.5124,154.651,1,0,0.6288,,0,57,57,32,1,two_way_cognate,1,REAL,FALSA
,,,,,,,,,56c89222dfea6c000bb23762,001,2024-06-30_05h34.06.829,empathy_intonation_perc,2024.1.4,Win32,144.9275362,,,,,,,,,,,,,,168,cobén,,,,,,154.6514,155.7831,0,1,0.6217,,0,58,58,167,1,pseudoword,0,REAL,FALSA
,,,,,,,,,56c89222dfea6c000bb23762,001,2024-06-30_05h34.06.829,empathy_intonation_perc,2024.1.4,Win32,144.9275362,,,,,,,,,,,,,,166,anfia,,,,,,155.7835,157.5469,0,1,1.2481,,0,59,59,165,1,pseudoword,0,REAL,FALSA
,,,,,,,,,56c89222dfea6c000bb23762,001,2024-06-30_05h34.06.829,empathy_intonation_perc,2024.1.4,Win32,144.9275362,,,,,,,,,,,,,,164,tecia,,,,,,157.5472,158.6857,0,1,0.6272,,0,60,60,163,1,pseudoword,0,REAL,FALSA
,,,,,,,,,56c89222dfea6c000bb23762,001,2024-06-30_05h34.06.829,empathy_intonation_perc,2024.1.4,Win32,144.9275362,,,,,,,,,,,,,,189,medium,,,,,,158.686,159.7691,1,0,0.5679,,0,61,61,188,1,pseudoword,0,REAL,FALSA
,,,,,,,,,56c89222dfea6c000bb23762,001,2024-06-30_05h34.06.829,empathy_intonation_perc,2024.1.4,Win32,144.9275362,,,,,,,,,,,,,,89,muñeca,,,,,,159.7695,161.1509,0,1,0.8666,,0,62,62,88,1,non_cognate,1,REAL,FALSA
,,,,,,,,,56c89222dfea6c000bb23762,001,2024-06-30_05h34.06.829,empathy_intonation_perc,2024.1.4,Win32,144.9275362,,,,,,,,,,,,,,82,brillo,,,,,,161.1512,162.4704,0,1,0.8086,,0,63,63,81,1,non_cognate,1,REAL,FALSA
,,,,,,,,,56c89222dfea6c000bb23762,001,2024-06-30_05h34.06.829,empathy_intonation_perc,2024.1.4,Win32,144.9275362,,,,,,,,,,,,,,162,cengo,,,,,,162.4707,164.4494,0,1,1.4645,,0,64,64,161,1,pseudoword,0,REAL,FALSA
,,,,,,,,,56c89222dfea6c000bb23762,001,2024-06-30_05h34.06.829,empathy_intonation_perc,2024.1.4,Win32,144.9275362,,,,,,,,,,,,,,43,honor,,,,,,164.4497,165.5119,1,0,0.5506,,0,65,65,42,1,two_way_cognate,1,REAL,FALSA
,,,,,,,,,56c89222dfea6c000bb23762,001,2024-06-30_05h34.06.829,empathy_intonation_perc,2024.1.4,Win32,144.9275362,,,,,,,,,,,,,,165,chote,,,,,,165.5122,166.873,0,1,0.8466,,0,66,66,164,1,pseudoword,0,REAL,FALSA
,,,,,,,,,56c89222dfea6c000bb23762,001,2024-06-30_05h34.06.829,empathy_intonation_perc,2024.1.4,Win32,144.9275362,,,,,,,,,,,,,,136,hueas,,,,,,166.8734,168.0952,0,1,0.7091,,0,67,67,135,1,pseudoword,0,REAL,FALSA
,,,,,,,,,56c89222dfea6c000bb23762,001,2024-06-30_05h34.06.829,empathy_intonation_perc,2024.1.4,Win32,144.9275362,,,,,,,,,,,,,,142,parre,,,,,,168.0955,169.38,0,1,0.7746,,0,68,68,141,1,pseudoword,0,REAL,FALSA
,,,,,,,,,56c89222dfea6c000bb23762,001,2024-06-30_05h34.06.829,empathy_intonation_perc,2024.1.4,Win32,144.9275362,,,,,,,,,,,,,,100,épinas,,,,,,169.3803,170.5744,0,1,0.6827,,0,69,69,99,1,pseudoword,0,REAL,FALSA
,,,,,,,,,56c89222dfea6c000bb23762,001,2024-06-30_05h34.06.829,empathy_intonation_perc,2024.1.4,Win32,144.9275362,,,,,,,,,,,,,,108,jauda,,,,,,170.5749,171.762,0,1,0.6758,,0,70,70,107,1,pseudoword,0,REAL,FALSA
,,,,,,,,,56c89222dfea6c000bb23762,001,2024-06-30_05h34.06.829,empathy_intonation_perc,2024.1.4,Win32,144.9275362,,,,,,,,,,,,,,156,ozoso,,,,,,171.7622,172.984,0,1,0.7069,,0,71,71,155,1,pseudoword,0,REAL,FALSA
,,,,,,,,,56c89222dfea6c000bb23762,001,2024-06-30_05h34.06.829,empathy_intonation_perc,2024.1.4,Win32,144.9275362,,,,,,,,,,,,,,3,disco,,,,,,172.9844,174.0951,1,0,0.5979,,0,72,72,2,1,three_way_cognate,1,REAL,FALSA
,,,,,,,,,56c89222dfea6c000bb23762,001,2024-06-30_05h34.06.829,empathy_intonation_perc,2024.1.4,Win32,144.9275362,,,,,,,,,,,,,,25,vigor,,,,,,174.0954,175.1784,1,0,0.5684,,0,73,73,24,1,two_way_cognate,1,REAL,FALSA
,,,,,,,,,56c89222dfea6c000bb23762,001,2024-06-30_05h34.06.829,empathy_intonation_perc,2024.1.4,Win32,144.9275362,,,,,,,,,,,,,,170,diabo,,,,,,175.1787,176.6854,0,1,0.995,,0,74,74,169,1,pseudoword,0,REAL,FALSA
,,,,,,,,,56c89222dfea6c000bb23762,001,2024-06-30_05h34.06.829,empathy_intonation_perc,2024.1.4,Win32,144.9275362,,,,,,,,,,,,,,150,cricó,,,,,,176.6858,177.8521,0,1,0.6533,,0,75,75,149,1,pseudoword,0,REAL,FALSA
,,,,,,,,,56c89222dfea6c000bb23762,001,2024-06-30_05h34.06.829,empathy_intonation_perc,2024.1.4,Win32,144.9275362,,,,,,,,,,,,,,126,tobre,,,,,,177.8525,178.9423,0,1,0.5757,,0,76,76,125,1,pseudoword,0,REAL,FALSA
,,,,,,,,,56c89222dfea6c000bb23762,001,2024-06-30_05h34.06.829,empathy_intonation_perc,2024.1.4,Win32,144.9275362,,,,,,,,,,,,,,99,bugor,,,,,,178.9426,180.1089,0,1,0.6533,,0,77,77,98,1,pseudoword,0,REAL,FALSA
,,,,,,,,,56c89222dfea6c000bb23762,001,2024-06-30_05h34.06.829,empathy_intonation_perc,2024.1.4,Win32,144.9275362,,,,,,,,,,,,,,66,aleta,,,,,,180.1093,181.2201,0,1,0.5969,,0,78,78,65,1,non_cognate,1,REAL,FALSA
,,,,,,,,,56c89222dfea6c000bb23762,001,2024-06-30_05h34.06.829,empathy_intonation_perc,2024.1.4,Win32,144.9275362,,,,,,,,,,,,,,179,suelet,,,,,,181.2204,182.2963,0,1,0.5613,,0,79,79,178,1,pseudoword,0,REAL,FALSA
,,,,,,,,,56c89222dfea6c000bb23762,001,2024-06-30_05h34.06.829,empathy_intonation_perc,2024.1.4,Win32,144.9275362,,,,,,,,,,,,,,175,tradía,,,,,,182.2967,183.4632,0,1,0.653,,0,80,80,174,1,pseudoword,0,REAL,FALSA
,,,,,,,,,56c89222dfea6c000bb23762,001,2024-06-30_05h34.06.829,empathy_intonation_perc,2024.1.4,Win32,144.9275362,,,,,,,,,,,,,,141,virios,,,,,,183.4634,184.6783,0,1,0.7003,,0,81,81,140,1,pseudoword,0,REAL,FALSA
,,,,,,,,,56c89222dfea6c000bb23762,001,2024-06-30_05h34.06.829,empathy_intonation_perc,2024.1.4,Win32,144.9275362,,,,,,,,,,,,,,28,ardor,,,,,,184.6785,185.8796,0,1,0.6858,,0,82,82,27,1,two_way_cognate,1,REAL,FALSA
,,,,,,,,,56c89222dfea6c000bb23762,001,2024-06-30_05h34.06.829,empathy_intonation_perc,2024.1.4,Win32,144.9275362,,,,,,,,,,,,,,148,gino,,,,,,185.8799,187.0185,0,1,0.6259,,0,83,83,147,1,pseudoword,0,REAL,FALSA
,,,,,,,,,56c89222dfea6c000bb23762,001,2024-06-30_05h34.06.829,empathy_intonation_perc,2024.1.4,Win32,144.9275362,,,,,,,,,,,,,,105,leniz,,,,,,187.0189,188.206,0,1,0.6759,,0,84,84,104,1,pseudoword,0,REAL,FALSA
,,,,,,,,,56c89222dfea6c000bb23762,001,2024-06-30_05h34.06.829,empathy_intonation_perc,2024.1.4,Win32,144.9275362,,,,,,,,,,,,,,9,portal,,,,,,188.2063,189.2963,1,0,0.5757,,0,85,85,8,1,three_way_cognate,1,REAL,FALSA
,,,,,,,,,56c89222dfea6c000bb23762,001,2024-06-30_05h34.06.829,empathy_intonation_perc,2024.1.4,Win32,144.9275362,,,,,,,,,,,,,,174,pabea,,,,,,189.2967,190.4213,0,1,0.6099,,0,86,86,173,1,pseudoword,0,REAL,FALSA
,,,,,,,,,56c89222dfea6c000bb23762,001,2024-06-30_05h34.06.829,empathy_intonation_perc,2024.1.4,Win32,144.9275362,,,,,,,,,,,,,,94,forro,,,,,,190.4216,191.5323,0,1,0.5973,,0,87,87,93,1,non_cognate,1,REAL,FALSA
,,,,,,,,,56c89222dfea6c000bb23762,001,2024-06-30_05h34.06.829,empathy_intonation_perc,2024.1.4,Win32,144.9275362,,,,,,,,,,,,,,12,dogma,,,,,,191.5327,192.699,1,0,0.6523,,0,88,88,11,1,three_way_cognate,1,REAL,FALSA
,,,,,,,,,56c89222dfea6c000bb23762,001,2024-06-30_05h34.06.829,empathy_intonation_perc,2024.1.4,Win32,144.9275362,,,,,,,,,,,,,,97,nocita,,,,,,192.6994,193.8239,0,1,0.6101,,0,89,89,96,1,pseudoword,0,REAL,FALSA
,,,,,,,,,56c89222dfea6c000bb23762,001,2024-06-30_05h34.06.829,empathy_intonation_perc,2024.1.4,Win32,144.9275362,,,,,,,,,,,,,,149,emén,,,,,,193.8243,194.9211,0,1,0.5876,,0,90,90,148,1,pseudoword,0,REAL,FALSA
,,,,,,,,,56c89222dfea6c000bb23762,001,2024-06-30_05h34.06.829,empathy_intonation_perc,2024.1.4,Win32,144.9275362,,,,,,,,,,,,,,153,golla,,,,,,194.9214,196.185,0,1,0.7479,,0,91,91,152,1,pseudoword,0,REAL,FALSA
,,,,,,,,,56c89222dfea6c000bb23762,001,2024-06-30_05h34.06.829,empathy_intonation_perc,2024.1.4,Win32,144.9275362,,,,,,,,,,,,,,146,gió,,,,,,196.1853,197.2614,0,1,0.5649,,0,92,92,145,1,pseudoword,0,REAL,FALSA
,,,,,,,,,56c89222dfea6c000bb23762,001,2024-06-30_05h34.06.829,empathy_intonation_perc,2024.1.4,Win32,144.9275362,,,,,,,,,,,,,,4,flora,,,,,,197.2618,198.428,1,0,0.652,,0,93,93,3,1,three_way_cognate,1,REAL,FALSA
,,,,,,,,,56c89222dfea6c000bb23762,001,2024-06-30_05h34.06.829,empathy_intonation_perc,2024.1.4,Win32,144.9275362,,,,,,,,,,,,,,38,halo,,,,,,198.4284,199.6225,1,0,0.6839,,0,94,94,37,1,two_way_cognate,1,REAL,FALSA
,,,,,,,,,56c89222dfea6c000bb23762,001,2024-06-30_05h34.06.829,empathy_intonation_perc,2024.1.4,Win32,144.9275362,,,,,,,,,,,,,,39,casual,,,,,,199.6228,200.7341,1,0,0.6011,,0,95,95,38,1,two_way_cognate,1,REAL,FALSA
,,,,,,,,,56c89222dfea6c000bb23762,001,2024-06-30_05h34.06.829,empathy_intonation_perc,2024.1.4,Win32,144.9275362,,,,,,,,,,,,,,27,piano,,,,,,200.7343,201.8725,1,0,0.6232,,0,96,96,26,1,two_way_cognate,1,REAL,FALSA
,,,,,,,,,56c89222dfea6c000bb23762,001,2024-06-30_05h34.06.829,empathy_intonation_perc,2024.1.4,Win32,144.9275362,,,,,,,,,,,,,,72,rostro,,,,,,201.8729,203.0877,0,1,0.7019,,0,97,97,71,1,non_cognate,1,REAL,FALSA
,,,,,,,,,56c89222dfea6c000bb23762,001,2024-06-30_05h34.06.829,empathy_intonation_perc,2024.1.4,Win32,144.9275362,,,,,,,,,,,,,,137,trugo,,,,,,203.0881,204.2057,0,1,0.6041,,0,98,98,136,1,pseudoword,0,REAL,FALSA
,,,,,,,,,56c89222dfea6c000bb23762,001,2024-06-30_05h34.06.829,empathy_intonation_perc,2024.1.4,Win32,144.9275362,,,,,,,,,,,,,,131,fuar,,,,,,204.2061,205.2959,0,1,0.579,,0,99,99,130,1,pseudoword,0,REAL,FALSA
,,,,,,,,,56c89222dfea6c000bb23762,001,2024-06-30_05h34.06.829,empathy_intonation_perc,2024.1.4,Win32,144.9275362,,,,,,,,,,,,,,69,tiza,,,,,,205.2962,206.4279,0,1,0.6215,,0,100,100,68,1,non_cognate,1,REAL,FALSA
,,,,,,,,,56c89222dfea6c000bb23762,001,2024-06-30_05h34.06.829,empathy_intonation_perc,2024.1.4,Win32,144.9275362,,,,,,,,,,,,,,63,hilo,,,,,,206.4282,207.671,0,1,0.733,,0,101,101,62,1,non_cognate,1,REAL,FALSA
,,,,,,,,,56c89222dfea6c000bb23762,001,2024-06-30_05h34.06.829,empathy_intonation_perc,2024.1.4,Win32,144.9275362,,,,,,,,,,,,,,21,hotel,,,,,,207.6712,208.7334,1,0,0.5513,,0,102,102,20,1,three_way_cognate,1,REAL,FALSA
,,,,,,,,,56c89222dfea6c000bb23762,001,2024-06-30_05h34.06.829,empathy_intonation_perc,2024.1.4,Win32,144.9275362,,,,,,,,,,,,,,85,enorme,,,,,,208.7337,209.9279,0,1,0.6821,,0,103,103,84,1,non_cognate,1,REAL,FALSA
,,,,,,,,,56c89222dfea6c000bb23762,001,2024-06-30_05h34.06.829,empathy_intonation_perc,2024.1.4,Win32,144.9275362,,,,,,,,,,,,,,68,puñal,,,,,,209.9282,211.0875,0,1,0.6457,,0,104,104,67,1,non_cognate,1,REAL,FALSA
,,,,,,,,,56c89222dfea6c000bb23762,001,2024-06-30_05h34.06.829,empathy_intonation_perc,2024.1.4,Win32,144.9275362,,,,,,,,,,,,,,113,nasce,,,,,,211.0879,212.2265,0,1,0.6239,,0,105,105,112,1,pseudoword,0,REAL,FALSA
,,,,,,,,,56c89222dfea6c000bb23762,001,2024-06-30_05h34.06.829,empathy_intonation_perc,2024.1.4,Win32,144.9275362,,,,,,,,,,,,,,151,prías,,,,,,212.2268,213.3167,0,1,0.5762,,0,106,106,150,1,pseudoword,0,REAL,FALSA
,,,,,,,,,56c89222dfea6c000bb23762,001,2024-06-30_05h34.06.829,empathy_intonation_perc,2024.1.4,Win32,144.9275362,,,,,,,,,,,,,,187,nomata,,,,,,213.317,214.4485,0,1,0.6199,,0,107,107,186,1,pseudoword,0,REAL,FALSA
,,,,,,,,,56c89222dfea6c000bb23762,001,2024-06-30_05h34.06.829,empathy_intonation_perc,2024.1.4,Win32,144.9275362,,,,,,,,,,,,,,147,alla,,,,,,214.4488,215.6084,1,0,0.6461,,0,108,108,146,1,pseudoword,0,REAL,FALSA
,,,,,,,,,56c89222dfea6c000bb23762,001,2024-06-30_05h34.06.829,empathy_intonation_perc,2024.1.4,Win32,144.9275362,,,,,,,,,,,,,,74,ala,,,,,,215.6087,216.7332,0,1,0.6133,,0,109,109,73,1,non_cognate,1,REAL,FALSA
,,,,,,,,,56c89222dfea6c000bb23762,001,2024-06-30_05h34.06.829,empathy_intonation_perc,2024.1.4,Win32,144.9275362,,,,,,,,,,,,,,139,sasos,,,,,,216.7335,217.8999,0,1,0.6563,,0,110,110,138,1,pseudoword,0,REAL,FALSA
,,,,,,,,,56c89222dfea6c000bb23762,001,2024-06-30_05h34.06.829,empathy_intonation_perc,2024.1.4,Win32,144.9275362,,,,,,,,,,,,,,145,rúo,,,,,,217.9002,219.0249,0,1,0.612,,0,111,111,144,1,pseudoword,0,REAL,FALSA
,,,,,,,,,56c89222dfea6c000bb23762,001,2024-06-30_05h34.06.829,empathy_intonation_perc,2024.1.4,Win32,144.9275362,,,,,,,,,,,,,,178,inichó,,,,,,219.0252,220.1708,0,1,0.6344,,0,112,112,177,1,pseudoword,0,REAL,FALSA
,,,,,,,,,56c89222dfea6c000bb23762,001,2024-06-30_05h34.06.829,empathy_intonation_perc,2024.1.4,Win32,144.9275362,,,,,,,,,,,,,,183,edioso,,,,,,220.1711,221.3234,0,1,0.6418,,0,113,113,182,1,pseudoword,0,REAL,FALSA
,,,,,,,,,56c89222dfea6c000bb23762,001,2024-06-30_05h34.06.829,empathy_intonation_perc,2024.1.4,Win32,144.9275362,,,,,,,,,,,,,,84,aviso,,,,,,221.3238,222.4971,0,1,0.6574,,0,114,114,83,1,non_cognate,1,REAL,FALSA
,,,,,,,,,56c89222dfea6c000bb23762,001,2024-06-30_05h34.06.829,empathy_intonation_perc,2024.1.4,Win32,144.9275362,,,,,,,,,,,,,,41,pasta,,,,,,222.4975,223.5734,1,0,0.5615,,0,115,115,40,1,two_way_cognate,1,REAL,FALSA
,,,,,,,,,56c89222dfea6c000bb23762,001,2024-06-30_05h34.06.829,empathy_intonation_perc,2024.1.4,Win32,144.9275362,,,,,,,,,,,,,,70,ánimo,,,,,,223.5736,224.7817,0,1,0.6929,,0,116,116,69,1,non_cognate,1,REAL,FALSA
,,,,,,,,,56c89222dfea6c000bb23762,001,2024-06-30_05h34.06.829,empathy_intonation_perc,2024.1.4,Win32,144.9275362,,,,,,,,,,,,,,49,teñir,,,,,,224.782,225.9557,0,1,0.6577,,0,117,117,48,1,non_cognate,1,REAL,FALSA
,,,,,,,,,56c89222dfea6c000bb23762,001,2024-06-30_05h34.06.829,empathy_intonation_perc,2024.1.4,Win32,144.9275362,,,,,,,,,,,,,,73,llevar,,,,,,225.956,227.0735,0,1,0.6062,,0,118,118,72,1,non_cognate,1,REAL,FALSA
,,,,,,,,,56c89222dfea6c000bb23762,001,2024-06-30_05h34.06.829,empathy_intonation_perc,2024.1.4,Win32,144.9275362,,,,,,,,,,,,,,90,venado,,,,,,227.0738,228.7123,1,0,1.1234,,0,119,119,89,1,non_cognate,1,REAL,FALSA
,,,,,,,,,56c89222dfea6c000bb23762,001,2024-06-30_05h34.06.829,empathy_intonation_perc,2024.1.4,Win32,144.9275362,,,,,,,,,,,,,,7,albino,,,,,,228.7126,230.0108,1,0,0.7852,,0,120,120,6,1,three_way_cognate,1,REAL,FALSA
,,,,,,,,,56c89222dfea6c000bb23762,001,2024-06-30_05h34.06.829,empathy_intonation_perc,2024.1.4,Win32,144.9275362,,,,,,,,,,,,,,125,ceme,,,,,,230.0112,231.1219,0,1,0.6009,,0,121,121,124,1,pseudoword,0,REAL,FALSA
,,,,,,,,,56c89222dfea6c000bb23762,001,2024-06-30_05h34.06.829,empathy_intonation_perc,2024.1.4,Win32,144.9275362,,,,,,,,,,,,,,103,vueras,,,,,,231.1223,233.233,0,1,1.5988,,0,122,122,102,1,pseudoword,0,REAL,FALSA
,,,,,,,,,56c89222dfea6c000bb23762,001,2024-06-30_05h34.06.829,empathy_intonation_perc,2024.1.4,Win32,144.9275362,,,,,,,,,,,,,,111,monue,,,,,,233.2332,234.483,0,1,0.7346,,0,123,123,110,1,pseudoword,0,REAL,FALSA
,,,,,,,,,56c89222dfea6c000bb23762,001,2024-06-30_05h34.06.829,empathy_intonation_perc,2024.1.4,Win32,144.9275362,,,,,,,,,,,,,,55,maldad,,,,,,234.4833,235.6496,0,1,0.654,,0,124,124,54,1,non_cognate,1,REAL,FALSA
,,,,,,,,,56c89222dfea6c000bb23762,001,2024-06-30_05h34.06.829,empathy_intonation_perc,2024.1.4,Win32,144.9275362,,,,,,,,,,,,,,78,rendir,,,,,,235.6499,236.7469,0,1,0.5836,,0,125,125,77,1,non_cognate,1,REAL,FALSA
,,,,,,,,,56c89222dfea6c000bb23762,001,2024-06-30_05h34.06.829,empathy_intonation_perc,2024.1.4,Win32,144.9275362,,,,,,,,,,,,,,42,rumor,,,,,,236.7472,238.0523,1,0,0.7907,,0,126,126,41,1,two_way_cognate,1,REAL,FALSA
,,,,,,,,,56c89222dfea6c000bb23762,001,2024-06-30_05h34.06.829,empathy_intonation_perc,2024.1.4,Win32,144.9275362,,,,,,,,,,,,,,5,extra,,,,,,238.0527,239.073,1,0,0.5067,,0,127,127,4,1,three_way_cognate,1,REAL,FALSA
,,,,,,,,,56c89222dfea6c000bb23762,001,2024-06-30_05h34.06.829,empathy_intonation_perc,2024.1.4,Win32,144.9275362,,,,,,,,,,,,,,56,pico,,,,,,239.0734,240.5801,1,0,0.9916,,0,128,128,55,1,non_cognate,1,REAL,FALSA
,,,,,,,,,56c89222dfea6c000bb23762,001,2024-06-30_05h34.06.829,empathy_intonation_perc,2024.1.4,Win32,144.9275362,,,,,,,,,,,,,,77,suave,,,,,,240.5805,242.0317,1,0,0.941,,0,129,129,76,1,non_cognate,1,REAL,FALSA
,,,,,,,,,56c89222dfea6c000bb23762,001,2024-06-30_05h34.06.829,empathy_intonation_perc,2024.1.4,Win32,144.9275362,,,,,,,,,,,,,,81,sacar,,,,,,242.0321,243.3091,0,1,0.7631,,0,130,130,80,1,non_cognate,1,REAL,FALSA
,,,,,,,,,56c89222dfea6c000bb23762,001,2024-06-30_05h34.06.829,empathy_intonation_perc,2024.1.4,Win32,144.9275362,,,,,,,,,,,,,,61,aduana,,,,,,243.3094,244.4274,0,1,0.6028,,0,131,131,60,1,non_cognate,1,REAL,FALSA
,,,,,,,,,56c89222dfea6c000bb23762,001,2024-06-30_05h34.06.829,empathy_intonation_perc,2024.1.4,Win32,144.9275362,,,,,,,,,,,,,,119,esís,,,,,,244.4277,245.5244,0,1,0.5827,,0,132,132,118,1,pseudoword,0,REAL,FALSA
,,,,,,,,,56c89222dfea6c000bb23762,001,2024-06-30_05h34.06.829,empathy_intonation_perc,2024.1.4,Win32,144.9275362,,,,,,,,,,,,,,167,dobbo,,,,,,245.5248,246.5939,0,1,0.5577,,0,133,133,166,1,pseudoword,0,REAL,FALSA
,,,,,,,,,56c89222dfea6c000bb23762,001,2024-06-30_05h34.06.829,empathy_intonation_perc,2024.1.4,Win32,144.9275362,,,,,,,,,,,,,,154,harvé,,,,,,246.5942,247.6911,0,1,0.5844,,0,134,134,153,1,pseudoword,0,REAL,FALSA
,,,,,,,,,56c89222dfea6c000bb23762,001,2024-06-30_05h34.06.829,empathy_intonation_perc,2024.1.4,Win32,144.9275362,,,,,,,,,,,,,,48,pelvis,,,,,,247.6915,248.9687,1,0,0.7664,,0,135,135,47,1,two_way_cognate,1,REAL,FALSA
,,,,,,,,,56c89222dfea6c000bb23762,001,2024-06-30_05h34.06.829,empathy_intonation_perc,2024.1.4,Win32,144.9275362,,,,,,,,,,,,,,138,tator,,,,,,248.969,250.2119,0,1,0.7282,,0,136,136,137,1,pseudoword,0,REAL,FALSA
,,,,,,,,,56c89222dfea6c000bb23762,001,2024-06-30_05h34.06.829,empathy_intonation_perc,2024.1.4,Win32,144.9275362,,,,,,,,,,,,,,16,chat,,,,,,250.2122,251.3855,1,0,0.6615,,0,137,137,15,1,three_way_cognate,1,REAL,FALSA
,,,,,,,,,56c89222dfea6c000bb23762,001,2024-06-30_05h34.06.829,empathy_intonation_perc,2024.1.4,Win32,144.9275362,,,,,,,,,,,,,,24,retina,,,,,,251.3859,252.8021,0,1,0.907,,0,138,138,23,1,three_way_cognate,1,REAL,FALSA
,,,,,,,,,56c89222dfea6c000bb23762,001,2024-06-30_05h34.06.829,empathy_intonation_perc,2024.1.4,Win32,144.9275362,,,,,,,,,,,,,,112,samón,,,,,,252.8025,254.0382,0,1,0.7215,,0,139,139,111,1,pseudoword,0,REAL,FALSA
,,,,,,,,,56c89222dfea6c000bb23762,001,2024-06-30_05h34.06.829,empathy_intonation_perc,2024.1.4,Win32,144.9275362,,,,,,,,,,,,,,36,viable,,,,,,254.0386,255.2188,1,0,0.6688,,0,140,140,35,1,two_way_cognate,1,REAL,FALSA
,,,,,,,,,56c89222dfea6c000bb23762,001,2024-06-30_05h34.06.829,empathy_intonation_perc,2024.1.4,Win32,144.9275362,,,,,,,,,,,,,,185,aljizo,,,,,,255.2191,256.8993,0,1,1.1675,,0,141,141,184,1,pseudoword,0,REAL,FALSA
,,,,,,,,,56c89222dfea6c000bb23762,001,2024-06-30_05h34.06.829,empathy_intonation_perc,2024.1.4,Win32,144.9275362,,,,,,,,,,,,,,23,plural,,,,,,256.8996,258.0798,1,0,0.6645,,0,142,142,22,1,three_way_cognate,1,REAL,FALSA
,,,,,,,,,56c89222dfea6c000bb23762,001,2024-06-30_05h34.06.829,empathy_intonation_perc,2024.1.4,Win32,144.9275362,,,,,,,,,,,,,,67,llamar,,,,,,258.0801,259.2187,0,1,0.624,,0,143,143,66,1,non_cognate,1,REAL,FALSA
,,,,,,,,,56c89222dfea6c000bb23762,001,2024-06-30_05h34.06.829,empathy_intonation_perc,2024.1.4,Win32,144.9275362,,,,,,,,,,,,,,128,pelí,,,,,,259.219,260.3228,0,1,0.5906,,0,144,144,127,1,pseudoword,0,REAL,FALSA
,,,,,,,,,56c89222dfea6c000bb23762,001,2024-06-30_05h34.06.829,empathy_intonation_perc,2024.1.4,Win32,144.9275362,,,,,,,,,,,,,,46,mortal,,,,,,260.3231,261.3992,1,0,0.5644,,0,145,145,45,1,two_way_cognate,1,REAL,FALSA
,,,,,,,,,56c89222dfea6c000bb23762,001,2024-06-30_05h34.06.829,empathy_intonation_perc,2024.1.4,Win32,144.9275362,,,,,,,,,,,,,,173,mibro,,,,,,261.3996,262.4825,0,1,0.5701,,0,146,146,172,1,pseudoword,0,REAL,FALSA
,,,,,,,,,56c89222dfea6c000bb23762,001,2024-06-30_05h34.06.829,empathy_intonation_perc,2024.1.4,Win32,144.9275362,,,,,,,,,,,,,,122,boñaz,,,,,,262.4829,263.5797,0,1,0.5853,,0,147,147,121,1,pseudoword,0,REAL,FALSA
,,,,,,,,,56c89222dfea6c000bb23762,001,2024-06-30_05h34.06.829,empathy_intonation_perc,2024.1.4,Win32,144.9275362,,,,,,,,,,,,,,52,blando,,,,,,263.58,264.7325,1,0,0.6403,,0,148,148,51,1,non_cognate,1,REAL,FALSA
,,,,,,,,,56c89222dfea6c000bb23762,001,2024-06-30_05h34.06.829,empathy_intonation_perc,2024.1.4,Win32,144.9275362,,,,,,,,,,,,,,116,grigir,,,,,,264.7327,265.8296,0,1,0.5846,,0,149,149,115,1,pseudoword,0,REAL,FALSA
,,,,,,,,,56c89222dfea6c000bb23762,001,2024-06-30_05h34.06.829,empathy_intonation_perc,2024.1.4,Win32,144.9275362,,,,,,,,,,,,,,95,listo,,,,,,265.8299,266.9408,0,1,0.5958,,0,150,150,94,1,non_cognate,1,REAL,FALSA
,,,,,,,,,56c89222dfea6c000bb23762,001,2024-06-30_05h34.06.829,empathy_intonation_perc,2024.1.4,Win32,144.9275362,,,,,,,,,,,,,,8,kilo,,,,,,266.9411,268.1351,1,0,0.6819,,0,151,151,7,1,three_way_cognate,1,REAL,FALSA
,,,,,,,,,56c89222dfea6c000bb23762,001,2024-06-30_05h34.06.829,empathy_intonation_perc,2024.1.4,Win32,144.9275362,,,,,,,,,,,,,,31,civil,,,,,,268.1354,269.1908,1,0,0.5453,,0,152,152,30,1,two_way_cognate,1,REAL,FALSA
,,,,,,,,,56c89222dfea6c000bb23762,001,2024-06-30_05h34.06.829,empathy_intonation_perc,2024.1.4,Win32,144.9275362,,,,,,,,,,,,,,123,arane,,,,,,269.191,270.406,1,0,0.7029,,0,153,153,122,1,pseudoword,0,REAL,FALSA
,,,,,,,,,56c89222dfea6c000bb23762,001,2024-06-30_05h34.06.829,empathy_intonation_perc,2024.1.4,Win32,144.9275362,,,,,,,,,,,,,,91,equipo,,,,,,270.4064,272.5449,1,0,1.6279,,0,154,154,90,1,non_cognate,1,REAL,FALSA
,,,,,,,,,56c89222dfea6c000bb23762,001,2024-06-30_05h34.06.829,empathy_intonation_perc,2024.1.4,Win32,144.9275362,,,,,,,,,,,,,,144,diroco,,,,,,272.5452,273.6837,0,1,0.6256,,0,155,155,143,1,pseudoword,0,REAL,FALSA
,,,,,,,,,56c89222dfea6c000bb23762,001,2024-06-30_05h34.06.829,empathy_intonation_perc,2024.1.4,Win32,144.9275362,,,,,,,,,,,,,,2,tumor,,,,,,273.684,274.8642,1,0,0.6665,,0,156,156,1,1,three_way_cognate,1,REAL,FALSA
,,,,,,,,,56c89222dfea6c000bb23762,001,2024-06-30_05h34.06.829,empathy_intonation_perc,2024.1.4,Win32,144.9275362,,,,,,,,,,,,,,132,nocó,,,,,,274.8645,275.9962,0,1,0.617,,0,157,157,131,1,pseudoword,0,REAL,FALSA
,,,,,,,,,56c89222dfea6c000bb23762,001,2024-06-30_05h34.06.829,empathy_intonation_perc,2024.1.4,Win32,144.9275362,,,,,,,,,,,,,,1,moral,,,,,,275.9966,277.0796,1,0,0.5734,,0,158,158,0,1,three_way_cognate,1,REAL,FALSA
,,,,,,,,,56c89222dfea6c000bb23762,001,2024-06-30_05h34.06.829,empathy_intonation_perc,2024.1.4,Win32,144.9275362,,,,,,,,,,,,,,34,actor,,,,,,277.0802,278.1627,1,0,0.5681,,0,159,159,33,1,two_way_cognate,1,REAL,FALSA
,,,,,,,,,56c89222dfea6c000bb23762,001,2024-06-30_05h34.06.829,empathy_intonation_perc,2024.1.4,Win32,144.9275362,,,,,,,,,,,,,,54,tapón,,,,,,278.1632,279.2253,0,1,0.5474,,0,160,160,53,1,non_cognate,1,REAL,FALSA
,,,,,,,,,56c89222dfea6c000bb23762,001,2024-06-30_05h34.06.829,empathy_intonation_perc,2024.1.4,Win32,144.9275362,,,,,,,,,,,,,,86,cuenco,,,,,,279.2256,280.4266,0,1,0.6868,,0,161,161,85,1,non_cognate,1,REAL,FALSA
,,,,,,,,,56c89222dfea6c000bb23762,001,2024-06-30_05h34.06.829,empathy_intonation_perc,2024.1.4,Win32,144.9275362,,,,,,,,,,,,,,106,diebro,,,,,,280.4269,281.6488,0,1,0.7086,,0,162,162,105,1,pseudoword,0,REAL,FALSA
,,,,,,,,,56c89222dfea6c000bb23762,001,2024-06-30_05h34.06.829,empathy_intonation_perc,2024.1.4,Win32,144.9275362,,,,,,,,,,,,,,64,rizado,,,,,,281.6491,282.8294,0,1,0.6676,,0,163,163,63,1,non_cognate,1,REAL,FALSA
,,,,,,,,,56c89222dfea6c000bb23762,001,2024-06-30_05h34.06.829,empathy_intonation_perc,2024.1.4,Win32,144.9275362,,,,,,,,,,,,,,93,tapa,,,,,,282.8297,284.3154,0,1,0.9721,,0,164,164,92,1,non_cognate,1,REAL,FALSA
,,,,,,,,,56c89222dfea6c000bb23762,001,2024-06-30_05h34.06.829,empathy_intonation_perc,2024.1.4,Win32,144.9275362,,,,,,,,,,,,,,47,color,,,,,,284.3159,285.3641,1,0,0.5332,,0,165,165,46,1,two_way_cognate,1,REAL,FALSA
,,,,,,,,,56c89222dfea6c000bb23762,001,2024-06-30_05h34.06.829,empathy_intonation_perc,2024.1.4,Win32,144.9275362,,,,,,,,,,,,,,22,mango,,,,,,285.3644,286.489,1,0,0.6122,,0,166,166,21,1,three_way_cognate,1,REAL,FALSA
,,,,,,,,,56c89222dfea6c000bb23762,001,2024-06-30_05h34.06.829,empathy_intonation_perc,2024.1.4,Win32,144.9275362,,,,,,,,,,,,,,57,regalo,,,,,,286.4894,287.6903,0,1,0.687,,0,167,167,56,1,non_cognate,1,REAL,FALSA
,,,,,,,,,56c89222dfea6c000bb23762,001,2024-06-30_05h34.06.829,empathy_intonation_perc,2024.1.4,Win32,144.9275362,,,,,,,,,,,,,,30,fiscal,,,,,,287.6907,288.9335,1,0,0.7273,,0,168,168,29,1,two_way_cognate,1,REAL,FALSA
,,,,,,,,,56c89222dfea6c000bb23762,001,2024-06-30_05h34.06.829,empathy_intonation_perc,2024.1.4,Win32,144.9275362,,,,,,,,,,,,,,130,dubo,,,,,,288.9338,290.0654,0,1,0.6205,,0,169,169,129,1,pseudoword,0,REAL,FALSA
,,,,,,,,,56c89222dfea6c000bb23762,001,2024-06-30_05h34.06.829,empathy_intonation_perc,2024.1.4,Win32,144.9275362,,,,,,,,,,,,,,115,lidena,,,,,,290.0657,291.2112,0,1,0.6319,,0,170,170,114,1,pseudoword,0,REAL,FALSA
,,,,,,,,,56c89222dfea6c000bb23762,001,2024-06-30_05h34.06.829,empathy_intonation_perc,2024.1.4,Win32,144.9275362,,,,,,,,,,,,,,191,frasis,,,,,,291.2115,292.3569,0,1,0.6306,,0,171,171,190,1,pseudoword,0,REAL,FALSA
,,,,,,,,,56c89222dfea6c000bb23762,001,2024-06-30_05h34.06.829,empathy_intonation_perc,2024.1.4,Win32,144.9275362,,,,,,,,,,,,,,17,clan,,,,,,292.3573,293.4125,1,0,0.5406,,0,172,172,16,1,three_way_cognate,1,REAL,FALSA
,,,,,,,,,56c89222dfea6c000bb23762,001,2024-06-30_05h34.06.829,empathy_intonation_perc,2024.1.4,Win32,144.9275362,,,,,,,,,,,,,,107,plago,,,,,,293.4128,294.7111,0,1,0.783,,0,173,173,106,1,pseudoword,0,REAL,FALSA
,,,,,,,,,56c89222dfea6c000bb23762,001,2024-06-30_05h34.06.829,empathy_intonation_perc,2024.1.4,Win32,144.9275362,,,,,,,,,,,,,,171,gotro,,,,,,294.7114,295.8014,0,1,0.577,,0,174,174,170,1,pseudoword,0,REAL,FALSA
,,,,,,,,,56c89222dfea6c000bb23762,001,2024-06-30_05h34.06.829,empathy_intonation_perc,2024.1.4,Win32,144.9275362,,,,,,,,,,,,,,163,olzan,,,,,,295.8016,296.9194,0,1,0.6046,,0,175,175,162,1,pseudoword,0,REAL,FALSA
,,,,,,,,,56c89222dfea6c000bb23762,001,2024-06-30_05h34.06.829,empathy_intonation_perc,2024.1.4,Win32,144.9275362,,,,,,,,,,,,,,190,asumie,,,,,,296.9197,298.0306,0,1,0.5987,,0,176,176,189,1,pseudoword,0,REAL,FALSA
,,,,,,,,,56c89222dfea6c000bb23762,001,2024-06-30_05h34.06.829,empathy_intonation_perc,2024.1.4,Win32,144.9275362,,,,,,,,,,,,,,110,densó,,,,,,298.0309,299.1417,0,1,0.601,,0,177,177,109,1,pseudoword,0,REAL,FALSA
,,,,,,,,,56c89222dfea6c000bb23762,001,2024-06-30_05h34.06.829,empathy_intonation_perc,2024.1.4,Win32,144.9275362,,,,,,,,,,,,,,6,horror,,,,,,299.1421,300.1971,1,0,0.5416,,0,178,178,5,1,three_way_cognate,1,REAL,FALSA
,,,,,,,,,56c89222dfea6c000bb23762,001,2024-06-30_05h34.06.829,empathy_intonation_perc,2024.1.4,Win32,144.9275362,,,,,,,,,,,,,,157,seled,,,,,,300.1974,301.3428,0,1,0.6315,,0,179,179,156,1,pseudoword,0,REAL,FALSA
,,,,,,,,,56c89222dfea6c000bb23762,001,2024-06-30_05h34.06.829,empathy_intonation_perc,2024.1.4,Win32,144.9275362,,,,,,,,,,,,,,37,torso,,,,,,301.3431,302.3776,1,0,0.5202,,0,180,180,36,1,two_way_cognate,1,REAL,FALSA
,,,,,,,,,56c89222dfea6c000bb23762,001,2024-06-30_05h34.06.829,empathy_intonation_perc,2024.1.4,Win32,144.9275362,,,,,,,,,,,,,,160,fomeó,,,,,,302.3779,303.4887,0,1,0.5985,,0,181,181,159,1,pseudoword,0,REAL,FALSA
,,,,,,,,,56c89222dfea6c000bb23762,001,2024-06-30_05h34.06.829,empathy_intonation_perc,2024.1.4,Win32,144.9275362,,,,,,,,,,,,,,18,altar,,,,,,303.4892,304.7947,1,0,0.7957,,0,182,182,17,1,three_way_cognate,1,REAL,FALSA
,,,,,,,,,56c89222dfea6c000bb23762,001,2024-06-30_05h34.06.829,empathy_intonation_perc,2024.1.4,Win32,144.9275362,,,,,,,,,,,,,,143,hurcos,,,,,,304.7949,305.9262,0,1,0.6173,,0,183,183,142,1,pseudoword,0,REAL,FALSA
,,,,,,,,,56c89222dfea6c000bb23762,001,2024-06-30_05h34.06.829,empathy_intonation_perc,2024.1.4,Win32,144.9275362,,,,,,,,,,,,,,124,lobe,,,,,,305.9265,307.086,1,0,0.6492,,0,184,184,123,1,pseudoword,0,REAL,FALSA
,,,,,,,,,56c89222dfea6c000bb23762,001,2024-06-30_05h34.06.829,empathy_intonation_perc,2024.1.4,Win32,144.9275362,,,,,,,,,,,,,,10,drama,,,,,,307.0863,308.1831,1,0,0.5861,,0,185,185,9,1,three_way_cognate,1,REAL,FALSA
,,,,,,,,,56c89222dfea6c000bb23762,001,2024-06-30_05h34.06.829,empathy_intonation_perc,2024.1.4,Win32,144.9275362,,,,,,,,,,,,,,102,coyo,,,,,,308.1833,309.3706,0,1,0.677,,0,186,186,101,1,pseudoword,0,REAL,FALSA
,,,,,,,,,56c89222dfea6c000bb23762,001,2024-06-30_05h34.06.829,empathy_intonation_perc,2024.1.4,Win32,144.9275362,,,,,,,,,,,,,,129,vinzó,,,,,,309.3709,310.4192,0,1,0.5367,,0,187,187,128,1,pseudoword,0,REAL,FALSA
,,,,,,,,,56c89222dfea6c000bb23762,001,2024-06-30_05h34.06.829,empathy_intonation_perc,2024.1.4,Win32,144.9275362,,,,,,,,,,,,,,188,amplir,,,,,,310.4195,311.4747,0,1,0.5412,,0,188,188,187,1,pseudoword,0,REAL,FALSA
,,,,,,,,,56c89222dfea6c000bb23762,001,2024-06-30_05h34.06.829,empathy_intonation_perc,2024.1.4,Win32,144.9275362,,,,,,,,,,,,,,32,animal,,,,,,311.4751,312.5787,1,0,0.5885,,0,189,189,31,1,two_way_cognate,1,REAL,FALSA
,,,,,,,,,56c89222dfea6c000bb23762,001,2024-06-30_05h34.06.829,empathy_intonation_perc,2024.1.4,Win32,144.9275362,,,,,,,,,,,,,,104,estulo,,,,,,312.5791,313.6065,0,1,0.5161,,0,190,190,103,1,pseudoword,0,REAL,FALSA
,,,,,,,,,56c89222dfea6c000bb23762,001,2024-06-30_05h34.06.829,empathy_intonation_perc,2024.1.4,Win32,144.9275362,,,,,,,,,,,,,,181,gravés,,,,,,313.6067,314.7247,0,1,0.6026,,0,191,191,180,1,pseudoword,0,REAL,FALSA
