lextale_instructions.started,lextale_instructions.stopped,lextale_instructions_loop.thisRepN,lextale_instructions_loop.thisTrialN,lextale_instructions_loop.thisN,lextale_instructions_loop.thisIndex,lextale_instructions_loop.ran,instructions_text,continue_text,participant,session,date,expName,psychopyVersion,OS,frameRate,lextale_practice.started,lextale_practice.stopped,key_resp_lextale_practice.keys,key_resp_lextale_practice.corr,key_resp_lextale_practice.rt,key_resp_lextale_practice.duration,lextale_practice_feedback.started,lextale_practice_feedback.stopped,lextale_practice_trials.thisRepN,lextale_practice_trials.thisTrialN,lextale_practice_trials.thisN,lextale_practice_trials.thisIndex,lextale_practice_trials.ran,stim,word,correct_response,prac_button_real,prac_button_false,lextale_check.started,lextale_check.stopped,lextale_trial.started,lextale_trial.stopped,key_resp_lextale_trial.keys,key_resp_lextale_trial.corr,key_resp_lextale_trial.rt,key_resp_lextale_trial.duration,lextail_trials.thisRepN,lextail_trials.thisTrialN,lextail_trials.thisN,lextail_trials.thisIndex,lextail_trials.ran,type,correct_reponse,button_real,button_false
0.0046,1.7453,0,0,0,0,1,"Este es un test de vocabulario en español. 
  
  A continuación vas a ver 90 secuencias de letras que parecen 'españolas'.
  
  Solo algunas de ellas son palabras de verdad.",(presiona la barra espaciadora para continuar),5a147e755d06850001b00937,001,2024-06-30_03h23.35.505,empathy_intonation_perc,2024.1.4,Linux armv81,119.047619,,,,,,,,,,,,,,,,,,,,,,,,,,,,,,,,,,,
1.7463,2.3112,0,1,1,1,1,"Por favor, señala las palabras que tú conoces (aquellas que estás convencido que son palabras españolas, incluso aunque no seas capaz de dar el significado preciso).",(presiona la barra espaciadora para continuar),5a147e755d06850001b00937,001,2024-06-30_03h23.35.505,empathy_intonation_perc,2024.1.4,Linux armv81,119.047619,,,,,,,,,,,,,,,,,,,,,,,,,,,,,,,,,,,
2.3119,2.6607,0,2,2,2,1,Pero cuidado: los errores se penalizan. Por eso no tiene sentido tratar de incrementar tu puntuación marcando como reales palabras que nunca has visto.,(presiona la barra espaciadora para continuar),5a147e755d06850001b00937,001,2024-06-30_03h23.35.505,empathy_intonation_perc,2024.1.4,Linux armv81,119.047619,,,,,,,,,,,,,,,,,,,,,,,,,,,,,,,,,,,
2.6617,3.0051,0,3,3,3,1,"Presiona la tecla 1 si piensas que es una palabra real y la tecla 
  0 si piensas que es una palabra falsa. 
  
  Vamos a practicar un poco...",(presiona la barra espaciadora para continuar),5a147e755d06850001b00937,001,2024-06-30_03h23.35.505,empathy_intonation_perc,2024.1.4,Linux armv81,119.047619,,,,,,,,,,,,,,,,,,,,,,,,,,,,,,,,,,,
,,,,,,,,,5a147e755d06850001b00937,001,2024-06-30_03h23.35.505,empathy_intonation_perc,2024.1.4,Linux armv81,119.047619,3.0092,5.9902,0,1,2.4617,,5.9909,6.9906,0,0,0,0,1,0,depiste,0,REAL,FALSA,,,,,,,,,,,,,,,,,
,,,,,,,,,5a147e755d06850001b00937,001,2024-06-30_03h23.35.505,empathy_intonation_perc,2024.1.4,Linux armv81,119.047619,6.9923,8.3361,1,1,0.82,,8.3362,9.3311,0,1,1,1,1,0,sí,1,REAL,FALSA,,,,,,,,,,,,,,,,,
,,,,,,,,,5a147e755d06850001b00937,001,2024-06-30_03h23.35.505,empathy_intonation_perc,2024.1.4,Linux armv81,119.047619,9.335,11.4884,0,1,1.6327,,11.4885,12.4904,0,2,2,2,1,0,coné,0,REAL,FALSA,,,,,,,,,,,,,,,,,
,,,,,,,,,5a147e755d06850001b00937,001,2024-06-30_03h23.35.505,empathy_intonation_perc,2024.1.4,Linux armv81,119.047619,12.4915,14.1865,0,1,1.1761,,14.1867,15.1816,0,3,3,3,1,0,calpar,0,REAL,FALSA,,,,,,,,,,,,,,,,,
,,,,,,,,,5a147e755d06850001b00937,001,2024-06-30_03h23.35.505,empathy_intonation_perc,2024.1.4,Linux armv81,119.047619,15.1832,16.541,0,1,0.8412,,16.541,17.5385,0,4,4,4,1,0,joten,0,REAL,FALSA,,,,,,,,,,,,,,,,,
,,,,,,,,,5a147e755d06850001b00937,001,2024-06-30_03h23.35.505,empathy_intonation_perc,2024.1.4,Linux armv81,119.047619,17.5397,21.6176,0,0,3.5613,,21.6178,22.6136,0,5,5,5,1,0,sacapuntas,1,REAL,FALSA,,,,,,,,,,,,,,,,,
,,,,,,,,,5a147e755d06850001b00937,001,2024-06-30_03h23.35.505,empathy_intonation_perc,2024.1.4,Linux armv81,119.047619,22.6152,24.1931,0,1,1.0525,,24.1933,25.1942,0,6,6,6,1,0,priba,0,REAL,FALSA,,,,,,,,,,,,,,,,,
,,,,,,,,,5a147e755d06850001b00937,001,2024-06-30_03h23.35.505,empathy_intonation_perc,2024.1.4,Linux armv81,119.047619,25.1949,27.2923,0,1,1.579,,27.2926,28.2873,0,7,7,7,1,0,pelasula,0,REAL,FALSA,,,,,,,,,,,,,,,,,
,,,,,,,,,5a147e755d06850001b00937,001,2024-06-30_03h23.35.505,empathy_intonation_perc,2024.1.4,Linux armv81,119.047619,28.2884,29.3907,1,1,0.5816,,29.3908,30.3852,0,8,8,8,1,0,bien,1,REAL,FALSA,,,,,,,,,,,,,,,,,
,,,,,,,,,5a147e755d06850001b00937,001,2024-06-30_03h23.35.505,empathy_intonation_perc,2024.1.4,Linux armv81,119.047619,30.3862,31.415,1,1,0.5124,,31.415,32.4135,0,9,9,9,1,0,casa,1,REAL,FALSA,,,,,,,,,,,,,,,,,
,,,,,,,,,5a147e755d06850001b00937,001,2024-06-30_03h23.35.505,empathy_intonation_perc,2024.1.4,Linux armv81,119.047619,32.4156,33.5455,0,1,0.6139,,33.5456,34.5425,0,10,10,10,1,0,lejo,0,REAL,FALSA,,,,,,,,,,,,,,,,,
,,,,,,,,,5a147e755d06850001b00937,001,2024-06-30_03h23.35.505,empathy_intonation_perc,2024.1.4,Linux armv81,119.047619,34.5436,36.2522,1,0,1.1843,,36.2524,37.2498,0,11,11,11,1,0,pretantas,0,REAL,FALSA,,,,,,,,,,,,,,,,,
,,,,,,,,,5a147e755d06850001b00937,001,2024-06-30_03h23.35.505,empathy_intonation_perc,2024.1.4,Linux armv81,119.047619,,,,,,,,,,,,,,,,,,,37.2506,38.4288,,,,,,,,,,,,,,,
,,,,,,,,,5a147e755d06850001b00937,001,2024-06-30_03h23.35.505,empathy_intonation_perc,2024.1.4,Linux armv81,119.047619,,,,,,,,,,,,,,189,medium,,,,,,38.4543,39.9061,1,0,0.9265,,0,0,0,188,1,pseudoword,0,REAL,FALSA
,,,,,,,,,5a147e755d06850001b00937,001,2024-06-30_03h23.35.505,empathy_intonation_perc,2024.1.4,Linux armv81,119.047619,,,,,,,,,,,,,,164,tecia,,,,,,39.907,41.2139,0,1,0.7834,,0,1,1,163,1,pseudoword,0,REAL,FALSA
,,,,,,,,,5a147e755d06850001b00937,001,2024-06-30_03h23.35.505,empathy_intonation_perc,2024.1.4,Linux armv81,119.047619,,,,,,,,,,,,,,173,mibro,,,,,,41.2144,42.4061,0,1,0.6719,,0,2,2,172,1,pseudoword,0,REAL,FALSA
,,,,,,,,,5a147e755d06850001b00937,001,2024-06-30_03h23.35.505,empathy_intonation_perc,2024.1.4,Linux armv81,119.047619,,,,,,,,,,,,,,135,panté,,,,,,42.407,43.7106,1,0,0.7811,,0,3,3,134,1,pseudoword,0,REAL,FALSA
,,,,,,,,,5a147e755d06850001b00937,001,2024-06-30_03h23.35.505,empathy_intonation_perc,2024.1.4,Linux armv81,119.047619,,,,,,,,,,,,,,179,suelet,,,,,,43.7115,44.9821,0,1,0.7485,,0,4,4,178,1,pseudoword,0,REAL,FALSA
,,,,,,,,,5a147e755d06850001b00937,001,2024-06-30_03h23.35.505,empathy_intonation_perc,2024.1.4,Linux armv81,119.047619,,,,,,,,,,,,,,185,aljizo,,,,,,44.9829,46.0436,0,1,0.5458,,0,5,5,184,1,pseudoword,0,REAL,FALSA
,,,,,,,,,5a147e755d06850001b00937,001,2024-06-30_03h23.35.505,empathy_intonation_perc,2024.1.4,Linux armv81,119.047619,,,,,,,,,,,,,,69,tiza,,,,,,46.0445,47.064,0,1,0.4982,,0,6,6,68,1,non_cognate,1,REAL,FALSA
,,,,,,,,,5a147e755d06850001b00937,001,2024-06-30_03h23.35.505,empathy_intonation_perc,2024.1.4,Linux armv81,119.047619,,,,,,,,,,,,,,42,rumor,,,,,,47.065,48.2057,1,0,0.619,,0,7,7,41,1,two_way_cognate,1,REAL,FALSA
,,,,,,,,,5a147e755d06850001b00937,001,2024-06-30_03h23.35.505,empathy_intonation_perc,2024.1.4,Linux armv81,119.047619,,,,,,,,,,,,,,162,cengo,,,,,,48.2065,50.8108,0,1,2.0889,,0,8,8,161,1,pseudoword,0,REAL,FALSA
,,,,,,,,,5a147e755d06850001b00937,001,2024-06-30_03h23.35.505,empathy_intonation_perc,2024.1.4,Linux armv81,119.047619,,,,,,,,,,,,,,139,sasos,,,,,,50.8115,51.807,0,1,0.4735,,0,9,9,138,1,pseudoword,0,REAL,FALSA
,,,,,,,,,5a147e755d06850001b00937,001,2024-06-30_03h23.35.505,empathy_intonation_perc,2024.1.4,Linux armv81,119.047619,,,,,,,,,,,,,,75,patada,,,,,,51.8081,52.8463,0,1,0.5206,,0,10,10,74,1,non_cognate,1,REAL,FALSA
,,,,,,,,,5a147e755d06850001b00937,001,2024-06-30_03h23.35.505,empathy_intonation_perc,2024.1.4,Linux armv81,119.047619,,,,,,,,,,,,,,163,olzan,,,,,,52.8479,53.7885,0,1,0.425,,0,11,11,162,1,pseudoword,0,REAL,FALSA
,,,,,,,,,5a147e755d06850001b00937,001,2024-06-30_03h23.35.505,empathy_intonation_perc,2024.1.4,Linux armv81,119.047619,,,,,,,,,,,,,,60,siglo,,,,,,53.7895,54.6662,0,1,0.36,,0,12,12,59,1,non_cognate,1,REAL,FALSA
,,,,,,,,,5a147e755d06850001b00937,001,2024-06-30_03h23.35.505,empathy_intonation_perc,2024.1.4,Linux armv81,119.047619,,,,,,,,,,,,,,113,nasce,,,,,,54.6671,55.4692,0,1,0.2885,,0,13,13,112,1,pseudoword,0,REAL,FALSA
,,,,,,,,,5a147e755d06850001b00937,001,2024-06-30_03h23.35.505,empathy_intonation_perc,2024.1.4,Linux armv81,119.047619,,,,,,,,,,,,,,127,vien,,,,,,55.4703,56.2623,0,1,0.2706,,0,14,14,126,1,pseudoword,0,REAL,FALSA
,,,,,,,,,5a147e755d06850001b00937,001,2024-06-30_03h23.35.505,empathy_intonation_perc,2024.1.4,Linux armv81,119.047619,,,,,,,,,,,,,,41,pasta,,,,,,56.2631,57.3838,1,0,0.6044,,0,15,15,40,1,two_way_cognate,1,REAL,FALSA
,,,,,,,,,5a147e755d06850001b00937,001,2024-06-30_03h23.35.505,empathy_intonation_perc,2024.1.4,Linux armv81,119.047619,,,,,,,,,,,,,,188,amplir,,,,,,57.3847,58.6634,0,1,0.7552,,0,16,16,187,1,pseudoword,0,REAL,FALSA
,,,,,,,,,5a147e755d06850001b00937,001,2024-06-30_03h23.35.505,empathy_intonation_perc,2024.1.4,Linux armv81,119.047619,,,,,,,,,,,,,,14,aura,,,,,,58.6645,59.7279,1,0,0.5412,,0,17,17,13,1,three_way_cognate,1,REAL,FALSA
,,,,,,,,,5a147e755d06850001b00937,001,2024-06-30_03h23.35.505,empathy_intonation_perc,2024.1.4,Linux armv81,119.047619,,,,,,,,,,,,,,56,pico,,,,,,59.7285,60.6698,0,1,0.4234,,0,18,18,55,1,non_cognate,1,REAL,FALSA
,,,,,,,,,5a147e755d06850001b00937,001,2024-06-30_03h23.35.505,empathy_intonation_perc,2024.1.4,Linux armv81,119.047619,,,,,,,,,,,,,,131,fuar,,,,,,60.6709,61.6824,0,1,0.494,,0,19,19,130,1,pseudoword,0,REAL,FALSA
,,,,,,,,,5a147e755d06850001b00937,001,2024-06-30_03h23.35.505,empathy_intonation_perc,2024.1.4,Linux armv81,119.047619,,,,,,,,,,,,,,149,emén,,,,,,61.6834,63.0351,0,1,0.8304,,0,20,20,148,1,pseudoword,0,REAL,FALSA
,,,,,,,,,5a147e755d06850001b00937,001,2024-06-30_03h23.35.505,empathy_intonation_perc,2024.1.4,Linux armv81,119.047619,,,,,,,,,,,,,,182,desaro,,,,,,63.0364,64.0388,0,1,0.4813,,0,21,21,181,1,pseudoword,0,REAL,FALSA
,,,,,,,,,5a147e755d06850001b00937,001,2024-06-30_03h23.35.505,empathy_intonation_perc,2024.1.4,Linux armv81,119.047619,,,,,,,,,,,,,,111,monue,,,,,,64.0399,65.0101,0,1,0.448,,0,22,22,110,1,pseudoword,0,REAL,FALSA
,,,,,,,,,5a147e755d06850001b00937,001,2024-06-30_03h23.35.505,empathy_intonation_perc,2024.1.4,Linux armv81,119.047619,,,,,,,,,,,,,,24,retina,,,,,,65.0107,66.1875,0,1,0.6573,,0,23,23,23,1,three_way_cognate,1,REAL,FALSA
,,,,,,,,,5a147e755d06850001b00937,001,2024-06-30_03h23.35.505,empathy_intonation_perc,2024.1.4,Linux armv81,119.047619,,,,,,,,,,,,,,62,pegar,,,,,,66.1886,67.2232,0,1,0.5155,,0,24,24,61,1,non_cognate,1,REAL,FALSA
,,,,,,,,,5a147e755d06850001b00937,001,2024-06-30_03h23.35.505,empathy_intonation_perc,2024.1.4,Linux armv81,119.047619,,,,,,,,,,,,,,129,vinzó,,,,,,67.2243,68.293,0,1,0.5564,,0,25,25,128,1,pseudoword,0,REAL,FALSA
,,,,,,,,,5a147e755d06850001b00937,001,2024-06-30_03h23.35.505,empathy_intonation_perc,2024.1.4,Linux armv81,119.047619,,,,,,,,,,,,,,46,mortal,,,,,,68.2939,69.3955,1,0,0.5814,,0,26,26,45,1,two_way_cognate,1,REAL,FALSA
,,,,,,,,,5a147e755d06850001b00937,001,2024-06-30_03h23.35.505,empathy_intonation_perc,2024.1.4,Linux armv81,119.047619,,,,,,,,,,,,,,148,gino,,,,,,69.3966,70.399,0,1,0.4828,,0,27,27,147,1,pseudoword,0,REAL,FALSA
,,,,,,,,,5a147e755d06850001b00937,001,2024-06-30_03h23.35.505,empathy_intonation_perc,2024.1.4,Linux armv81,119.047619,,,,,,,,,,,,,,39,casual,,,,,,70.4,71.4086,1,0,0.4874,,0,28,28,38,1,two_way_cognate,1,REAL,FALSA
,,,,,,,,,5a147e755d06850001b00937,001,2024-06-30_03h23.35.505,empathy_intonation_perc,2024.1.4,Linux armv81,119.047619,,,,,,,,,,,,,,99,bugor,,,,,,71.4097,72.4231,0,1,0.4996,,0,29,29,98,1,pseudoword,0,REAL,FALSA
,,,,,,,,,5a147e755d06850001b00937,001,2024-06-30_03h23.35.505,empathy_intonation_perc,2024.1.4,Linux armv81,119.047619,,,,,,,,,,,,,,184,huenos,,,,,,72.4243,73.4219,0,1,0.4753,,0,30,30,183,1,pseudoword,0,REAL,FALSA
,,,,,,,,,5a147e755d06850001b00937,001,2024-06-30_03h23.35.505,empathy_intonation_perc,2024.1.4,Linux armv81,119.047619,,,,,,,,,,,,,,138,tator,,,,,,73.423,74.4372,0,1,0.498,,0,31,31,137,1,pseudoword,0,REAL,FALSA
,,,,,,,,,5a147e755d06850001b00937,001,2024-06-30_03h23.35.505,empathy_intonation_perc,2024.1.4,Linux armv81,119.047619,,,,,,,,,,,,,,57,regalo,,,,,,74.4381,75.4203,0,1,0.4616,,0,32,32,56,1,non_cognate,1,REAL,FALSA
,,,,,,,,,5a147e755d06850001b00937,001,2024-06-30_03h23.35.505,empathy_intonation_perc,2024.1.4,Linux armv81,119.047619,,,,,,,,,,,,,,115,lidena,,,,,,75.421,76.3901,0,1,0.4517,,0,33,33,114,1,pseudoword,0,REAL,FALSA
,,,,,,,,,5a147e755d06850001b00937,001,2024-06-30_03h23.35.505,empathy_intonation_perc,2024.1.4,Linux armv81,119.047619,,,,,,,,,,,,,,8,kilo,,,,,,76.391,77.3423,0,1,0.4356,,0,34,34,7,1,three_way_cognate,1,REAL,FALSA
,,,,,,,,,5a147e755d06850001b00937,001,2024-06-30_03h23.35.505,empathy_intonation_perc,2024.1.4,Linux armv81,119.047619,,,,,,,,,,,,,,192,próces,,,,,,77.3432,78.4953,1,0,0.6302,,0,35,35,191,1,pseudoword,0,REAL,FALSA
,,,,,,,,,5a147e755d06850001b00937,001,2024-06-30_03h23.35.505,empathy_intonation_perc,2024.1.4,Linux armv81,119.047619,,,,,,,,,,,,,,35,aurora,,,,,,78.4965,79.6156,1,0,0.6036,,0,36,36,34,1,two_way_cognate,1,REAL,FALSA
,,,,,,,,,5a147e755d06850001b00937,001,2024-06-30_03h23.35.505,empathy_intonation_perc,2024.1.4,Linux armv81,119.047619,,,,,,,,,,,,,,70,ánimo,,,,,,79.6167,80.6612,1,0,0.5272,,0,37,37,69,1,non_cognate,1,REAL,FALSA
,,,,,,,,,5a147e755d06850001b00937,001,2024-06-30_03h23.35.505,empathy_intonation_perc,2024.1.4,Linux armv81,119.047619,,,,,,,,,,,,,,105,leniz,,,,,,80.6622,81.6466,0,1,0.4652,,0,38,38,104,1,pseudoword,0,REAL,FALSA
,,,,,,,,,5a147e755d06850001b00937,001,2024-06-30_03h23.35.505,empathy_intonation_perc,2024.1.4,Linux armv81,119.047619,,,,,,,,,,,,,,109,laras,,,,,,81.6479,82.8001,0,1,0.6362,,0,39,39,108,1,pseudoword,0,REAL,FALSA
,,,,,,,,,5a147e755d06850001b00937,001,2024-06-30_03h23.35.505,empathy_intonation_perc,2024.1.4,Linux armv81,119.047619,,,,,,,,,,,,,,107,plago,,,,,,82.8011,83.7377,0,1,0.4239,,0,40,40,106,1,pseudoword,0,REAL,FALSA
,,,,,,,,,5a147e755d06850001b00937,001,2024-06-30_03h23.35.505,empathy_intonation_perc,2024.1.4,Linux armv81,119.047619,,,,,,,,,,,,,,15,test,,,,,,83.7384,84.8247,1,0,0.5722,,0,41,41,14,1,three_way_cognate,1,REAL,FALSA
,,,,,,,,,5a147e755d06850001b00937,001,2024-06-30_03h23.35.505,empathy_intonation_perc,2024.1.4,Linux armv81,119.047619,,,,,,,,,,,,,,73,llevar,,,,,,84.826,85.8517,0,1,0.5096,,0,42,42,72,1,non_cognate,1,REAL,FALSA
,,,,,,,,,5a147e755d06850001b00937,001,2024-06-30_03h23.35.505,empathy_intonation_perc,2024.1.4,Linux armv81,119.047619,,,,,,,,,,,,,,175,tradía,,,,,,85.8527,86.8136,0,1,0.4438,,0,43,43,174,1,pseudoword,0,REAL,FALSA
,,,,,,,,,5a147e755d06850001b00937,001,2024-06-30_03h23.35.505,empathy_intonation_perc,2024.1.4,Linux armv81,119.047619,,,,,,,,,,,,,,36,viable,,,,,,86.8146,87.9242,1,0,0.5857,,0,44,44,35,1,two_way_cognate,1,REAL,FALSA
,,,,,,,,,5a147e755d06850001b00937,001,2024-06-30_03h23.35.505,empathy_intonation_perc,2024.1.4,Linux armv81,119.047619,,,,,,,,,,,,,,103,vueras,,,,,,87.9249,88.8963,0,1,0.457,,0,45,45,102,1,pseudoword,0,REAL,FALSA
,,,,,,,,,5a147e755d06850001b00937,001,2024-06-30_03h23.35.505,empathy_intonation_perc,2024.1.4,Linux armv81,119.047619,,,,,,,,,,,,,,84,aviso,,,,,,88.8972,91.3848,0,1,1.9676,,0,46,46,83,1,non_cognate,1,REAL,FALSA
,,,,,,,,,5a147e755d06850001b00937,001,2024-06-30_03h23.35.505,empathy_intonation_perc,2024.1.4,Linux armv81,119.047619,,,,,,,,,,,,,,89,muñeca,,,,,,91.3854,92.4776,1,0,0.5749,,0,47,47,88,1,non_cognate,1,REAL,FALSA
,,,,,,,,,5a147e755d06850001b00937,001,2024-06-30_03h23.35.505,empathy_intonation_perc,2024.1.4,Linux armv81,119.047619,,,,,,,,,,,,,,54,tapón,,,,,,92.4783,93.6788,1,0,0.683,,0,48,48,53,1,non_cognate,1,REAL,FALSA
,,,,,,,,,5a147e755d06850001b00937,001,2024-06-30_03h23.35.505,empathy_intonation_perc,2024.1.4,Linux armv81,119.047619,,,,,,,,,,,,,,114,dibrea,,,,,,93.6795,94.7861,0,1,0.5885,,0,49,49,113,1,pseudoword,0,REAL,FALSA
,,,,,,,,,5a147e755d06850001b00937,001,2024-06-30_03h23.35.505,empathy_intonation_perc,2024.1.4,Linux armv81,119.047619,,,,,,,,,,,,,,123,arane,,,,,,94.7865,95.9259,0,1,0.6255,,0,50,50,122,1,pseudoword,0,REAL,FALSA
,,,,,,,,,5a147e755d06850001b00937,001,2024-06-30_03h23.35.505,empathy_intonation_perc,2024.1.4,Linux armv81,119.047619,,,,,,,,,,,,,,64,rizado,,,,,,95.9268,96.8872,0,1,0.4372,,0,51,51,63,1,non_cognate,1,REAL,FALSA
,,,,,,,,,5a147e755d06850001b00937,001,2024-06-30_03h23.35.505,empathy_intonation_perc,2024.1.4,Linux armv81,119.047619,,,,,,,,,,,,,,80,cuenco,,,,,,96.8881,97.7595,0,1,0.3498,,0,52,52,79,1,non_cognate,1,REAL,FALSA
,,,,,,,,,5a147e755d06850001b00937,001,2024-06-30_03h23.35.505,empathy_intonation_perc,2024.1.4,Linux armv81,119.047619,,,,,,,,,,,,,,31,civil,,,,,,97.76,98.8938,1,0,0.6164,,0,53,53,30,1,two_way_cognate,1,REAL,FALSA
,,,,,,,,,5a147e755d06850001b00937,001,2024-06-30_03h23.35.505,empathy_intonation_perc,2024.1.4,Linux armv81,119.047619,,,,,,,,,,,,,,86,cuenco,,,,,,98.8947,99.8855,0,1,0.471,,0,54,54,85,1,non_cognate,1,REAL,FALSA
,,,,,,,,,5a147e755d06850001b00937,001,2024-06-30_03h23.35.505,empathy_intonation_perc,2024.1.4,Linux armv81,119.047619,,,,,,,,,,,,,,170,diabo,,,,,,99.8865,100.9222,1,0,0.5131,,0,55,55,169,1,pseudoword,0,REAL,FALSA
,,,,,,,,,5a147e755d06850001b00937,001,2024-06-30_03h23.35.505,empathy_intonation_perc,2024.1.4,Linux armv81,119.047619,,,,,,,,,,,,,,83,hálito,,,,,,100.9232,101.8588,0,1,0.4226,,0,56,56,82,1,non_cognate,1,REAL,FALSA
,,,,,,,,,5a147e755d06850001b00937,001,2024-06-30_03h23.35.505,empathy_intonation_perc,2024.1.4,Linux armv81,119.047619,,,,,,,,,,,,,,145,rúo,,,,,,101.8598,102.9698,0,1,0.5973,,0,57,57,144,1,pseudoword,0,REAL,FALSA
,,,,,,,,,5a147e755d06850001b00937,001,2024-06-30_03h23.35.505,empathy_intonation_perc,2024.1.4,Linux armv81,119.047619,,,,,,,,,,,,,,178,inichó,,,,,,102.9713,104.2476,0,1,0.7546,,0,58,58,177,1,pseudoword,0,REAL,FALSA
,,,,,,,,,5a147e755d06850001b00937,001,2024-06-30_03h23.35.505,empathy_intonation_perc,2024.1.4,Linux armv81,119.047619,,,,,,,,,,,,,,155,kugis,,,,,,104.2482,105.4036,0,1,0.6403,,0,59,59,154,1,pseudoword,0,REAL,FALSA
,,,,,,,,,5a147e755d06850001b00937,001,2024-06-30_03h23.35.505,empathy_intonation_perc,2024.1.4,Linux armv81,119.047619,,,,,,,,,,,,,,118,bará,,,,,,105.405,106.7519,0,1,0.8337,,0,60,60,117,1,pseudoword,0,REAL,FALSA
,,,,,,,,,5a147e755d06850001b00937,001,2024-06-30_03h23.35.505,empathy_intonation_perc,2024.1.4,Linux armv81,119.047619,,,,,,,,,,,,,,166,anfia,,,,,,106.7526,107.9037,0,1,0.6324,,0,61,61,165,1,pseudoword,0,REAL,FALSA
,,,,,,,,,5a147e755d06850001b00937,001,2024-06-30_03h23.35.505,empathy_intonation_perc,2024.1.4,Linux armv81,119.047619,,,,,,,,,,,,,,5,extra,,,,,,107.9044,109.0465,1,0,0.6241,,0,62,62,4,1,three_way_cognate,1,REAL,FALSA
,,,,,,,,,5a147e755d06850001b00937,001,2024-06-30_03h23.35.505,empathy_intonation_perc,2024.1.4,Linux armv81,119.047619,,,,,,,,,,,,,,40,pelvis,,,,,,109.047,110.032,0,1,0.4697,,0,63,63,39,1,two_way_cognate,1,REAL,FALSA
,,,,,,,,,5a147e755d06850001b00937,001,2024-06-30_03h23.35.505,empathy_intonation_perc,2024.1.4,Linux armv81,119.047619,,,,,,,,,,,,,,169,pitis,,,,,,110.0329,111.1915,0,1,0.6446,,0,64,64,168,1,pseudoword,0,REAL,FALSA
,,,,,,,,,5a147e755d06850001b00937,001,2024-06-30_03h23.35.505,empathy_intonation_perc,2024.1.4,Linux armv81,119.047619,,,,,,,,,,,,,,26,enigma,,,,,,111.192,112.3912,1,0,0.6811,,0,65,65,25,1,two_way_cognate,1,REAL,FALSA
,,,,,,,,,5a147e755d06850001b00937,001,2024-06-30_03h23.35.505,empathy_intonation_perc,2024.1.4,Linux armv81,119.047619,,,,,,,,,,,,,,52,blando,,,,,,112.392,114.0952,0,1,1.1869,,0,66,66,51,1,non_cognate,1,REAL,FALSA
,,,,,,,,,5a147e755d06850001b00937,001,2024-06-30_03h23.35.505,empathy_intonation_perc,2024.1.4,Linux armv81,119.047619,,,,,,,,,,,,,,181,gravés,,,,,,114.0961,115.4254,1,0,0.8093,,0,67,67,180,1,pseudoword,0,REAL,FALSA
,,,,,,,,,5a147e755d06850001b00937,001,2024-06-30_03h23.35.505,empathy_intonation_perc,2024.1.4,Linux armv81,119.047619,,,,,,,,,,,,,,152,prave,,,,,,115.4262,116.1932,0,1,0.2458,,0,68,68,151,1,pseudoword,0,REAL,FALSA
,,,,,,,,,5a147e755d06850001b00937,001,2024-06-30_03h23.35.505,empathy_intonation_perc,2024.1.4,Linux armv81,119.047619,,,,,,,,,,,,,,29,clamor,,,,,,116.1942,117.5525,1,0,0.8417,,0,69,69,28,1,two_way_cognate,1,REAL,FALSA
,,,,,,,,,5a147e755d06850001b00937,001,2024-06-30_03h23.35.505,empathy_intonation_perc,2024.1.4,Linux armv81,119.047619,,,,,,,,,,,,,,187,nomata,,,,,,117.5531,118.5176,0,1,0.4463,,0,70,70,186,1,pseudoword,0,REAL,FALSA
,,,,,,,,,5a147e755d06850001b00937,001,2024-06-30_03h23.35.505,empathy_intonation_perc,2024.1.4,Linux armv81,119.047619,,,,,,,,,,,,,,20,trauma,,,,,,118.5184,120.6584,1,0,1.6167,,0,71,71,19,1,three_way_cognate,1,REAL,FALSA
,,,,,,,,,5a147e755d06850001b00937,001,2024-06-30_03h23.35.505,empathy_intonation_perc,2024.1.4,Linux armv81,119.047619,,,,,,,,,,,,,,44,editor,,,,,,120.6595,121.9818,1,0,0.799,,0,72,72,43,1,two_way_cognate,1,REAL,FALSA
,,,,,,,,,5a147e755d06850001b00937,001,2024-06-30_03h23.35.505,empathy_intonation_perc,2024.1.4,Linux armv81,119.047619,,,,,,,,,,,,,,183,edioso,,,,,,121.9824,125.922,0,1,3.4211,,0,73,73,182,1,pseudoword,0,REAL,FALSA
,,,,,,,,,5a147e755d06850001b00937,001,2024-06-30_03h23.35.505,empathy_intonation_perc,2024.1.4,Linux armv81,119.047619,,,,,,,,,,,,,,28,ardor,,,,,,125.9355,128.2378,0,1,1.7844,,0,74,74,27,1,two_way_cognate,1,REAL,FALSA
,,,,,,,,,5a147e755d06850001b00937,001,2024-06-30_03h23.35.505,empathy_intonation_perc,2024.1.4,Linux armv81,119.047619,,,,,,,,,,,,,,144,diroco,,,,,,128.2387,129.3497,0,1,0.5886,,0,75,75,143,1,pseudoword,0,REAL,FALSA
,,,,,,,,,5a147e755d06850001b00937,001,2024-06-30_03h23.35.505,empathy_intonation_perc,2024.1.4,Linux armv81,119.047619,,,,,,,,,,,,,,33,collar,,,,,,129.3503,131.1228,0,1,1.2497,,0,76,76,32,1,two_way_cognate,1,REAL,FALSA
,,,,,,,,,5a147e755d06850001b00937,001,2024-06-30_03h23.35.505,empathy_intonation_perc,2024.1.4,Linux armv81,119.047619,,,,,,,,,,,,,,96,caro,,,,,,131.1236,132.3664,1,0,0.7211,,0,77,77,95,1,non_cognate,1,REAL,FALSA
,,,,,,,,,5a147e755d06850001b00937,001,2024-06-30_03h23.35.505,empathy_intonation_perc,2024.1.4,Linux armv81,119.047619,,,,,,,,,,,,,,63,hilo,,,,,,132.3673,133.7888,0,1,0.901,,0,78,78,62,1,non_cognate,1,REAL,FALSA
,,,,,,,,,5a147e755d06850001b00937,001,2024-06-30_03h23.35.505,empathy_intonation_perc,2024.1.4,Linux armv81,119.047619,,,,,,,,,,,,,,74,ala,,,,,,133.7898,134.7609,0,1,0.4511,,0,79,79,73,1,non_cognate,1,REAL,FALSA
,,,,,,,,,5a147e755d06850001b00937,001,2024-06-30_03h23.35.505,empathy_intonation_perc,2024.1.4,Linux armv81,119.047619,,,,,,,,,,,,,,157,seled,,,,,,134.7615,135.7025,0,1,0.4233,,0,80,80,156,1,pseudoword,0,REAL,FALSA
,,,,,,,,,5a147e755d06850001b00937,001,2024-06-30_03h23.35.505,empathy_intonation_perc,2024.1.4,Linux armv81,119.047619,,,,,,,,,,,,,,19,mafia,,,,,,135.7034,136.5967,0,1,0.3714,,0,81,81,18,1,three_way_cognate,1,REAL,FALSA
,,,,,,,,,5a147e755d06850001b00937,001,2024-06-30_03h23.35.505,empathy_intonation_perc,2024.1.4,Linux armv81,119.047619,,,,,,,,,,,,,,9,portal,,,,,,136.5977,137.6595,1,0,0.5398,,0,82,82,8,1,three_way_cognate,1,REAL,FALSA
,,,,,,,,,5a147e755d06850001b00937,001,2024-06-30_03h23.35.505,empathy_intonation_perc,2024.1.4,Linux armv81,119.047619,,,,,,,,,,,,,,61,aduana,,,,,,137.6603,138.7431,0,1,0.5706,,0,83,83,60,1,non_cognate,1,REAL,FALSA
,,,,,,,,,5a147e755d06850001b00937,001,2024-06-30_03h23.35.505,empathy_intonation_perc,2024.1.4,Linux armv81,119.047619,,,,,,,,,,,,,,110,densó,,,,,,138.7442,139.9578,0,1,0.693,,0,84,84,109,1,pseudoword,0,REAL,FALSA
,,,,,,,,,5a147e755d06850001b00937,001,2024-06-30_03h23.35.505,empathy_intonation_perc,2024.1.4,Linux armv81,119.047619,,,,,,,,,,,,,,53,punta,,,,,,139.9591,141.602,1,0,1.123,,0,85,85,52,1,non_cognate,1,REAL,FALSA
,,,,,,,,,5a147e755d06850001b00937,001,2024-06-30_03h23.35.505,empathy_intonation_perc,2024.1.4,Linux armv81,119.047619,,,,,,,,,,,,,,122,boñaz,,,,,,141.603,142.6573,1,0,0.5417,,0,86,86,121,1,pseudoword,0,REAL,FALSA
,,,,,,,,,5a147e755d06850001b00937,001,2024-06-30_03h23.35.505,empathy_intonation_perc,2024.1.4,Linux armv81,119.047619,,,,,,,,,,,,,,136,hueas,,,,,,142.6583,143.7252,0,1,0.5452,,0,87,87,135,1,pseudoword,0,REAL,FALSA
,,,,,,,,,5a147e755d06850001b00937,001,2024-06-30_03h23.35.505,empathy_intonation_perc,2024.1.4,Linux armv81,119.047619,,,,,,,,,,,,,,159,trcia,,,,,,143.7258,144.7575,0,1,0.5179,,0,88,88,158,1,pseudoword,0,REAL,FALSA
,,,,,,,,,5a147e755d06850001b00937,001,2024-06-30_03h23.35.505,empathy_intonation_perc,2024.1.4,Linux armv81,119.047619,,,,,,,,,,,,,,133,conso,,,,,,144.7583,145.7976,0,1,0.5184,,0,89,89,132,1,pseudoword,0,REAL,FALSA
,,,,,,,,,5a147e755d06850001b00937,001,2024-06-30_03h23.35.505,empathy_intonation_perc,2024.1.4,Linux armv81,119.047619,,,,,,,,,,,,,,92,flecha,,,,,,145.7986,146.7677,0,1,0.4514,,0,90,90,91,1,non_cognate,1,REAL,FALSA
,,,,,,,,,5a147e755d06850001b00937,001,2024-06-30_03h23.35.505,empathy_intonation_perc,2024.1.4,Linux armv81,119.047619,,,,,,,,,,,,,,91,equipo,,,,,,146.7687,148.0661,0,1,0.7743,,0,91,91,90,1,non_cognate,1,REAL,FALSA
,,,,,,,,,5a147e755d06850001b00937,001,2024-06-30_03h23.35.505,empathy_intonation_perc,2024.1.4,Linux armv81,119.047619,,,,,,,,,,,,,,37,torso,,,,,,148.0668,149.0396,0,1,0.4546,,0,92,92,36,1,two_way_cognate,1,REAL,FALSA
,,,,,,,,,5a147e755d06850001b00937,001,2024-06-30_03h23.35.505,empathy_intonation_perc,2024.1.4,Linux armv81,119.047619,,,,,,,,,,,,,,120,mauja,,,,,,149.0405,149.9679,0,1,0.4106,,0,93,93,119,1,pseudoword,0,REAL,FALSA
,,,,,,,,,5a147e755d06850001b00937,001,2024-06-30_03h23.35.505,empathy_intonation_perc,2024.1.4,Linux armv81,119.047619,,,,,,,,,,,,,,116,grigir,,,,,,149.9688,150.9076,0,1,0.4228,,0,94,94,115,1,pseudoword,0,REAL,FALSA
,,,,,,,,,5a147e755d06850001b00937,001,2024-06-30_03h23.35.505,empathy_intonation_perc,2024.1.4,Linux armv81,119.047619,,,,,,,,,,,,,,142,parre,,,,,,150.9094,151.8742,0,1,0.4455,,0,95,95,141,1,pseudoword,0,REAL,FALSA
,,,,,,,,,5a147e755d06850001b00937,001,2024-06-30_03h23.35.505,empathy_intonation_perc,2024.1.4,Linux armv81,119.047619,,,,,,,,,,,,,,55,maldad,,,,,,151.8751,152.9017,0,1,0.5052,,0,96,96,54,1,non_cognate,1,REAL,FALSA
,,,,,,,,,5a147e755d06850001b00937,001,2024-06-30_03h23.35.505,empathy_intonation_perc,2024.1.4,Linux armv81,119.047619,,,,,,,,,,,,,,13,plan,,,,,,152.9026,153.9749,1,0,0.5596,,0,97,97,12,1,three_way_cognate,1,REAL,FALSA
,,,,,,,,,5a147e755d06850001b00937,001,2024-06-30_03h23.35.505,empathy_intonation_perc,2024.1.4,Linux armv81,119.047619,,,,,,,,,,,,,,43,honor,,,,,,153.9758,155.6049,1,0,1.1087,,0,98,98,42,1,two_way_cognate,1,REAL,FALSA
,,,,,,,,,5a147e755d06850001b00937,001,2024-06-30_03h23.35.505,empathy_intonation_perc,2024.1.4,Linux armv81,119.047619,,,,,,,,,,,,,,88,percha,,,,,,155.606,156.6677,0,1,0.5413,,0,99,99,87,1,non_cognate,1,REAL,FALSA
,,,,,,,,,5a147e755d06850001b00937,001,2024-06-30_03h23.35.505,empathy_intonation_perc,2024.1.4,Linux armv81,119.047619,,,,,,,,,,,,,,58,colcha,,,,,,156.6686,157.6835,0,1,0.4891,,0,100,100,57,1,non_cognate,1,REAL,FALSA
,,,,,,,,,5a147e755d06850001b00937,001,2024-06-30_03h23.35.505,empathy_intonation_perc,2024.1.4,Linux armv81,119.047619,,,,,,,,,,,,,,177,entodo,,,,,,157.6844,158.6967,0,1,0.4983,,0,101,101,176,1,pseudoword,0,REAL,FALSA
,,,,,,,,,5a147e755d06850001b00937,001,2024-06-30_03h23.35.505,empathy_intonation_perc,2024.1.4,Linux armv81,119.047619,,,,,,,,,,,,,,49,teñir,,,,,,158.6978,159.7171,0,1,0.5009,,0,102,102,48,1,non_cognate,1,REAL,FALSA
,,,,,,,,,5a147e755d06850001b00937,001,2024-06-30_03h23.35.505,empathy_intonation_perc,2024.1.4,Linux armv81,119.047619,,,,,,,,,,,,,,154,harvé,,,,,,159.718,161.7496,0,1,1.5108,,0,103,103,153,1,pseudoword,0,REAL,FALSA
,,,,,,,,,5a147e755d06850001b00937,001,2024-06-30_03h23.35.505,empathy_intonation_perc,2024.1.4,Linux armv81,119.047619,,,,,,,,,,,,,,30,fiscal,,,,,,161.7509,162.7765,0,1,0.5086,,0,104,104,29,1,two_way_cognate,1,REAL,FALSA
,,,,,,,,,5a147e755d06850001b00937,001,2024-06-30_03h23.35.505,empathy_intonation_perc,2024.1.4,Linux armv81,119.047619,,,,,,,,,,,,,,50,sierra,,,,,,162.7771,164.5491,1,0,1.252,,0,105,105,49,1,non_cognate,1,REAL,FALSA
,,,,,,,,,5a147e755d06850001b00937,001,2024-06-30_03h23.35.505,empathy_intonation_perc,2024.1.4,Linux armv81,119.047619,,,,,,,,,,,,,,7,albino,,,,,,164.55,166.0188,1,0,0.9542,,0,106,106,6,1,three_way_cognate,1,REAL,FALSA
,,,,,,,,,5a147e755d06850001b00937,001,2024-06-30_03h23.35.505,empathy_intonation_perc,2024.1.4,Linux armv81,119.047619,,,,,,,,,,,,,,150,cricó,,,,,,166.0198,167.2059,0,1,0.6671,,0,107,107,149,1,pseudoword,0,REAL,FALSA
,,,,,,,,,5a147e755d06850001b00937,001,2024-06-30_03h23.35.505,empathy_intonation_perc,2024.1.4,Linux armv81,119.047619,,,,,,,,,,,,,,102,coyo,,,,,,167.2069,168.3848,0,1,0.6611,,0,108,108,101,1,pseudoword,0,REAL,FALSA
,,,,,,,,,5a147e755d06850001b00937,001,2024-06-30_03h23.35.505,empathy_intonation_perc,2024.1.4,Linux armv81,119.047619,,,,,,,,,,,,,,151,prías,,,,,,168.3856,169.7298,0,1,0.8226,,0,109,109,150,1,pseudoword,0,REAL,FALSA
,,,,,,,,,5a147e755d06850001b00937,001,2024-06-30_03h23.35.505,empathy_intonation_perc,2024.1.4,Linux armv81,119.047619,,,,,,,,,,,,,,140,chorde,,,,,,169.7308,170.7352,0,1,0.4834,,0,110,110,139,1,pseudoword,0,REAL,FALSA
,,,,,,,,,5a147e755d06850001b00937,001,2024-06-30_03h23.35.505,empathy_intonation_perc,2024.1.4,Linux armv81,119.047619,,,,,,,,,,,,,,81,sacar,,,,,,170.7358,171.8024,0,1,0.5501,,0,111,111,80,1,non_cognate,1,REAL,FALSA
,,,,,,,,,5a147e755d06850001b00937,001,2024-06-30_03h23.35.505,empathy_intonation_perc,2024.1.4,Linux armv81,119.047619,,,,,,,,,,,,,,167,dobbo,,,,,,171.8036,172.875,0,1,0.5524,,0,112,112,166,1,pseudoword,0,REAL,FALSA
,,,,,,,,,5a147e755d06850001b00937,001,2024-06-30_03h23.35.505,empathy_intonation_perc,2024.1.4,Linux armv81,119.047619,,,,,,,,,,,,,,153,golla,,,,,,172.8759,173.8337,0,1,0.4412,,0,113,113,152,1,pseudoword,0,REAL,FALSA
,,,,,,,,,5a147e755d06850001b00937,001,2024-06-30_03h23.35.505,empathy_intonation_perc,2024.1.4,Linux armv81,119.047619,,,,,,,,,,,,,,121,barbs,,,,,,173.8345,174.7215,0,1,0.3672,,0,114,114,120,1,pseudoword,0,REAL,FALSA
,,,,,,,,,5a147e755d06850001b00937,001,2024-06-30_03h23.35.505,empathy_intonation_perc,2024.1.4,Linux armv81,119.047619,,,,,,,,,,,,,,34,actor,,,,,,174.7223,175.8413,1,0,0.5997,,0,115,115,33,1,two_way_cognate,1,REAL,FALSA
,,,,,,,,,5a147e755d06850001b00937,001,2024-06-30_03h23.35.505,empathy_intonation_perc,2024.1.4,Linux armv81,119.047619,,,,,,,,,,,,,,176,gripar,,,,,,175.842,177.0033,0,1,0.6436,,0,116,116,175,1,pseudoword,0,REAL,FALSA
,,,,,,,,,5a147e755d06850001b00937,001,2024-06-30_03h23.35.505,empathy_intonation_perc,2024.1.4,Linux armv81,119.047619,,,,,,,,,,,,,,104,estulo,,,,,,177.0041,178.3075,0,1,0.7846,,0,117,117,103,1,pseudoword,0,REAL,FALSA
,,,,,,,,,5a147e755d06850001b00937,001,2024-06-30_03h23.35.505,empathy_intonation_perc,2024.1.4,Linux armv81,119.047619,,,,,,,,,,,,,,112,samón,,,,,,178.3082,179.466,0,1,0.6347,,0,118,118,111,1,pseudoword,0,REAL,FALSA
,,,,,,,,,5a147e755d06850001b00937,001,2024-06-30_03h23.35.505,empathy_intonation_perc,2024.1.4,Linux armv81,119.047619,,,,,,,,,,,,,,51,listo,,,,,,179.4669,180.5125,0,1,0.5236,,0,119,119,50,1,non_cognate,1,REAL,FALSA
,,,,,,,,,5a147e755d06850001b00937,001,2024-06-30_03h23.35.505,empathy_intonation_perc,2024.1.4,Linux armv81,119.047619,,,,,,,,,,,,,,134,molor,,,,,,180.5135,181.7023,0,1,0.668,,0,120,120,133,1,pseudoword,0,REAL,FALSA
,,,,,,,,,5a147e755d06850001b00937,001,2024-06-30_03h23.35.505,empathy_intonation_perc,2024.1.4,Linux armv81,119.047619,,,,,,,,,,,,,,72,rostro,,,,,,181.703,182.7669,0,1,0.546,,0,121,121,71,1,non_cognate,1,REAL,FALSA
,,,,,,,,,5a147e755d06850001b00937,001,2024-06-30_03h23.35.505,empathy_intonation_perc,2024.1.4,Linux armv81,119.047619,,,,,,,,,,,,,,146,gió,,,,,,182.768,183.7317,0,1,0.4405,,0,122,122,145,1,pseudoword,0,REAL,FALSA
,,,,,,,,,5a147e755d06850001b00937,001,2024-06-30_03h23.35.505,empathy_intonation_perc,2024.1.4,Linux armv81,119.047619,,,,,,,,,,,,,,160,fomeó,,,,,,183.7323,184.6739,0,1,0.4211,,0,123,123,159,1,pseudoword,0,REAL,FALSA
,,,,,,,,,5a147e755d06850001b00937,001,2024-06-30_03h23.35.505,empathy_intonation_perc,2024.1.4,Linux armv81,119.047619,,,,,,,,,,,,,,38,halo,,,,,,184.6746,185.8388,1,0,0.6518,,0,124,124,37,1,two_way_cognate,1,REAL,FALSA
,,,,,,,,,5a147e755d06850001b00937,001,2024-06-30_03h23.35.505,empathy_intonation_perc,2024.1.4,Linux armv81,119.047619,,,,,,,,,,,,,,65,guerra,,,,,,185.8393,186.8732,0,1,0.5172,,0,125,125,64,1,non_cognate,1,REAL,FALSA
,,,,,,,,,5a147e755d06850001b00937,001,2024-06-30_03h23.35.505,empathy_intonation_perc,2024.1.4,Linux armv81,119.047619,,,,,,,,,,,,,,67,llamar,,,,,,186.874,187.8334,0,1,0.4386,,0,126,126,66,1,non_cognate,1,REAL,FALSA
,,,,,,,,,5a147e755d06850001b00937,001,2024-06-30_03h23.35.505,empathy_intonation_perc,2024.1.4,Linux armv81,119.047619,,,,,,,,,,,,,,23,plural,,,,,,187.8343,189.5131,1,0,1.1651,,0,127,127,22,1,three_way_cognate,1,REAL,FALSA
,,,,,,,,,5a147e755d06850001b00937,001,2024-06-30_03h23.35.505,empathy_intonation_perc,2024.1.4,Linux armv81,119.047619,,,,,,,,,,,,,,78,rendir,,,,,,189.5143,190.7186,0,1,0.6859,,0,128,128,77,1,non_cognate,1,REAL,FALSA
,,,,,,,,,5a147e755d06850001b00937,001,2024-06-30_03h23.35.505,empathy_intonation_perc,2024.1.4,Linux armv81,119.047619,,,,,,,,,,,,,,4,flora,,,,,,190.7194,191.6777,0,1,0.4362,,0,129,129,3,1,three_way_cognate,1,REAL,FALSA
,,,,,,,,,5a147e755d06850001b00937,001,2024-06-30_03h23.35.505,empathy_intonation_perc,2024.1.4,Linux armv81,119.047619,,,,,,,,,,,,,,11,golf,,,,,,191.6788,192.8405,1,0,0.6477,,0,130,130,10,1,three_way_cognate,1,REAL,FALSA
,,,,,,,,,5a147e755d06850001b00937,001,2024-06-30_03h23.35.505,empathy_intonation_perc,2024.1.4,Linux armv81,119.047619,,,,,,,,,,,,,,100,épinas,,,,,,192.8412,194.0997,1,0,0.7455,,0,131,131,99,1,pseudoword,0,REAL,FALSA
,,,,,,,,,5a147e755d06850001b00937,001,2024-06-30_03h23.35.505,empathy_intonation_perc,2024.1.4,Linux armv81,119.047619,,,,,,,,,,,,,,168,cobén,,,,,,194.1006,195.0695,0,1,0.4525,,0,132,132,167,1,pseudoword,0,REAL,FALSA
,,,,,,,,,5a147e755d06850001b00937,001,2024-06-30_03h23.35.505,empathy_intonation_perc,2024.1.4,Linux armv81,119.047619,,,,,,,,,,,,,,18,altar,,,,,,195.0702,196.2099,1,0,0.6259,,0,133,133,17,1,three_way_cognate,1,REAL,FALSA
,,,,,,,,,5a147e755d06850001b00937,001,2024-06-30_03h23.35.505,empathy_intonation_perc,2024.1.4,Linux armv81,119.047619,,,,,,,,,,,,,,108,jauda,,,,,,196.2107,197.3642,0,1,0.6345,,0,134,134,107,1,pseudoword,0,REAL,FALSA
,,,,,,,,,5a147e755d06850001b00937,001,2024-06-30_03h23.35.505,empathy_intonation_perc,2024.1.4,Linux armv81,119.047619,,,,,,,,,,,,,,87,muleta,,,,,,197.365,198.5023,0,1,0.6199,,0,135,135,86,1,non_cognate,1,REAL,FALSA
,,,,,,,,,5a147e755d06850001b00937,001,2024-06-30_03h23.35.505,empathy_intonation_perc,2024.1.4,Linux armv81,119.047619,,,,,,,,,,,,,,25,vigor,,,,,,198.5031,199.7882,1,0,0.7687,,0,136,136,24,1,two_way_cognate,1,REAL,FALSA
,,,,,,,,,5a147e755d06850001b00937,001,2024-06-30_03h23.35.505,empathy_intonation_perc,2024.1.4,Linux armv81,119.047619,,,,,,,,,,,,,,132,nocó,,,,,,199.7887,200.8485,0,1,0.5406,,0,137,137,131,1,pseudoword,0,REAL,FALSA
,,,,,,,,,5a147e755d06850001b00937,001,2024-06-30_03h23.35.505,empathy_intonation_perc,2024.1.4,Linux armv81,119.047619,,,,,,,,,,,,,,124,lobe,,,,,,200.8498,202.0286,0,1,0.6628,,0,138,138,123,1,pseudoword,0,REAL,FALSA
,,,,,,,,,5a147e755d06850001b00937,001,2024-06-30_03h23.35.505,empathy_intonation_perc,2024.1.4,Linux armv81,119.047619,,,,,,,,,,,,,,12,dogma,,,,,,202.0293,203.1894,1,0,0.6413,,0,139,139,11,1,three_way_cognate,1,REAL,FALSA
,,,,,,,,,5a147e755d06850001b00937,001,2024-06-30_03h23.35.505,empathy_intonation_perc,2024.1.4,Linux armv81,119.047619,,,,,,,,,,,,,,90,venado,,,,,,203.1902,215.8338,0,1,12.1238,,0,140,140,89,1,non_cognate,1,REAL,FALSA
,,,,,,,,,5a147e755d06850001b00937,001,2024-06-30_03h23.35.505,empathy_intonation_perc,2024.1.4,Linux armv81,119.047619,,,,,,,,,,,,,,45,total,,,,,,215.8494,216.9156,1,0,0.5531,,0,141,141,44,1,two_way_cognate,1,REAL,FALSA
,,,,,,,,,5a147e755d06850001b00937,001,2024-06-30_03h23.35.505,empathy_intonation_perc,2024.1.4,Linux armv81,119.047619,,,,,,,,,,,,,,125,ceme,,,,,,216.9163,218.1978,0,1,0.7575,,0,142,142,124,1,pseudoword,0,REAL,FALSA
,,,,,,,,,5a147e755d06850001b00937,001,2024-06-30_03h23.35.505,empathy_intonation_perc,2024.1.4,Linux armv81,119.047619,,,,,,,,,,,,,,47,color,,,,,,218.1987,219.2104,1,0,0.4903,,0,143,143,46,1,two_way_cognate,1,REAL,FALSA
,,,,,,,,,5a147e755d06850001b00937,001,2024-06-30_03h23.35.505,empathy_intonation_perc,2024.1.4,Linux armv81,119.047619,,,,,,,,,,,,,,71,torta,,,,,,219.2114,220.7191,0,1,0.9877,,0,144,144,70,1,non_cognate,1,REAL,FALSA
,,,,,,,,,5a147e755d06850001b00937,001,2024-06-30_03h23.35.505,empathy_intonation_perc,2024.1.4,Linux armv81,119.047619,,,,,,,,,,,,,,130,dubo,,,,,,220.7201,221.7913,0,1,0.5565,,0,145,145,129,1,pseudoword,0,REAL,FALSA
,,,,,,,,,5a147e755d06850001b00937,001,2024-06-30_03h23.35.505,empathy_intonation_perc,2024.1.4,Linux armv81,119.047619,,,,,,,,,,,,,,101,losco,,,,,,221.7922,223.0247,0,1,0.718,,0,146,146,100,1,pseudoword,0,REAL,FALSA
,,,,,,,,,5a147e755d06850001b00937,001,2024-06-30_03h23.35.505,empathy_intonation_perc,2024.1.4,Linux armv81,119.047619,,,,,,,,,,,,,,161,civas,,,,,,223.0253,224.3153,0,1,0.7776,,0,147,147,160,1,pseudoword,0,REAL,FALSA
,,,,,,,,,5a147e755d06850001b00937,001,2024-06-30_03h23.35.505,empathy_intonation_perc,2024.1.4,Linux armv81,119.047619,,,,,,,,,,,,,,1,moral,,,,,,224.3164,225.6654,1,0,0.8351,,0,148,148,0,1,three_way_cognate,1,REAL,FALSA
,,,,,,,,,5a147e755d06850001b00937,001,2024-06-30_03h23.35.505,empathy_intonation_perc,2024.1.4,Linux armv81,119.047619,,,,,,,,,,,,,,190,asumie,,,,,,225.666,232.8791,0,1,6.6934,,0,149,149,189,1,pseudoword,0,REAL,FALSA
,,,,,,,,,5a147e755d06850001b00937,001,2024-06-30_03h23.35.505,empathy_intonation_perc,2024.1.4,Linux armv81,119.047619,,,,,,,,,,,,,,32,animal,,,,,,232.893,234.1496,1,0,0.7345,,0,150,150,31,1,two_way_cognate,1,REAL,FALSA
,,,,,,,,,5a147e755d06850001b00937,001,2024-06-30_03h23.35.505,empathy_intonation_perc,2024.1.4,Linux armv81,119.047619,,,,,,,,,,,,,,21,hotel,,,,,,234.1503,235.3314,1,0,0.6628,,0,151,151,20,1,three_way_cognate,1,REAL,FALSA
,,,,,,,,,5a147e755d06850001b00937,001,2024-06-30_03h23.35.505,empathy_intonation_perc,2024.1.4,Linux armv81,119.047619,,,,,,,,,,,,,,171,gotro,,,,,,235.3324,236.5647,0,1,0.7148,,0,152,152,170,1,pseudoword,0,REAL,FALSA
,,,,,,,,,5a147e755d06850001b00937,001,2024-06-30_03h23.35.505,empathy_intonation_perc,2024.1.4,Linux armv81,119.047619,,,,,,,,,,,,,,68,puñal,,,,,,236.5652,237.9699,1,0,0.8875,,0,153,153,67,1,non_cognate,1,REAL,FALSA
,,,,,,,,,5a147e755d06850001b00937,001,2024-06-30_03h23.35.505,empathy_intonation_perc,2024.1.4,Linux armv81,119.047619,,,,,,,,,,,,,,17,clan,,,,,,237.9708,238.8122,0,1,0.324,,0,154,154,16,1,three_way_cognate,1,REAL,FALSA
,,,,,,,,,5a147e755d06850001b00937,001,2024-06-30_03h23.35.505,empathy_intonation_perc,2024.1.4,Linux armv81,119.047619,,,,,,,,,,,,,,172,dogue,,,,,,238.8132,239.8972,1,0,0.5654,,0,155,155,171,1,pseudoword,0,REAL,FALSA
,,,,,,,,,5a147e755d06850001b00937,001,2024-06-30_03h23.35.505,empathy_intonation_perc,2024.1.4,Linux armv81,119.047619,,,,,,,,,,,,,,98,martir,,,,,,239.8982,241.1749,0,1,0.7631,,0,156,156,97,1,pseudoword,0,REAL,FALSA
,,,,,,,,,5a147e755d06850001b00937,001,2024-06-30_03h23.35.505,empathy_intonation_perc,2024.1.4,Linux armv81,119.047619,,,,,,,,,,,,,,93,tapa,,,,,,241.176,242.2446,0,1,0.5481,,0,157,157,92,1,non_cognate,1,REAL,FALSA
,,,,,,,,,5a147e755d06850001b00937,001,2024-06-30_03h23.35.505,empathy_intonation_perc,2024.1.4,Linux armv81,119.047619,,,,,,,,,,,,,,180,pupica,,,,,,242.2457,243.2421,0,1,0.4759,,0,158,158,179,1,pseudoword,0,REAL,FALSA
,,,,,,,,,5a147e755d06850001b00937,001,2024-06-30_03h23.35.505,empathy_intonation_perc,2024.1.4,Linux armv81,119.047619,,,,,,,,,,,,,,119,esís,,,,,,243.243,247.7042,0,1,3.9418,,0,159,159,118,1,pseudoword,0,REAL,FALSA
,,,,,,,,,5a147e755d06850001b00937,001,2024-06-30_03h23.35.505,empathy_intonation_perc,2024.1.4,Linux armv81,119.047619,,,,,,,,,,,,,,2,tumor,,,,,,247.7189,248.8902,1,0,0.6478,,0,160,160,1,1,three_way_cognate,1,REAL,FALSA
,,,,,,,,,5a147e755d06850001b00937,001,2024-06-30_03h23.35.505,empathy_intonation_perc,2024.1.4,Linux armv81,119.047619,,,,,,,,,,,,,,48,pelvis,,,,,,248.8909,250.1879,1,0,0.7741,,0,161,161,47,1,two_way_cognate,1,REAL,FALSA
,,,,,,,,,5a147e755d06850001b00937,001,2024-06-30_03h23.35.505,empathy_intonation_perc,2024.1.4,Linux armv81,119.047619,,,,,,,,,,,,,,82,brillo,,,,,,250.1888,251.3269,1,0,0.619,,0,162,162,81,1,non_cognate,1,REAL,FALSA
,,,,,,,,,5a147e755d06850001b00937,001,2024-06-30_03h23.35.505,empathy_intonation_perc,2024.1.4,Linux armv81,119.047619,,,,,,,,,,,,,,141,virios,,,,,,251.3276,252.426,0,1,0.5795,,0,163,163,140,1,pseudoword,0,REAL,FALSA
,,,,,,,,,5a147e755d06850001b00937,001,2024-06-30_03h23.35.505,empathy_intonation_perc,2024.1.4,Linux armv81,119.047619,,,,,,,,,,,,,,143,hurcos,,,,,,252.4269,253.4557,0,1,0.5089,,0,164,164,142,1,pseudoword,0,REAL,FALSA
,,,,,,,,,5a147e755d06850001b00937,001,2024-06-30_03h23.35.505,empathy_intonation_perc,2024.1.4,Linux armv81,119.047619,,,,,,,,,,,,,,16,chat,,,,,,253.4566,254.5087,1,0,0.5336,,0,165,165,15,1,three_way_cognate,1,REAL,FALSA
,,,,,,,,,5a147e755d06850001b00937,001,2024-06-30_03h23.35.505,empathy_intonation_perc,2024.1.4,Linux armv81,119.047619,,,,,,,,,,,,,,95,listo,,,,,,254.5097,255.5851,0,1,0.5572,,0,166,166,94,1,non_cognate,1,REAL,FALSA
,,,,,,,,,5a147e755d06850001b00937,001,2024-06-30_03h23.35.505,empathy_intonation_perc,2024.1.4,Linux armv81,119.047619,,,,,,,,,,,,,,85,enorme,,,,,,255.5862,256.5587,0,1,0.4481,,0,167,167,84,1,non_cognate,1,REAL,FALSA
,,,,,,,,,5a147e755d06850001b00937,001,2024-06-30_03h23.35.505,empathy_intonation_perc,2024.1.4,Linux armv81,119.047619,,,,,,,,,,,,,,66,aleta,,,,,,256.5595,257.4498,0,1,0.3715,,0,168,168,65,1,non_cognate,1,REAL,FALSA
,,,,,,,,,5a147e755d06850001b00937,001,2024-06-30_03h23.35.505,empathy_intonation_perc,2024.1.4,Linux armv81,119.047619,,,,,,,,,,,,,,128,pelí,,,,,,257.4508,258.3341,0,1,0.3602,,0,169,169,127,1,pseudoword,0,REAL,FALSA
,,,,,,,,,5a147e755d06850001b00937,001,2024-06-30_03h23.35.505,empathy_intonation_perc,2024.1.4,Linux armv81,119.047619,,,,,,,,,,,,,,191,frasis,,,,,,258.3351,259.3152,0,1,0.463,,0,170,170,190,1,pseudoword,0,REAL,FALSA
,,,,,,,,,5a147e755d06850001b00937,001,2024-06-30_03h23.35.505,empathy_intonation_perc,2024.1.4,Linux armv81,119.047619,,,,,,,,,,,,,,156,ozoso,,,,,,259.3161,260.2845,0,1,0.4516,,0,171,171,155,1,pseudoword,0,REAL,FALSA
,,,,,,,,,5a147e755d06850001b00937,001,2024-06-30_03h23.35.505,empathy_intonation_perc,2024.1.4,Linux armv81,119.047619,,,,,,,,,,,,,,77,suave,,,,,,260.2853,261.236,0,1,0.4295,,0,172,172,76,1,non_cognate,1,REAL,FALSA
,,,,,,,,,5a147e755d06850001b00937,001,2024-06-30_03h23.35.505,empathy_intonation_perc,2024.1.4,Linux armv81,119.047619,,,,,,,,,,,,,,97,nocita,,,,,,261.2372,262.2155,0,1,0.4656,,0,173,173,96,1,pseudoword,0,REAL,FALSA
,,,,,,,,,5a147e755d06850001b00937,001,2024-06-30_03h23.35.505,empathy_intonation_perc,2024.1.4,Linux armv81,119.047619,,,,,,,,,,,,,,165,chote,,,,,,262.2165,263.1528,0,1,0.4182,,0,174,174,164,1,pseudoword,0,REAL,FALSA
,,,,,,,,,5a147e755d06850001b00937,001,2024-06-30_03h23.35.505,empathy_intonation_perc,2024.1.4,Linux armv81,119.047619,,,,,,,,,,,,,,158,babrá,,,,,,263.1536,264.0942,0,1,0.4205,,0,175,175,157,1,pseudoword,0,REAL,FALSA
,,,,,,,,,5a147e755d06850001b00937,001,2024-06-30_03h23.35.505,empathy_intonation_perc,2024.1.4,Linux armv81,119.047619,,,,,,,,,,,,,,186,rizate,,,,,,264.0952,264.9878,0,1,0.3736,,0,176,176,185,1,pseudoword,0,REAL,FALSA
,,,,,,,,,5a147e755d06850001b00937,001,2024-06-30_03h23.35.505,empathy_intonation_perc,2024.1.4,Linux armv81,119.047619,,,,,,,,,,,,,,147,alla,,,,,,264.9889,265.8407,0,1,0.3374,,0,177,177,146,1,pseudoword,0,REAL,FALSA
,,,,,,,,,5a147e755d06850001b00937,001,2024-06-30_03h23.35.505,empathy_intonation_perc,2024.1.4,Linux armv81,119.047619,,,,,,,,,,,,,,6,horror,,,,,,265.8415,266.9541,1,0,0.5911,,0,178,178,5,1,three_way_cognate,1,REAL,FALSA
,,,,,,,,,5a147e755d06850001b00937,001,2024-06-30_03h23.35.505,empathy_intonation_perc,2024.1.4,Linux armv81,119.047619,,,,,,,,,,,,,,94,forro,,,,,,266.9549,267.9916,0,1,0.5208,,0,179,179,93,1,non_cognate,1,REAL,FALSA
,,,,,,,,,5a147e755d06850001b00937,001,2024-06-30_03h23.35.505,empathy_intonation_perc,2024.1.4,Linux armv81,119.047619,,,,,,,,,,,,,,76,chocar,,,,,,267.9923,268.974,0,1,0.4625,,0,180,180,75,1,non_cognate,1,REAL,FALSA
,,,,,,,,,5a147e755d06850001b00937,001,2024-06-30_03h23.35.505,empathy_intonation_perc,2024.1.4,Linux armv81,119.047619,,,,,,,,,,,,,,174,pabea,,,,,,268.9748,269.9382,0,1,0.4479,,0,181,181,173,1,pseudoword,0,REAL,FALSA
,,,,,,,,,5a147e755d06850001b00937,001,2024-06-30_03h23.35.505,empathy_intonation_perc,2024.1.4,Linux armv81,119.047619,,,,,,,,,,,,,,10,drama,,,,,,269.9393,271.0813,1,0,0.6234,,0,182,182,9,1,three_way_cognate,1,REAL,FALSA
,,,,,,,,,5a147e755d06850001b00937,001,2024-06-30_03h23.35.505,empathy_intonation_perc,2024.1.4,Linux armv81,119.047619,,,,,,,,,,,,,,27,piano,,,,,,271.0822,272.1887,1,0,0.593,,0,183,183,26,1,two_way_cognate,1,REAL,FALSA
,,,,,,,,,5a147e755d06850001b00937,001,2024-06-30_03h23.35.505,empathy_intonation_perc,2024.1.4,Linux armv81,119.047619,,,,,,,,,,,,,,126,tobre,,,,,,272.1892,273.1827,0,1,0.4767,,0,184,184,125,1,pseudoword,0,REAL,FALSA
,,,,,,,,,5a147e755d06850001b00937,001,2024-06-30_03h23.35.505,empathy_intonation_perc,2024.1.4,Linux armv81,119.047619,,,,,,,,,,,,,,59,feo,,,,,,273.1834,274.1426,0,1,0.4462,,0,185,185,58,1,non_cognate,1,REAL,FALSA
,,,,,,,,,5a147e755d06850001b00937,001,2024-06-30_03h23.35.505,empathy_intonation_perc,2024.1.4,Linux armv81,119.047619,,,,,,,,,,,,,,3,disco,,,,,,274.1435,275.021,0,1,0.3612,,0,186,186,2,1,three_way_cognate,1,REAL,FALSA
,,,,,,,,,5a147e755d06850001b00937,001,2024-06-30_03h23.35.505,empathy_intonation_perc,2024.1.4,Linux armv81,119.047619,,,,,,,,,,,,,,106,diebro,,,,,,275.022,276.098,0,1,0.5557,,0,187,187,105,1,pseudoword,0,REAL,FALSA
,,,,,,,,,5a147e755d06850001b00937,001,2024-06-30_03h23.35.505,empathy_intonation_perc,2024.1.4,Linux armv81,119.047619,,,,,,,,,,,,,,117,morrá,,,,,,276.0989,277.1087,0,1,0.4933,,0,188,188,116,1,pseudoword,0,REAL,FALSA
,,,,,,,,,5a147e755d06850001b00937,001,2024-06-30_03h23.35.505,empathy_intonation_perc,2024.1.4,Linux armv81,119.047619,,,,,,,,,,,,,,22,mango,,,,,,277.1096,278.1395,0,1,0.5099,,0,189,189,21,1,three_way_cognate,1,REAL,FALSA
,,,,,,,,,5a147e755d06850001b00937,001,2024-06-30_03h23.35.505,empathy_intonation_perc,2024.1.4,Linux armv81,119.047619,,,,,,,,,,,,,,137,trugo,,,,,,278.1402,279.2512,0,1,0.5914,,0,190,190,136,1,pseudoword,0,REAL,FALSA
,,,,,,,,,5a147e755d06850001b00937,001,2024-06-30_03h23.35.505,empathy_intonation_perc,2024.1.4,Linux armv81,119.047619,,,,,,,,,,,,,,79,suelo,,,,,,279.2518,280.3509,0,1,0.5784,,0,191,191,78,1,non_cognate,1,REAL,FALSA
