lextale_instructions.started,lextale_instructions.stopped,lextale_instructions_loop.thisRepN,lextale_instructions_loop.thisTrialN,lextale_instructions_loop.thisN,lextale_instructions_loop.thisIndex,lextale_instructions_loop.ran,instructions_text,continue_text,participant,session,date,expName,psychopyVersion,OS,frameRate,lextale_practice.started,lextale_practice.stopped,key_resp_lextale_practice.keys,key_resp_lextale_practice.corr,key_resp_lextale_practice.rt,key_resp_lextale_practice.duration,lextale_practice_feedback.started,lextale_practice_feedback.stopped,lextale_practice_trials.thisRepN,lextale_practice_trials.thisTrialN,lextale_practice_trials.thisN,lextale_practice_trials.thisIndex,lextale_practice_trials.ran,stim,word,correct_response,prac_button_real,prac_button_false,lextale_check.started,lextale_check.stopped,lextale_trial.started,lextale_trial.stopped,key_resp_lextale_trial.keys,key_resp_lextale_trial.corr,key_resp_lextale_trial.rt,key_resp_lextale_trial.duration,lextail_trials.thisRepN,lextail_trials.thisTrialN,lextail_trials.thisN,lextail_trials.thisIndex,lextail_trials.ran,type,correct_reponse,button_real,button_false
0.0075,7.3787,0,0,0,0,1,"Este es un test de vocabulario en español. 
  
  A continuación vas a ver 90 secuencias de letras que parecen 'españolas'.
  
  Solo algunas de ellas son palabras de verdad.",(presiona la barra espaciadora para continuar),5ba292385301b80001c71ba2,001,2024-06-30_08h01.02.310,empathy_intonation_perc,2024.1.4,Win32,20,,,,,,,,,,,,,,,,,,,,,,,,,,,,,,,,,,,
7.3794,27.9727,0,1,1,1,1,"Por favor, señala las palabras que tú conoces (aquellas que estás convencido que son palabras españolas, incluso aunque no seas capaz de dar el significado preciso).",(presiona la barra espaciadora para continuar),5ba292385301b80001c71ba2,001,2024-06-30_08h01.02.310,empathy_intonation_perc,2024.1.4,Win32,20,,,,,,,,,,,,,,,,,,,,,,,,,,,,,,,,,,,
27.9733,30.649,0,2,2,2,1,Pero cuidado: los errores se penalizan. Por eso no tiene sentido tratar de incrementar tu puntuación marcando como reales palabras que nunca has visto.,(presiona la barra espaciadora para continuar),5ba292385301b80001c71ba2,001,2024-06-30_08h01.02.310,empathy_intonation_perc,2024.1.4,Win32,20,,,,,,,,,,,,,,,,,,,,,,,,,,,,,,,,,,,
30.6496,32.184,0,3,3,3,1,"Presiona la tecla 1 si piensas que es una palabra real y la tecla 
  0 si piensas que es una palabra falsa. 
  
  Vamos a practicar un poco...",(presiona la barra espaciadora para continuar),5ba292385301b80001c71ba2,001,2024-06-30_08h01.02.310,empathy_intonation_perc,2024.1.4,Win32,20,,,,,,,,,,,,,,,,,,,,,,,,,,,,,,,,,,,
,,,,,,,,,5ba292385301b80001c71ba2,001,2024-06-30_08h01.02.310,empathy_intonation_perc,2024.1.4,Win32,20,32.1881,34.6093,1,0,1.861,,34.6097,35.6093,0,0,0,0,1,0,depiste,0,REAL,FALSA,,,,,,,,,,,,,,,,,
,,,,,,,,,5ba292385301b80001c71ba2,001,2024-06-30_08h01.02.310,empathy_intonation_perc,2024.1.4,Win32,20,35.6101,37.5036,0,0,1.3184,,37.5037,38.5262,0,1,1,1,1,0,sí,1,REAL,FALSA,,,,,,,,,,,,,,,,,
,,,,,,,,,5ba292385301b80001c71ba2,001,2024-06-30_08h01.02.310,empathy_intonation_perc,2024.1.4,Win32,20,38.5267,40.4578,0,1,1.3484,,40.4579,41.4372,0,2,2,2,1,0,coné,0,REAL,FALSA,,,,,,,,,,,,,,,,,
,,,,,,,,,5ba292385301b80001c71ba2,001,2024-06-30_08h01.02.310,empathy_intonation_perc,2024.1.4,Win32,20,41.4378,43.242,0,1,1.2075,,43.2421,44.2396,0,3,3,3,1,0,calpar,0,REAL,FALSA,,,,,,,,,,,,,,,,,
,,,,,,,,,5ba292385301b80001c71ba2,001,2024-06-30_08h01.02.310,empathy_intonation_perc,2024.1.4,Win32,20,44.2403,45.7519,0,1,0.9353,,45.752,46.7173,0,4,4,4,1,0,joten,0,REAL,FALSA,,,,,,,,,,,,,,,,,
,,,,,,,,,5ba292385301b80001c71ba2,001,2024-06-30_08h01.02.310,empathy_intonation_perc,2024.1.4,Win32,20,46.7281,48.3644,0,0,1.058,,48.3646,49.3419,0,5,5,5,1,0,sacapuntas,1,REAL,FALSA,,,,,,,,,,,,,,,,,
,,,,,,,,,5ba292385301b80001c71ba2,001,2024-06-30_08h01.02.310,empathy_intonation_perc,2024.1.4,Win32,20,49.3432,51.5193,1,0,1.6128,,51.5194,52.5205,0,6,6,6,1,0,priba,0,REAL,FALSA,,,,,,,,,,,,,,,,,
,,,,,,,,,5ba292385301b80001c71ba2,001,2024-06-30_08h01.02.310,empathy_intonation_perc,2024.1.4,Win32,20,52.5211,54.2035,1,0,1.1203,,54.2036,55.1927,0,7,7,7,1,0,pelasula,0,REAL,FALSA,,,,,,,,,,,,,,,,,
,,,,,,,,,5ba292385301b80001c71ba2,001,2024-06-30_08h01.02.310,empathy_intonation_perc,2024.1.4,Win32,20,55.2025,56.8658,1,1,1.0818,,56.8659,57.8528,0,8,8,8,1,0,bien,1,REAL,FALSA,,,,,,,,,,,,,,,,,
,,,,,,,,,5ba292385301b80001c71ba2,001,2024-06-30_08h01.02.310,empathy_intonation_perc,2024.1.4,Win32,20,57.8533,59.1771,1,1,0.7456,,59.1772,60.1566,0,9,9,9,1,0,casa,1,REAL,FALSA,,,,,,,,,,,,,,,,,
,,,,,,,,,5ba292385301b80001c71ba2,001,2024-06-30_08h01.02.310,empathy_intonation_perc,2024.1.4,Win32,20,60.1574,61.982,1,0,1.2501,,61.9821,62.9587,0,10,10,10,1,0,lejo,0,REAL,FALSA,,,,,,,,,,,,,,,,,
,,,,,,,,,5ba292385301b80001c71ba2,001,2024-06-30_08h01.02.310,empathy_intonation_perc,2024.1.4,Win32,20,62.9699,64.7383,1,0,1.1841,,64.7384,65.7476,0,11,11,11,1,0,pretantas,0,REAL,FALSA,,,,,,,,,,,,,,,,,
,,,,,,,,,5ba292385301b80001c71ba2,001,2024-06-30_08h01.02.310,empathy_intonation_perc,2024.1.4,Win32,20,,,,,,,,,,,,,,,,,,,65.7483,68.428,,,,,,,,,,,,,,,
,,,,,,,,,5ba292385301b80001c71ba2,001,2024-06-30_08h01.02.310,empathy_intonation_perc,2024.1.4,Win32,20,,,,,,,,,,,,,,148,gino,,,,,,68.4521,70.33,0,1,1.3013,,0,0,0,147,1,pseudoword,0,REAL,FALSA
,,,,,,,,,5ba292385301b80001c71ba2,001,2024-06-30_08h01.02.310,empathy_intonation_perc,2024.1.4,Win32,20,,,,,,,,,,,,,,10,drama,,,,,,70.3306,71.9731,1,0,1.0695,,0,1,1,9,1,three_way_cognate,1,REAL,FALSA
,,,,,,,,,5ba292385301b80001c71ba2,001,2024-06-30_08h01.02.310,empathy_intonation_perc,2024.1.4,Win32,20,,,,,,,,,,,,,,129,vinzó,,,,,,71.9738,73.5801,0,1,1.025,,0,2,2,128,1,pseudoword,0,REAL,FALSA
,,,,,,,,,5ba292385301b80001c71ba2,001,2024-06-30_08h01.02.310,empathy_intonation_perc,2024.1.4,Win32,20,,,,,,,,,,,,,,117,morrá,,,,,,73.5807,75.4412,0,1,1.288,,0,3,3,116,1,pseudoword,0,REAL,FALSA
,,,,,,,,,5ba292385301b80001c71ba2,001,2024-06-30_08h01.02.310,empathy_intonation_perc,2024.1.4,Win32,20,,,,,,,,,,,,,,180,pupica,,,,,,75.4418,76.9233,0,1,0.9148,,0,4,4,179,1,pseudoword,0,REAL,FALSA
,,,,,,,,,5ba292385301b80001c71ba2,001,2024-06-30_08h01.02.310,empathy_intonation_perc,2024.1.4,Win32,20,,,,,,,,,,,,,,104,estulo,,,,,,76.9237,78.6592,1,0,1.156,,0,5,5,103,1,pseudoword,0,REAL,FALSA
,,,,,,,,,5ba292385301b80001c71ba2,001,2024-06-30_08h01.02.310,empathy_intonation_perc,2024.1.4,Win32,20,,,,,,,,,,,,,,73,llevar,,,,,,78.6598,80.252,1,0,0.9996,,0,6,6,72,1,non_cognate,1,REAL,FALSA
,,,,,,,,,5ba292385301b80001c71ba2,001,2024-06-30_08h01.02.310,empathy_intonation_perc,2024.1.4,Win32,20,,,,,,,,,,,,,,99,bugor,,,,,,80.2524,81.7769,0,1,0.9699,,0,7,7,98,1,pseudoword,0,REAL,FALSA
,,,,,,,,,5ba292385301b80001c71ba2,001,2024-06-30_08h01.02.310,empathy_intonation_perc,2024.1.4,Win32,20,,,,,,,,,,,,,,23,plural,,,,,,81.7775,83.7164,1,0,1.3636,,0,8,8,22,1,three_way_cognate,1,REAL,FALSA
,,,,,,,,,5ba292385301b80001c71ba2,001,2024-06-30_08h01.02.310,empathy_intonation_perc,2024.1.4,Win32,20,,,,,,,,,,,,,,162,cengo,,,,,,83.717,85.428,0,1,1.1256,,0,9,9,161,1,pseudoword,0,REAL,FALSA
,,,,,,,,,5ba292385301b80001c71ba2,001,2024-06-30_08h01.02.310,empathy_intonation_perc,2024.1.4,Win32,20,,,,,,,,,,,,,,138,tator,,,,,,85.4285,86.9385,0,1,0.9362,,0,10,10,137,1,pseudoword,0,REAL,FALSA
,,,,,,,,,5ba292385301b80001c71ba2,001,2024-06-30_08h01.02.310,empathy_intonation_perc,2024.1.4,Win32,20,,,,,,,,,,,,,,108,jauda,,,,,,86.9392,88.4539,0,1,0.9284,,0,11,11,107,1,pseudoword,0,REAL,FALSA
,,,,,,,,,5ba292385301b80001c71ba2,001,2024-06-30_08h01.02.310,empathy_intonation_perc,2024.1.4,Win32,20,,,,,,,,,,,,,,177,entodo,,,,,,88.4547,89.8458,1,0,0.8187,,0,12,12,176,1,pseudoword,0,REAL,FALSA
,,,,,,,,,5ba292385301b80001c71ba2,001,2024-06-30_08h01.02.310,empathy_intonation_perc,2024.1.4,Win32,20,,,,,,,,,,,,,,70,ánimo,,,,,,89.8465,91.5613,1,0,1.1354,,0,13,13,69,1,non_cognate,1,REAL,FALSA
,,,,,,,,,5ba292385301b80001c71ba2,001,2024-06-30_08h01.02.310,empathy_intonation_perc,2024.1.4,Win32,20,,,,,,,,,,,,,,187,nomata,,,,,,91.5618,92.9242,0,1,0.7736,,0,14,14,186,1,pseudoword,0,REAL,FALSA
,,,,,,,,,5ba292385301b80001c71ba2,001,2024-06-30_08h01.02.310,empathy_intonation_perc,2024.1.4,Win32,20,,,,,,,,,,,,,,182,desaro,,,,,,92.9248,94.3254,1,0,0.8203,,0,15,15,181,1,pseudoword,0,REAL,FALSA
,,,,,,,,,5ba292385301b80001c71ba2,001,2024-06-30_08h01.02.310,empathy_intonation_perc,2024.1.4,Win32,20,,,,,,,,,,,,,,53,punta,,,,,,94.3259,95.8756,1,0,0.9752,,0,16,16,52,1,non_cognate,1,REAL,FALSA
,,,,,,,,,5ba292385301b80001c71ba2,001,2024-06-30_08h01.02.310,empathy_intonation_perc,2024.1.4,Win32,20,,,,,,,,,,,,,,87,muleta,,,,,,95.8763,97.723,0,1,1.2722,,0,17,17,86,1,non_cognate,1,REAL,FALSA
,,,,,,,,,5ba292385301b80001c71ba2,001,2024-06-30_08h01.02.310,empathy_intonation_perc,2024.1.4,Win32,20,,,,,,,,,,,,,,120,mauja,,,,,,97.7235,99.1712,0,1,0.8713,,0,18,18,119,1,pseudoword,0,REAL,FALSA
,,,,,,,,,5ba292385301b80001c71ba2,001,2024-06-30_08h01.02.310,empathy_intonation_perc,2024.1.4,Win32,20,,,,,,,,,,,,,,13,plan,,,,,,99.1718,100.534,1,0,0.7846,,0,19,19,12,1,three_way_cognate,1,REAL,FALSA
,,,,,,,,,5ba292385301b80001c71ba2,001,2024-06-30_08h01.02.310,empathy_intonation_perc,2024.1.4,Win32,20,,,,,,,,,,,,,,191,frasis,,,,,,100.5348,102.0254,0,1,0.9018,,0,20,20,190,1,pseudoword,0,REAL,FALSA
,,,,,,,,,5ba292385301b80001c71ba2,001,2024-06-30_08h01.02.310,empathy_intonation_perc,2024.1.4,Win32,20,,,,,,,,,,,,,,158,babrá,,,,,,102.026,103.5326,0,1,0.9335,,0,21,21,157,1,pseudoword,0,REAL,FALSA
,,,,,,,,,5ba292385301b80001c71ba2,001,2024-06-30_08h01.02.310,empathy_intonation_perc,2024.1.4,Win32,20,,,,,,,,,,,,,,62,pegar,,,,,,103.533,105.0935,0,1,0.9698,,0,22,22,61,1,non_cognate,1,REAL,FALSA
,,,,,,,,,5ba292385301b80001c71ba2,001,2024-06-30_08h01.02.310,empathy_intonation_perc,2024.1.4,Win32,20,,,,,,,,,,,,,,2,tumor,,,,,,105.094,106.6777,1,0,1.0056,,0,23,23,1,1,three_way_cognate,1,REAL,FALSA
,,,,,,,,,5ba292385301b80001c71ba2,001,2024-06-30_08h01.02.310,empathy_intonation_perc,2024.1.4,Win32,20,,,,,,,,,,,,,,95,listo,,,,,,106.6782,108.2933,0,1,1.0457,,0,24,24,94,1,non_cognate,1,REAL,FALSA
,,,,,,,,,5ba292385301b80001c71ba2,001,2024-06-30_08h01.02.310,empathy_intonation_perc,2024.1.4,Win32,20,,,,,,,,,,,,,,55,maldad,,,,,,108.2939,109.8263,1,0,0.9506,,0,25,25,54,1,non_cognate,1,REAL,FALSA
,,,,,,,,,5ba292385301b80001c71ba2,001,2024-06-30_08h01.02.310,empathy_intonation_perc,2024.1.4,Win32,20,,,,,,,,,,,,,,1,moral,,,,,,109.8269,111.2198,1,0,0.8211,,0,26,26,0,1,three_way_cognate,1,REAL,FALSA
,,,,,,,,,5ba292385301b80001c71ba2,001,2024-06-30_08h01.02.310,empathy_intonation_perc,2024.1.4,Win32,20,,,,,,,,,,,,,,19,mafia,,,,,,111.2203,112.7026,1,0,0.9013,,0,27,27,18,1,three_way_cognate,1,REAL,FALSA
,,,,,,,,,5ba292385301b80001c71ba2,001,2024-06-30_08h01.02.310,empathy_intonation_perc,2024.1.4,Win32,20,,,,,,,,,,,,,,171,gotro,,,,,,112.7032,114.0912,0,1,0.8186,,0,28,28,170,1,pseudoword,0,REAL,FALSA
,,,,,,,,,5ba292385301b80001c71ba2,001,2024-06-30_08h01.02.310,empathy_intonation_perc,2024.1.4,Win32,20,,,,,,,,,,,,,,26,enigma,,,,,,114.0918,115.6029,1,0,0.9314,,0,29,29,25,1,two_way_cognate,1,REAL,FALSA
,,,,,,,,,5ba292385301b80001c71ba2,001,2024-06-30_08h01.02.310,empathy_intonation_perc,2024.1.4,Win32,20,,,,,,,,,,,,,,123,arane,,,,,,115.6035,117.028,0,1,0.8572,,0,30,30,122,1,pseudoword,0,REAL,FALSA
,,,,,,,,,5ba292385301b80001c71ba2,001,2024-06-30_08h01.02.310,empathy_intonation_perc,2024.1.4,Win32,20,,,,,,,,,,,,,,18,altar,,,,,,117.0286,118.3332,1,0,0.7374,,0,31,31,17,1,three_way_cognate,1,REAL,FALSA
,,,,,,,,,5ba292385301b80001c71ba2,001,2024-06-30_08h01.02.310,empathy_intonation_perc,2024.1.4,Win32,20,,,,,,,,,,,,,,44,editor,,,,,,118.3338,119.6732,1,0,0.7522,,0,32,32,43,1,two_way_cognate,1,REAL,FALSA
,,,,,,,,,5ba292385301b80001c71ba2,001,2024-06-30_08h01.02.310,empathy_intonation_perc,2024.1.4,Win32,20,,,,,,,,,,,,,,15,test,,,,,,119.6738,120.943,1,0,0.6959,,0,33,33,14,1,three_way_cognate,1,REAL,FALSA
,,,,,,,,,5ba292385301b80001c71ba2,001,2024-06-30_08h01.02.310,empathy_intonation_perc,2024.1.4,Win32,20,,,,,,,,,,,,,,111,monue,,,,,,120.9436,122.3449,0,1,0.8205,,0,34,34,110,1,pseudoword,0,REAL,FALSA
,,,,,,,,,5ba292385301b80001c71ba2,001,2024-06-30_08h01.02.310,empathy_intonation_perc,2024.1.4,Win32,20,,,,,,,,,,,,,,127,vien,,,,,,122.3455,123.8901,1,0,0.9696,,0,35,35,126,1,pseudoword,0,REAL,FALSA
,,,,,,,,,5ba292385301b80001c71ba2,001,2024-06-30_08h01.02.310,empathy_intonation_perc,2024.1.4,Win32,20,,,,,,,,,,,,,,31,civil,,,,,,123.8907,125.2169,1,0,0.7459,,0,36,36,30,1,two_way_cognate,1,REAL,FALSA
,,,,,,,,,5ba292385301b80001c71ba2,001,2024-06-30_08h01.02.310,empathy_intonation_perc,2024.1.4,Win32,20,,,,,,,,,,,,,,22,mango,,,,,,125.2175,126.6617,1,0,0.8625,,0,37,37,21,1,three_way_cognate,1,REAL,FALSA
,,,,,,,,,5ba292385301b80001c71ba2,001,2024-06-30_08h01.02.310,empathy_intonation_perc,2024.1.4,Win32,20,,,,,,,,,,,,,,140,chorde,,,,,,126.6623,127.965,1,0,0.7547,,0,38,38,139,1,pseudoword,0,REAL,FALSA
,,,,,,,,,5ba292385301b80001c71ba2,001,2024-06-30_08h01.02.310,empathy_intonation_perc,2024.1.4,Win32,20,,,,,,,,,,,,,,151,prías,,,,,,127.9655,129.2424,0,1,0.6976,,0,39,39,150,1,pseudoword,0,REAL,FALSA
,,,,,,,,,5ba292385301b80001c71ba2,001,2024-06-30_08h01.02.310,empathy_intonation_perc,2024.1.4,Win32,20,,,,,,,,,,,,,,29,clamor,,,,,,129.243,130.4392,0,1,0.6169,,0,40,40,28,1,two_way_cognate,1,REAL,FALSA
,,,,,,,,,5ba292385301b80001c71ba2,001,2024-06-30_08h01.02.310,empathy_intonation_perc,2024.1.4,Win32,20,,,,,,,,,,,,,,157,seled,,,,,,130.4398,131.6744,0,1,0.6544,,0,41,41,156,1,pseudoword,0,REAL,FALSA
,,,,,,,,,5ba292385301b80001c71ba2,001,2024-06-30_08h01.02.310,empathy_intonation_perc,2024.1.4,Win32,20,,,,,,,,,,,,,,114,dibrea,,,,,,131.6753,132.9057,0,1,0.6621,,0,42,42,113,1,pseudoword,0,REAL,FALSA
,,,,,,,,,5ba292385301b80001c71ba2,001,2024-06-30_08h01.02.310,empathy_intonation_perc,2024.1.4,Win32,20,,,,,,,,,,,,,,28,ardor,,,,,,132.9063,134.3489,0,1,0.8546,,0,43,43,27,1,two_way_cognate,1,REAL,FALSA
,,,,,,,,,5ba292385301b80001c71ba2,001,2024-06-30_08h01.02.310,empathy_intonation_perc,2024.1.4,Win32,20,,,,,,,,,,,,,,176,gripar,,,,,,134.3495,135.5418,0,1,0.6224,,0,44,44,175,1,pseudoword,0,REAL,FALSA
,,,,,,,,,5ba292385301b80001c71ba2,001,2024-06-30_08h01.02.310,empathy_intonation_perc,2024.1.4,Win32,20,,,,,,,,,,,,,,188,amplir,,,,,,135.5423,136.8135,0,1,0.6945,,0,45,45,187,1,pseudoword,0,REAL,FALSA
,,,,,,,,,5ba292385301b80001c71ba2,001,2024-06-30_08h01.02.310,empathy_intonation_perc,2024.1.4,Win32,20,,,,,,,,,,,,,,27,piano,,,,,,136.8142,138.0195,1,0,0.6262,,0,46,46,26,1,two_way_cognate,1,REAL,FALSA
,,,,,,,,,5ba292385301b80001c71ba2,001,2024-06-30_08h01.02.310,empathy_intonation_perc,2024.1.4,Win32,20,,,,,,,,,,,,,,174,pabea,,,,,,138.0204,139.218,0,1,0.625,,0,47,47,173,1,pseudoword,0,REAL,FALSA
,,,,,,,,,5ba292385301b80001c71ba2,001,2024-06-30_08h01.02.310,empathy_intonation_perc,2024.1.4,Win32,20,,,,,,,,,,,,,,54,tapón,,,,,,139.2191,140.5284,0,1,0.7307,,0,48,48,53,1,non_cognate,1,REAL,FALSA
,,,,,,,,,5ba292385301b80001c71ba2,001,2024-06-30_08h01.02.310,empathy_intonation_perc,2024.1.4,Win32,20,,,,,,,,,,,,,,63,hilo,,,,,,140.5291,141.8922,0,1,0.7747,,0,49,49,62,1,non_cognate,1,REAL,FALSA
,,,,,,,,,5ba292385301b80001c71ba2,001,2024-06-30_08h01.02.310,empathy_intonation_perc,2024.1.4,Win32,20,,,,,,,,,,,,,,159,trcia,,,,,,141.8928,143.1351,0,1,0.6662,,0,50,50,158,1,pseudoword,0,REAL,FALSA
,,,,,,,,,5ba292385301b80001c71ba2,001,2024-06-30_08h01.02.310,empathy_intonation_perc,2024.1.4,Win32,20,,,,,,,,,,,,,,71,torta,,,,,,143.1357,144.4762,1,0,0.7842,,0,51,51,70,1,non_cognate,1,REAL,FALSA
,,,,,,,,,5ba292385301b80001c71ba2,001,2024-06-30_08h01.02.310,empathy_intonation_perc,2024.1.4,Win32,20,,,,,,,,,,,,,,60,siglo,,,,,,144.4768,145.7987,0,1,0.7561,,0,52,52,59,1,non_cognate,1,REAL,FALSA
,,,,,,,,,5ba292385301b80001c71ba2,001,2024-06-30_08h01.02.310,empathy_intonation_perc,2024.1.4,Win32,20,,,,,,,,,,,,,,100,épinas,,,,,,145.7995,147.3757,0,1,1.0089,,0,53,53,99,1,pseudoword,0,REAL,FALSA
,,,,,,,,,5ba292385301b80001c71ba2,001,2024-06-30_08h01.02.310,empathy_intonation_perc,2024.1.4,Win32,20,,,,,,,,,,,,,,66,aleta,,,,,,147.3762,148.6626,0,1,0.6954,,0,54,54,65,1,non_cognate,1,REAL,FALSA
,,,,,,,,,5ba292385301b80001c71ba2,001,2024-06-30_08h01.02.310,empathy_intonation_perc,2024.1.4,Win32,20,,,,,,,,,,,,,,38,halo,,,,,,148.6631,150.0229,0,1,0.7821,,0,55,55,37,1,two_way_cognate,1,REAL,FALSA
,,,,,,,,,5ba292385301b80001c71ba2,001,2024-06-30_08h01.02.310,empathy_intonation_perc,2024.1.4,Win32,20,,,,,,,,,,,,,,181,gravés,,,,,,150.0236,151.3284,0,1,0.737,,0,56,56,180,1,pseudoword,0,REAL,FALSA
,,,,,,,,,5ba292385301b80001c71ba2,001,2024-06-30_08h01.02.310,empathy_intonation_perc,2024.1.4,Win32,20,,,,,,,,,,,,,,77,suave,,,,,,151.329,152.4556,0,1,0.539,,0,57,57,76,1,non_cognate,1,REAL,FALSA
,,,,,,,,,5ba292385301b80001c71ba2,001,2024-06-30_08h01.02.310,empathy_intonation_perc,2024.1.4,Win32,20,,,,,,,,,,,,,,130,dubo,,,,,,152.4562,153.6392,0,1,0.6222,,0,58,58,129,1,pseudoword,0,REAL,FALSA
,,,,,,,,,5ba292385301b80001c71ba2,001,2024-06-30_08h01.02.310,empathy_intonation_perc,2024.1.4,Win32,20,,,,,,,,,,,,,,131,fuar,,,,,,153.6399,154.8383,0,1,0.6211,,0,59,59,130,1,pseudoword,0,REAL,FALSA
,,,,,,,,,5ba292385301b80001c71ba2,001,2024-06-30_08h01.02.310,empathy_intonation_perc,2024.1.4,Win32,20,,,,,,,,,,,,,,81,sacar,,,,,,154.8388,156.0002,0,1,0.5838,,0,60,60,80,1,non_cognate,1,REAL,FALSA
,,,,,,,,,5ba292385301b80001c71ba2,001,2024-06-30_08h01.02.310,empathy_intonation_perc,2024.1.4,Win32,20,,,,,,,,,,,,,,136,hueas,,,,,,156.001,157.6102,0,1,1.0448,,0,61,61,135,1,pseudoword,0,REAL,FALSA
,,,,,,,,,5ba292385301b80001c71ba2,001,2024-06-30_08h01.02.310,empathy_intonation_perc,2024.1.4,Win32,20,,,,,,,,,,,,,,69,tiza,,,,,,157.6108,158.8481,0,1,0.6577,,0,62,62,68,1,non_cognate,1,REAL,FALSA
,,,,,,,,,5ba292385301b80001c71ba2,001,2024-06-30_08h01.02.310,empathy_intonation_perc,2024.1.4,Win32,20,,,,,,,,,,,,,,165,chote,,,,,,158.8486,160.063,0,1,0.6224,,0,63,63,164,1,pseudoword,0,REAL,FALSA
,,,,,,,,,5ba292385301b80001c71ba2,001,2024-06-30_08h01.02.310,empathy_intonation_perc,2024.1.4,Win32,20,,,,,,,,,,,,,,88,percha,,,,,,160.0636,161.5425,1,0,0.9291,,0,64,64,87,1,non_cognate,1,REAL,FALSA
,,,,,,,,,5ba292385301b80001c71ba2,001,2024-06-30_08h01.02.310,empathy_intonation_perc,2024.1.4,Win32,20,,,,,,,,,,,,,,152,prave,,,,,,161.5434,162.8137,0,1,0.6987,,0,65,65,151,1,pseudoword,0,REAL,FALSA
,,,,,,,,,5ba292385301b80001c71ba2,001,2024-06-30_08h01.02.310,empathy_intonation_perc,2024.1.4,Win32,20,,,,,,,,,,,,,,24,retina,,,,,,162.8142,163.9954,0,1,0.5814,,0,66,66,23,1,three_way_cognate,1,REAL,FALSA
,,,,,,,,,5ba292385301b80001c71ba2,001,2024-06-30_08h01.02.310,empathy_intonation_perc,2024.1.4,Win32,20,,,,,,,,,,,,,,133,conso,,,,,,163.996,165.2006,0,1,0.6379,,0,67,67,132,1,pseudoword,0,REAL,FALSA
,,,,,,,,,5ba292385301b80001c71ba2,001,2024-06-30_08h01.02.310,empathy_intonation_perc,2024.1.4,Win32,20,,,,,,,,,,,,,,52,blando,,,,,,165.2013,166.7982,0,1,1.0062,,0,68,68,51,1,non_cognate,1,REAL,FALSA
,,,,,,,,,5ba292385301b80001c71ba2,001,2024-06-30_08h01.02.310,empathy_intonation_perc,2024.1.4,Win32,20,,,,,,,,,,,,,,125,ceme,,,,,,166.799,168.0467,0,1,0.6586,,0,69,69,124,1,pseudoword,0,REAL,FALSA
,,,,,,,,,5ba292385301b80001c71ba2,001,2024-06-30_08h01.02.310,empathy_intonation_perc,2024.1.4,Win32,20,,,,,,,,,,,,,,101,losco,,,,,,168.0472,169.1833,0,1,0.5436,,0,70,70,100,1,pseudoword,0,REAL,FALSA
,,,,,,,,,5ba292385301b80001c71ba2,001,2024-06-30_08h01.02.310,empathy_intonation_perc,2024.1.4,Win32,20,,,,,,,,,,,,,,124,lobe,,,,,,169.1838,170.2693,0,1,0.5056,,0,71,71,123,1,pseudoword,0,REAL,FALSA
,,,,,,,,,5ba292385301b80001c71ba2,001,2024-06-30_08h01.02.310,empathy_intonation_perc,2024.1.4,Win32,20,,,,,,,,,,,,,,153,golla,,,,,,170.2699,171.5324,0,1,0.6942,,0,72,72,152,1,pseudoword,0,REAL,FALSA
,,,,,,,,,5ba292385301b80001c71ba2,001,2024-06-30_08h01.02.310,empathy_intonation_perc,2024.1.4,Win32,20,,,,,,,,,,,,,,103,vueras,,,,,,171.533,172.5752,0,1,0.4989,,0,73,73,102,1,pseudoword,0,REAL,FALSA
,,,,,,,,,5ba292385301b80001c71ba2,001,2024-06-30_08h01.02.310,empathy_intonation_perc,2024.1.4,Win32,20,,,,,,,,,,,,,,150,cricó,,,,,,172.576,173.6683,0,1,0.5071,,0,74,74,149,1,pseudoword,0,REAL,FALSA
,,,,,,,,,5ba292385301b80001c71ba2,001,2024-06-30_08h01.02.310,empathy_intonation_perc,2024.1.4,Win32,20,,,,,,,,,,,,,,89,muñeca,,,,,,173.6688,174.8305,0,1,0.5928,,0,75,75,88,1,non_cognate,1,REAL,FALSA
,,,,,,,,,5ba292385301b80001c71ba2,001,2024-06-30_08h01.02.310,empathy_intonation_perc,2024.1.4,Win32,20,,,,,,,,,,,,,,92,flecha,,,,,,174.831,175.998,0,1,0.6099,,0,76,76,91,1,non_cognate,1,REAL,FALSA
,,,,,,,,,5ba292385301b80001c71ba2,001,2024-06-30_08h01.02.310,empathy_intonation_perc,2024.1.4,Win32,20,,,,,,,,,,,,,,42,rumor,,,,,,175.9986,177.4595,1,0,0.8716,,0,77,77,41,1,two_way_cognate,1,REAL,FALSA
,,,,,,,,,5ba292385301b80001c71ba2,001,2024-06-30_08h01.02.310,empathy_intonation_perc,2024.1.4,Win32,20,,,,,,,,,,,,,,185,aljizo,,,,,,177.46,178.5895,0,1,0.5525,,0,78,78,184,1,pseudoword,0,REAL,FALSA
,,,,,,,,,5ba292385301b80001c71ba2,001,2024-06-30_08h01.02.310,empathy_intonation_perc,2024.1.4,Win32,20,,,,,,,,,,,,,,41,pasta,,,,,,178.5901,179.8079,1,0,0.6204,,0,79,79,40,1,two_way_cognate,1,REAL,FALSA
,,,,,,,,,5ba292385301b80001c71ba2,001,2024-06-30_08h01.02.310,empathy_intonation_perc,2024.1.4,Win32,20,,,,,,,,,,,,,,35,aurora,,,,,,179.8086,181.2595,1,0,0.8717,,0,80,80,34,1,two_way_cognate,1,REAL,FALSA
,,,,,,,,,5ba292385301b80001c71ba2,001,2024-06-30_08h01.02.310,empathy_intonation_perc,2024.1.4,Win32,20,,,,,,,,,,,,,,143,hurcos,,,,,,181.2601,182.6476,0,1,0.8109,,0,81,81,142,1,pseudoword,0,REAL,FALSA
,,,,,,,,,5ba292385301b80001c71ba2,001,2024-06-30_08h01.02.310,empathy_intonation_perc,2024.1.4,Win32,20,,,,,,,,,,,,,,20,trauma,,,,,,182.6482,183.9761,1,0,0.7388,,0,82,82,19,1,three_way_cognate,1,REAL,FALSA
,,,,,,,,,5ba292385301b80001c71ba2,001,2024-06-30_08h01.02.310,empathy_intonation_perc,2024.1.4,Win32,20,,,,,,,,,,,,,,7,albino,,,,,,183.9766,185.3001,1,0,0.7389,,0,83,83,6,1,three_way_cognate,1,REAL,FALSA
,,,,,,,,,5ba292385301b80001c71ba2,001,2024-06-30_08h01.02.310,empathy_intonation_perc,2024.1.4,Win32,20,,,,,,,,,,,,,,80,cuenco,,,,,,185.3007,186.3989,0,1,0.5129,,0,84,84,79,1,non_cognate,1,REAL,FALSA
,,,,,,,,,5ba292385301b80001c71ba2,001,2024-06-30_08h01.02.310,empathy_intonation_perc,2024.1.4,Win32,20,,,,,,,,,,,,,,105,leniz,,,,,,186.3994,187.6029,0,1,0.6168,,0,85,85,104,1,pseudoword,0,REAL,FALSA
,,,,,,,,,5ba292385301b80001c71ba2,001,2024-06-30_08h01.02.310,empathy_intonation_perc,2024.1.4,Win32,20,,,,,,,,,,,,,,43,honor,,,,,,187.6034,188.8098,1,0,0.6235,,0,86,86,42,1,two_way_cognate,1,REAL,FALSA
,,,,,,,,,5ba292385301b80001c71ba2,001,2024-06-30_08h01.02.310,empathy_intonation_perc,2024.1.4,Win32,20,,,,,,,,,,,,,,169,pitis,,,,,,188.8103,190.1235,0,1,0.738,,0,87,87,168,1,pseudoword,0,REAL,FALSA
,,,,,,,,,5ba292385301b80001c71ba2,001,2024-06-30_08h01.02.310,empathy_intonation_perc,2024.1.4,Win32,20,,,,,,,,,,,,,,170,diabo,,,,,,190.124,191.3804,1,0,0.6702,,0,88,88,169,1,pseudoword,0,REAL,FALSA
,,,,,,,,,5ba292385301b80001c71ba2,001,2024-06-30_08h01.02.310,empathy_intonation_perc,2024.1.4,Win32,20,,,,,,,,,,,,,,85,enorme,,,,,,191.3809,192.4617,0,1,0.5019,,0,89,89,84,1,non_cognate,1,REAL,FALSA
,,,,,,,,,5ba292385301b80001c71ba2,001,2024-06-30_08h01.02.310,empathy_intonation_perc,2024.1.4,Win32,20,,,,,,,,,,,,,,47,color,,,,,,192.4622,193.6369,1,0,0.5774,,0,90,90,46,1,two_way_cognate,1,REAL,FALSA
,,,,,,,,,5ba292385301b80001c71ba2,001,2024-06-30_08h01.02.310,empathy_intonation_perc,2024.1.4,Win32,20,,,,,,,,,,,,,,30,fiscal,,,,,,193.6375,194.9581,1,0,0.7489,,0,91,91,29,1,two_way_cognate,1,REAL,FALSA
,,,,,,,,,5ba292385301b80001c71ba2,001,2024-06-30_08h01.02.310,empathy_intonation_perc,2024.1.4,Win32,20,,,,,,,,,,,,,,79,suelo,,,,,,194.9586,196.0578,0,1,0.5485,,0,92,92,78,1,non_cognate,1,REAL,FALSA
,,,,,,,,,5ba292385301b80001c71ba2,001,2024-06-30_08h01.02.310,empathy_intonation_perc,2024.1.4,Win32,20,,,,,,,,,,,,,,163,olzan,,,,,,196.0585,197.2927,0,1,0.6593,,0,93,93,162,1,pseudoword,0,REAL,FALSA
,,,,,,,,,5ba292385301b80001c71ba2,001,2024-06-30_08h01.02.310,empathy_intonation_perc,2024.1.4,Win32,20,,,,,,,,,,,,,,102,coyo,,,,,,197.2932,198.5758,0,1,0.6917,,0,94,94,101,1,pseudoword,0,REAL,FALSA
,,,,,,,,,5ba292385301b80001c71ba2,001,2024-06-30_08h01.02.310,empathy_intonation_perc,2024.1.4,Win32,20,,,,,,,,,,,,,,155,kugis,,,,,,198.5765,199.7433,0,1,0.5851,,0,95,95,154,1,pseudoword,0,REAL,FALSA
,,,,,,,,,5ba292385301b80001c71ba2,001,2024-06-30_08h01.02.310,empathy_intonation_perc,2024.1.4,Win32,20,,,,,,,,,,,,,,59,feo,,,,,,199.744,200.9543,0,1,0.6202,,0,96,96,58,1,non_cognate,1,REAL,FALSA
,,,,,,,,,5ba292385301b80001c71ba2,001,2024-06-30_08h01.02.310,empathy_intonation_perc,2024.1.4,Win32,20,,,,,,,,,,,,,,91,equipo,,,,,,200.9548,202.2316,1,0,0.6981,,0,97,97,90,1,non_cognate,1,REAL,FALSA
,,,,,,,,,5ba292385301b80001c71ba2,001,2024-06-30_08h01.02.310,empathy_intonation_perc,2024.1.4,Win32,20,,,,,,,,,,,,,,11,golf,,,,,,202.2321,203.3292,1,0,0.518,,0,98,98,10,1,three_way_cognate,1,REAL,FALSA
,,,,,,,,,5ba292385301b80001c71ba2,001,2024-06-30_08h01.02.310,empathy_intonation_perc,2024.1.4,Win32,20,,,,,,,,,,,,,,164,tecia,,,,,,203.3298,204.4495,0,1,0.5418,,0,99,99,163,1,pseudoword,0,REAL,FALSA
,,,,,,,,,5ba292385301b80001c71ba2,001,2024-06-30_08h01.02.310,empathy_intonation_perc,2024.1.4,Win32,20,,,,,,,,,,,,,,126,tobre,,,,,,204.45,205.7711,0,1,0.7391,,0,100,100,125,1,pseudoword,0,REAL,FALSA
,,,,,,,,,5ba292385301b80001c71ba2,001,2024-06-30_08h01.02.310,empathy_intonation_perc,2024.1.4,Win32,20,,,,,,,,,,,,,,64,rizado,,,,,,205.7717,206.9539,0,1,0.5966,,0,101,101,63,1,non_cognate,1,REAL,FALSA
,,,,,,,,,5ba292385301b80001c71ba2,001,2024-06-30_08h01.02.310,empathy_intonation_perc,2024.1.4,Win32,20,,,,,,,,,,,,,,190,asumie,,,,,,206.9544,208.1524,0,1,0.6198,,0,102,102,189,1,pseudoword,0,REAL,FALSA
,,,,,,,,,5ba292385301b80001c71ba2,001,2024-06-30_08h01.02.310,empathy_intonation_perc,2024.1.4,Win32,20,,,,,,,,,,,,,,106,diebro,,,,,,208.1529,209.3959,0,1,0.6638,,0,103,103,105,1,pseudoword,0,REAL,FALSA
,,,,,,,,,5ba292385301b80001c71ba2,001,2024-06-30_08h01.02.310,empathy_intonation_perc,2024.1.4,Win32,20,,,,,,,,,,,,,,122,boñaz,,,,,,209.3966,210.7298,1,0,0.7472,,0,104,104,121,1,pseudoword,0,REAL,FALSA
,,,,,,,,,5ba292385301b80001c71ba2,001,2024-06-30_08h01.02.310,empathy_intonation_perc,2024.1.4,Win32,20,,,,,,,,,,,,,,98,martir,,,,,,210.7302,212.0739,0,1,0.7424,,0,105,105,97,1,pseudoword,0,REAL,FALSA
,,,,,,,,,5ba292385301b80001c71ba2,001,2024-06-30_08h01.02.310,empathy_intonation_perc,2024.1.4,Win32,20,,,,,,,,,,,,,,14,aura,,,,,,212.0745,213.5139,1,0,0.858,,0,106,106,13,1,three_way_cognate,1,REAL,FALSA
,,,,,,,,,5ba292385301b80001c71ba2,001,2024-06-30_08h01.02.310,empathy_intonation_perc,2024.1.4,Win32,20,,,,,,,,,,,,,,189,medium,,,,,,213.5144,214.7806,1,0,0.6989,,0,107,107,188,1,pseudoword,0,REAL,FALSA
,,,,,,,,,5ba292385301b80001c71ba2,001,2024-06-30_08h01.02.310,empathy_intonation_perc,2024.1.4,Win32,20,,,,,,,,,,,,,,166,anfia,,,,,,214.7812,215.9517,0,1,0.5957,,0,108,108,165,1,pseudoword,0,REAL,FALSA
,,,,,,,,,5ba292385301b80001c71ba2,001,2024-06-30_08h01.02.310,empathy_intonation_perc,2024.1.4,Win32,20,,,,,,,,,,,,,,154,harvé,,,,,,215.9523,217.1883,0,1,0.6578,,0,109,109,153,1,pseudoword,0,REAL,FALSA
,,,,,,,,,5ba292385301b80001c71ba2,001,2024-06-30_08h01.02.310,empathy_intonation_perc,2024.1.4,Win32,20,,,,,,,,,,,,,,86,cuenco,,,,,,217.1889,218.2904,0,1,0.5079,,0,110,110,85,1,non_cognate,1,REAL,FALSA
,,,,,,,,,5ba292385301b80001c71ba2,001,2024-06-30_08h01.02.310,empathy_intonation_perc,2024.1.4,Win32,20,,,,,,,,,,,,,,135,panté,,,,,,218.2914,219.5546,1,0,0.6987,,0,111,111,134,1,pseudoword,0,REAL,FALSA
,,,,,,,,,5ba292385301b80001c71ba2,001,2024-06-30_08h01.02.310,empathy_intonation_perc,2024.1.4,Win32,20,,,,,,,,,,,,,,45,total,,,,,,219.5553,220.8181,1,0,0.6893,,0,112,112,44,1,two_way_cognate,1,REAL,FALSA
,,,,,,,,,5ba292385301b80001c71ba2,001,2024-06-30_08h01.02.310,empathy_intonation_perc,2024.1.4,Win32,20,,,,,,,,,,,,,,139,sasos,,,,,,220.8187,222.0309,0,1,0.6255,,0,113,113,138,1,pseudoword,0,REAL,FALSA
,,,,,,,,,5ba292385301b80001c71ba2,001,2024-06-30_08h01.02.310,empathy_intonation_perc,2024.1.4,Win32,20,,,,,,,,,,,,,,94,forro,,,,,,222.0315,223.1585,0,1,0.554,,0,114,114,93,1,non_cognate,1,REAL,FALSA
,,,,,,,,,5ba292385301b80001c71ba2,001,2024-06-30_08h01.02.310,empathy_intonation_perc,2024.1.4,Win32,20,,,,,,,,,,,,,,75,patada,,,,,,223.1592,224.4688,1,0,0.7389,,0,115,115,74,1,non_cognate,1,REAL,FALSA
,,,,,,,,,5ba292385301b80001c71ba2,001,2024-06-30_08h01.02.310,empathy_intonation_perc,2024.1.4,Win32,20,,,,,,,,,,,,,,144,diroco,,,,,,224.4694,225.5564,0,1,0.5019,,0,116,116,143,1,pseudoword,0,REAL,FALSA
,,,,,,,,,5ba292385301b80001c71ba2,001,2024-06-30_08h01.02.310,empathy_intonation_perc,2024.1.4,Win32,20,,,,,,,,,,,,,,179,suelet,,,,,,225.5571,226.636,0,1,0.507,,0,117,117,178,1,pseudoword,0,REAL,FALSA
,,,,,,,,,5ba292385301b80001c71ba2,001,2024-06-30_08h01.02.310,empathy_intonation_perc,2024.1.4,Win32,20,,,,,,,,,,,,,,17,clan,,,,,,226.6367,227.7296,0,1,0.5008,,0,118,118,16,1,three_way_cognate,1,REAL,FALSA
,,,,,,,,,5ba292385301b80001c71ba2,001,2024-06-30_08h01.02.310,empathy_intonation_perc,2024.1.4,Win32,20,,,,,,,,,,,,,,8,kilo,,,,,,227.7302,228.8067,0,1,0.5029,,0,119,119,7,1,three_way_cognate,1,REAL,FALSA
,,,,,,,,,5ba292385301b80001c71ba2,001,2024-06-30_08h01.02.310,empathy_intonation_perc,2024.1.4,Win32,20,,,,,,,,,,,,,,147,alla,,,,,,228.8072,229.9804,0,1,0.5966,,0,120,120,146,1,pseudoword,0,REAL,FALSA
,,,,,,,,,5ba292385301b80001c71ba2,001,2024-06-30_08h01.02.310,empathy_intonation_perc,2024.1.4,Win32,20,,,,,,,,,,,,,,156,ozoso,,,,,,229.981,231.0775,0,1,0.5247,,0,121,121,155,1,pseudoword,0,REAL,FALSA
,,,,,,,,,5ba292385301b80001c71ba2,001,2024-06-30_08h01.02.310,empathy_intonation_perc,2024.1.4,Win32,20,,,,,,,,,,,,,,132,nocó,,,,,,231.0778,232.1775,0,1,0.524,,0,122,122,131,1,pseudoword,0,REAL,FALSA
,,,,,,,,,5ba292385301b80001c71ba2,001,2024-06-30_08h01.02.310,empathy_intonation_perc,2024.1.4,Win32,20,,,,,,,,,,,,,,96,caro,,,,,,232.1781,233.3747,0,1,0.6205,,0,123,123,95,1,non_cognate,1,REAL,FALSA
,,,,,,,,,5ba292385301b80001c71ba2,001,2024-06-30_08h01.02.310,empathy_intonation_perc,2024.1.4,Win32,20,,,,,,,,,,,,,,37,torso,,,,,,233.3752,234.4576,0,1,0.5042,,0,124,124,36,1,two_way_cognate,1,REAL,FALSA
,,,,,,,,,5ba292385301b80001c71ba2,001,2024-06-30_08h01.02.310,empathy_intonation_perc,2024.1.4,Win32,20,,,,,,,,,,,,,,49,teñir,,,,,,234.4583,235.6038,0,1,0.5772,,0,125,125,48,1,non_cognate,1,REAL,FALSA
,,,,,,,,,5ba292385301b80001c71ba2,001,2024-06-30_08h01.02.310,empathy_intonation_perc,2024.1.4,Win32,20,,,,,,,,,,,,,,12,dogma,,,,,,235.6043,236.9952,1,0,0.8186,,0,126,126,11,1,three_way_cognate,1,REAL,FALSA
,,,,,,,,,5ba292385301b80001c71ba2,001,2024-06-30_08h01.02.310,empathy_intonation_perc,2024.1.4,Win32,20,,,,,,,,,,,,,,107,plago,,,,,,236.996,238.1232,0,1,0.5452,,0,127,127,106,1,pseudoword,0,REAL,FALSA
,,,,,,,,,5ba292385301b80001c71ba2,001,2024-06-30_08h01.02.310,empathy_intonation_perc,2024.1.4,Win32,20,,,,,,,,,,,,,,48,pelvis,,,,,,238.1238,239.5535,1,0,0.8513,,0,128,128,47,1,two_way_cognate,1,REAL,FALSA
,,,,,,,,,5ba292385301b80001c71ba2,001,2024-06-30_08h01.02.310,empathy_intonation_perc,2024.1.4,Win32,20,,,,,,,,,,,,,,178,inichó,,,,,,239.5543,240.9406,0,1,0.813,,0,129,129,177,1,pseudoword,0,REAL,FALSA
,,,,,,,,,5ba292385301b80001c71ba2,001,2024-06-30_08h01.02.310,empathy_intonation_perc,2024.1.4,Win32,20,,,,,,,,,,,,,,184,huenos,,,,,,240.9412,242.1914,1,0,0.6638,,0,130,130,183,1,pseudoword,0,REAL,FALSA
,,,,,,,,,5ba292385301b80001c71ba2,001,2024-06-30_08h01.02.310,empathy_intonation_perc,2024.1.4,Win32,20,,,,,,,,,,,,,,78,rendir,,,,,,242.1919,243.3757,0,1,0.5988,,0,131,131,77,1,non_cognate,1,REAL,FALSA
,,,,,,,,,5ba292385301b80001c71ba2,001,2024-06-30_08h01.02.310,empathy_intonation_perc,2024.1.4,Win32,20,,,,,,,,,,,,,,121,barbs,,,,,,243.3761,244.6156,1,0,0.6641,,0,132,132,120,1,pseudoword,0,REAL,FALSA
,,,,,,,,,5ba292385301b80001c71ba2,001,2024-06-30_08h01.02.310,empathy_intonation_perc,2024.1.4,Win32,20,,,,,,,,,,,,,,33,collar,,,,,,244.6164,245.8479,1,0,0.6446,,0,133,133,32,1,two_way_cognate,1,REAL,FALSA
,,,,,,,,,5ba292385301b80001c71ba2,001,2024-06-30_08h01.02.310,empathy_intonation_perc,2024.1.4,Win32,20,,,,,,,,,,,,,,172,dogue,,,,,,245.8486,247.0968,0,1,0.6699,,0,134,134,171,1,pseudoword,0,REAL,FALSA
,,,,,,,,,5ba292385301b80001c71ba2,001,2024-06-30_08h01.02.310,empathy_intonation_perc,2024.1.4,Win32,20,,,,,,,,,,,,,,97,nocita,,,,,,247.0974,248.6597,0,1,0.9841,,0,135,135,96,1,pseudoword,0,REAL,FALSA
,,,,,,,,,5ba292385301b80001c71ba2,001,2024-06-30_08h01.02.310,empathy_intonation_perc,2024.1.4,Win32,20,,,,,,,,,,,,,,56,pico,,,,,,248.6603,249.9091,0,1,0.6591,,0,136,136,55,1,non_cognate,1,REAL,FALSA
,,,,,,,,,5ba292385301b80001c71ba2,001,2024-06-30_08h01.02.310,empathy_intonation_perc,2024.1.4,Win32,20,,,,,,,,,,,,,,4,flora,,,,,,249.9097,251.1611,1,0,0.6601,,0,137,137,3,1,three_way_cognate,1,REAL,FALSA
,,,,,,,,,5ba292385301b80001c71ba2,001,2024-06-30_08h01.02.310,empathy_intonation_perc,2024.1.4,Win32,20,,,,,,,,,,,,,,110,densó,,,,,,251.1617,252.5438,1,0,0.8184,,0,138,138,109,1,pseudoword,0,REAL,FALSA
,,,,,,,,,5ba292385301b80001c71ba2,001,2024-06-30_08h01.02.310,empathy_intonation_perc,2024.1.4,Win32,20,,,,,,,,,,,,,,58,colcha,,,,,,252.5442,253.7837,0,1,0.6589,,0,139,139,57,1,non_cognate,1,REAL,FALSA
,,,,,,,,,5ba292385301b80001c71ba2,001,2024-06-30_08h01.02.310,empathy_intonation_perc,2024.1.4,Win32,20,,,,,,,,,,,,,,119,esís,,,,,,253.7844,254.9185,0,1,0.5435,,0,140,140,118,1,pseudoword,0,REAL,FALSA
,,,,,,,,,5ba292385301b80001c71ba2,001,2024-06-30_08h01.02.310,empathy_intonation_perc,2024.1.4,Win32,20,,,,,,,,,,,,,,116,grigir,,,,,,254.9192,256.1961,0,1,0.6962,,0,141,141,115,1,pseudoword,0,REAL,FALSA
,,,,,,,,,5ba292385301b80001c71ba2,001,2024-06-30_08h01.02.310,empathy_intonation_perc,2024.1.4,Win32,20,,,,,,,,,,,,,,65,guerra,,,,,,256.1966,257.4445,1,0,0.6692,,0,142,142,64,1,non_cognate,1,REAL,FALSA
,,,,,,,,,5ba292385301b80001c71ba2,001,2024-06-30_08h01.02.310,empathy_intonation_perc,2024.1.4,Win32,20,,,,,,,,,,,,,,76,chocar,,,,,,257.445,258.62,0,1,0.5961,,0,143,143,75,1,non_cognate,1,REAL,FALSA
,,,,,,,,,5ba292385301b80001c71ba2,001,2024-06-30_08h01.02.310,empathy_intonation_perc,2024.1.4,Win32,20,,,,,,,,,,,,,,137,trugo,,,,,,258.6206,259.8244,0,1,0.625,,0,144,144,136,1,pseudoword,0,REAL,FALSA
,,,,,,,,,5ba292385301b80001c71ba2,001,2024-06-30_08h01.02.310,empathy_intonation_perc,2024.1.4,Win32,20,,,,,,,,,,,,,,21,hotel,,,,,,259.8248,260.9812,1,0,0.5824,,0,145,145,20,1,three_way_cognate,1,REAL,FALSA
,,,,,,,,,5ba292385301b80001c71ba2,001,2024-06-30_08h01.02.310,empathy_intonation_perc,2024.1.4,Win32,20,,,,,,,,,,,,,,5,extra,,,,,,260.9818,262.1915,1,0,0.6181,,0,146,146,4,1,three_way_cognate,1,REAL,FALSA
,,,,,,,,,5ba292385301b80001c71ba2,001,2024-06-30_08h01.02.310,empathy_intonation_perc,2024.1.4,Win32,20,,,,,,,,,,,,,,16,chat,,,,,,262.1919,263.3936,1,0,0.6193,,0,147,147,15,1,three_way_cognate,1,REAL,FALSA
,,,,,,,,,5ba292385301b80001c71ba2,001,2024-06-30_08h01.02.310,empathy_intonation_perc,2024.1.4,Win32,20,,,,,,,,,,,,,,9,portal,,,,,,263.3941,264.5969,1,0,0.6233,,0,148,148,8,1,three_way_cognate,1,REAL,FALSA
,,,,,,,,,5ba292385301b80001c71ba2,001,2024-06-30_08h01.02.310,empathy_intonation_perc,2024.1.4,Win32,20,,,,,,,,,,,,,,36,viable,,,,,,264.5976,265.8741,1,0,0.7009,,0,149,149,35,1,two_way_cognate,1,REAL,FALSA
,,,,,,,,,5ba292385301b80001c71ba2,001,2024-06-30_08h01.02.310,empathy_intonation_perc,2024.1.4,Win32,20,,,,,,,,,,,,,,175,tradía,,,,,,265.8746,267.0897,0,1,0.6662,,0,150,150,174,1,pseudoword,0,REAL,FALSA
,,,,,,,,,5ba292385301b80001c71ba2,001,2024-06-30_08h01.02.310,empathy_intonation_perc,2024.1.4,Win32,20,,,,,,,,,,,,,,115,lidena,,,,,,267.0904,268.2159,0,1,0.5433,,0,151,151,114,1,pseudoword,0,REAL,FALSA
,,,,,,,,,5ba292385301b80001c71ba2,001,2024-06-30_08h01.02.310,empathy_intonation_perc,2024.1.4,Win32,20,,,,,,,,,,,,,,134,molor,,,,,,268.2164,269.4963,0,1,0.6953,,0,152,152,133,1,pseudoword,0,REAL,FALSA
,,,,,,,,,5ba292385301b80001c71ba2,001,2024-06-30_08h01.02.310,empathy_intonation_perc,2024.1.4,Win32,20,,,,,,,,,,,,,,113,nasce,,,,,,269.4968,270.6955,0,1,0.6244,,0,153,153,112,1,pseudoword,0,REAL,FALSA
,,,,,,,,,5ba292385301b80001c71ba2,001,2024-06-30_08h01.02.310,empathy_intonation_perc,2024.1.4,Win32,20,,,,,,,,,,,,,,72,rostro,,,,,,270.6961,272.147,1,0,0.8517,,0,154,154,71,1,non_cognate,1,REAL,FALSA
,,,,,,,,,5ba292385301b80001c71ba2,001,2024-06-30_08h01.02.310,empathy_intonation_perc,2024.1.4,Win32,20,,,,,,,,,,,,,,93,tapa,,,,,,272.1476,273.3416,0,1,0.6202,,0,155,155,92,1,non_cognate,1,REAL,FALSA
,,,,,,,,,5ba292385301b80001c71ba2,001,2024-06-30_08h01.02.310,empathy_intonation_perc,2024.1.4,Win32,20,,,,,,,,,,,,,,57,regalo,,,,,,273.3424,274.6565,1,0,0.735,,0,156,156,56,1,non_cognate,1,REAL,FALSA
,,,,,,,,,5ba292385301b80001c71ba2,001,2024-06-30_08h01.02.310,empathy_intonation_perc,2024.1.4,Win32,20,,,,,,,,,,,,,,168,cobén,,,,,,274.6572,275.9834,0,1,0.7373,,0,157,157,167,1,pseudoword,0,REAL,FALSA
,,,,,,,,,5ba292385301b80001c71ba2,001,2024-06-30_08h01.02.310,empathy_intonation_perc,2024.1.4,Win32,20,,,,,,,,,,,,,,173,mibro,,,,,,275.9839,277.1541,0,1,0.5834,,0,158,158,172,1,pseudoword,0,REAL,FALSA
,,,,,,,,,5ba292385301b80001c71ba2,001,2024-06-30_08h01.02.310,empathy_intonation_perc,2024.1.4,Win32,20,,,,,,,,,,,,,,83,hálito,,,,,,277.1547,278.5102,1,0,0.7656,,0,159,159,82,1,non_cognate,1,REAL,FALSA
,,,,,,,,,5ba292385301b80001c71ba2,001,2024-06-30_08h01.02.310,empathy_intonation_perc,2024.1.4,Win32,20,,,,,,,,,,,,,,50,sierra,,,,,,278.5107,279.7162,1,0,0.6453,,0,160,160,49,1,non_cognate,1,REAL,FALSA
,,,,,,,,,5ba292385301b80001c71ba2,001,2024-06-30_08h01.02.310,empathy_intonation_perc,2024.1.4,Win32,20,,,,,,,,,,,,,,141,virios,,,,,,279.7168,280.943,0,1,0.6471,,0,161,161,140,1,pseudoword,0,REAL,FALSA
,,,,,,,,,5ba292385301b80001c71ba2,001,2024-06-30_08h01.02.310,empathy_intonation_perc,2024.1.4,Win32,20,,,,,,,,,,,,,,32,animal,,,,,,280.9435,282.113,1,0,0.5918,,0,162,162,31,1,two_way_cognate,1,REAL,FALSA
,,,,,,,,,5ba292385301b80001c71ba2,001,2024-06-30_08h01.02.310,empathy_intonation_perc,2024.1.4,Win32,20,,,,,,,,,,,,,,25,vigor,,,,,,282.1136,283.32,1,0,0.6252,,0,163,163,24,1,two_way_cognate,1,REAL,FALSA
,,,,,,,,,5ba292385301b80001c71ba2,001,2024-06-30_08h01.02.310,empathy_intonation_perc,2024.1.4,Win32,20,,,,,,,,,,,,,,82,brillo,,,,,,283.3207,284.6302,1,0,0.7343,,0,164,164,81,1,non_cognate,1,REAL,FALSA
,,,,,,,,,5ba292385301b80001c71ba2,001,2024-06-30_08h01.02.310,empathy_intonation_perc,2024.1.4,Win32,20,,,,,,,,,,,,,,74,ala,,,,,,284.6308,285.9962,0,1,0.7765,,0,165,165,73,1,non_cognate,1,REAL,FALSA
,,,,,,,,,5ba292385301b80001c71ba2,001,2024-06-30_08h01.02.310,empathy_intonation_perc,2024.1.4,Win32,20,,,,,,,,,,,,,,61,aduana,,,,,,285.9968,287.1308,0,1,0.5611,,0,166,166,60,1,non_cognate,1,REAL,FALSA
,,,,,,,,,5ba292385301b80001c71ba2,001,2024-06-30_08h01.02.310,empathy_intonation_perc,2024.1.4,Win32,20,,,,,,,,,,,,,,167,dobbo,,,,,,287.1313,288.2431,0,1,0.524,,0,167,167,166,1,pseudoword,0,REAL,FALSA
,,,,,,,,,5ba292385301b80001c71ba2,001,2024-06-30_08h01.02.310,empathy_intonation_perc,2024.1.4,Win32,20,,,,,,,,,,,,,,39,casual,,,,,,288.2436,291.2285,1,0,2.3551,,0,168,168,38,1,two_way_cognate,1,REAL,FALSA
,,,,,,,,,5ba292385301b80001c71ba2,001,2024-06-30_08h01.02.310,empathy_intonation_perc,2024.1.4,Win32,20,,,,,,,,,,,,,,183,edioso,,,,,,291.2299,292.4026,0,1,0.583,,0,169,169,182,1,pseudoword,0,REAL,FALSA
,,,,,,,,,5ba292385301b80001c71ba2,001,2024-06-30_08h01.02.310,empathy_intonation_perc,2024.1.4,Win32,20,,,,,,,,,,,,,,3,disco,,,,,,292.4032,293.5414,0,1,0.5465,,0,170,170,2,1,three_way_cognate,1,REAL,FALSA
,,,,,,,,,5ba292385301b80001c71ba2,001,2024-06-30_08h01.02.310,empathy_intonation_perc,2024.1.4,Win32,20,,,,,,,,,,,,,,149,emén,,,,,,293.5419,294.8223,0,1,0.7035,,0,171,171,148,1,pseudoword,0,REAL,FALSA
,,,,,,,,,5ba292385301b80001c71ba2,001,2024-06-30_08h01.02.310,empathy_intonation_perc,2024.1.4,Win32,20,,,,,,,,,,,,,,186,rizate,,,,,,294.8228,295.9548,0,1,0.5612,,0,172,172,185,1,pseudoword,0,REAL,FALSA
,,,,,,,,,5ba292385301b80001c71ba2,001,2024-06-30_08h01.02.310,empathy_intonation_perc,2024.1.4,Win32,20,,,,,,,,,,,,,,6,horror,,,,,,295.9554,297.0705,1,0,0.5272,,0,173,173,5,1,three_way_cognate,1,REAL,FALSA
,,,,,,,,,5ba292385301b80001c71ba2,001,2024-06-30_08h01.02.310,empathy_intonation_perc,2024.1.4,Win32,20,,,,,,,,,,,,,,67,llamar,,,,,,297.071,298.4481,1,0,0.805,,0,174,174,66,1,non_cognate,1,REAL,FALSA
,,,,,,,,,5ba292385301b80001c71ba2,001,2024-06-30_08h01.02.310,empathy_intonation_perc,2024.1.4,Win32,20,,,,,,,,,,,,,,118,bará,,,,,,298.4487,299.5954,1,0,0.5771,,0,175,175,117,1,pseudoword,0,REAL,FALSA
,,,,,,,,,5ba292385301b80001c71ba2,001,2024-06-30_08h01.02.310,empathy_intonation_perc,2024.1.4,Win32,20,,,,,,,,,,,,,,160,fomeó,,,,,,299.5959,300.7915,0,1,0.6232,,0,176,176,159,1,pseudoword,0,REAL,FALSA
,,,,,,,,,5ba292385301b80001c71ba2,001,2024-06-30_08h01.02.310,empathy_intonation_perc,2024.1.4,Win32,20,,,,,,,,,,,,,,46,mortal,,,,,,300.7923,302.0689,1,0,0.7008,,0,177,177,45,1,two_way_cognate,1,REAL,FALSA
,,,,,,,,,5ba292385301b80001c71ba2,001,2024-06-30_08h01.02.310,empathy_intonation_perc,2024.1.4,Win32,20,,,,,,,,,,,,,,51,listo,,,,,,302.0696,303.4507,0,1,0.7805,,0,178,178,50,1,non_cognate,1,REAL,FALSA
,,,,,,,,,5ba292385301b80001c71ba2,001,2024-06-30_08h01.02.310,empathy_intonation_perc,2024.1.4,Win32,20,,,,,,,,,,,,,,146,gió,,,,,,303.4517,304.6614,0,1,0.6198,,0,179,179,145,1,pseudoword,0,REAL,FALSA
,,,,,,,,,5ba292385301b80001c71ba2,001,2024-06-30_08h01.02.310,empathy_intonation_perc,2024.1.4,Win32,20,,,,,,,,,,,,,,112,samón,,,,,,304.6619,305.7842,0,1,0.5413,,0,180,180,111,1,pseudoword,0,REAL,FALSA
,,,,,,,,,5ba292385301b80001c71ba2,001,2024-06-30_08h01.02.310,empathy_intonation_perc,2024.1.4,Win32,20,,,,,,,,,,,,,,84,aviso,,,,,,305.7849,307.0301,0,1,0.6632,,0,181,181,83,1,non_cognate,1,REAL,FALSA
,,,,,,,,,5ba292385301b80001c71ba2,001,2024-06-30_08h01.02.310,empathy_intonation_perc,2024.1.4,Win32,20,,,,,,,,,,,,,,142,parre,,,,,,307.0306,308.2055,0,1,0.5892,,0,182,182,141,1,pseudoword,0,REAL,FALSA
,,,,,,,,,5ba292385301b80001c71ba2,001,2024-06-30_08h01.02.310,empathy_intonation_perc,2024.1.4,Win32,20,,,,,,,,,,,,,,161,civas,,,,,,308.206,309.4508,0,1,0.6564,,0,183,183,160,1,pseudoword,0,REAL,FALSA
,,,,,,,,,5ba292385301b80001c71ba2,001,2024-06-30_08h01.02.310,empathy_intonation_perc,2024.1.4,Win32,20,,,,,,,,,,,,,,34,actor,,,,,,309.4516,310.5803,1,0,0.5386,,0,184,184,33,1,two_way_cognate,1,REAL,FALSA
,,,,,,,,,5ba292385301b80001c71ba2,001,2024-06-30_08h01.02.310,empathy_intonation_perc,2024.1.4,Win32,20,,,,,,,,,,,,,,68,puñal,,,,,,310.5809,311.7945,0,1,0.6274,,0,185,185,67,1,non_cognate,1,REAL,FALSA
,,,,,,,,,5ba292385301b80001c71ba2,001,2024-06-30_08h01.02.310,empathy_intonation_perc,2024.1.4,Win32,20,,,,,,,,,,,,,,145,rúo,,,,,,311.7951,313.0026,0,1,0.6115,,0,186,186,144,1,pseudoword,0,REAL,FALSA
,,,,,,,,,5ba292385301b80001c71ba2,001,2024-06-30_08h01.02.310,empathy_intonation_perc,2024.1.4,Win32,20,,,,,,,,,,,,,,40,pelvis,,,,,,313.0032,314.1449,1,0,0.5547,,0,187,187,39,1,two_way_cognate,1,REAL,FALSA
,,,,,,,,,5ba292385301b80001c71ba2,001,2024-06-30_08h01.02.310,empathy_intonation_perc,2024.1.4,Win32,20,,,,,,,,,,,,,,90,venado,,,,,,314.1455,315.2609,0,1,0.5454,,0,188,188,89,1,non_cognate,1,REAL,FALSA
,,,,,,,,,5ba292385301b80001c71ba2,001,2024-06-30_08h01.02.310,empathy_intonation_perc,2024.1.4,Win32,20,,,,,,,,,,,,,,192,próces,,,,,,315.2616,316.5364,0,1,0.6954,,0,189,189,191,1,pseudoword,0,REAL,FALSA
,,,,,,,,,5ba292385301b80001c71ba2,001,2024-06-30_08h01.02.310,empathy_intonation_perc,2024.1.4,Win32,20,,,,,,,,,,,,,,109,laras,,,,,,316.537,317.7309,0,1,0.616,,0,190,190,108,1,pseudoword,0,REAL,FALSA
,,,,,,,,,5ba292385301b80001c71ba2,001,2024-06-30_08h01.02.310,empathy_intonation_perc,2024.1.4,Win32,20,,,,,,,,,,,,,,128,pelí,,,,,,317.7315,318.8382,0,1,0.5249,,0,191,191,127,1,pseudoword,0,REAL,FALSA
