lextale_instructions.started,lextale_instructions.stopped,lextale_instructions_loop.thisRepN,lextale_instructions_loop.thisTrialN,lextale_instructions_loop.thisN,lextale_instructions_loop.thisIndex,lextale_instructions_loop.ran,instructions_text,continue_text,participant,session,date,expName,psychopyVersion,OS,frameRate,lextale_practice.started,lextale_practice.stopped,key_resp_lextale_practice.keys,key_resp_lextale_practice.corr,key_resp_lextale_practice.rt,key_resp_lextale_practice.duration,lextale_practice_feedback.started,lextale_practice_feedback.stopped,lextale_practice_trials.thisRepN,lextale_practice_trials.thisTrialN,lextale_practice_trials.thisN,lextale_practice_trials.thisIndex,lextale_practice_trials.ran,stim,word,correct_response,prac_button_real,prac_button_false,lextale_check.started,lextale_check.stopped,lextale_trial.started,lextale_trial.stopped,key_resp_lextale_trial.keys,key_resp_lextale_trial.corr,key_resp_lextale_trial.rt,key_resp_lextale_trial.duration,lextail_trials.thisRepN,lextail_trials.thisTrialN,lextail_trials.thisN,lextail_trials.thisIndex,lextail_trials.ran,type,correct_reponse,button_real,button_false
0.002,5.187,0,0,0,0,1,"Este es un test de vocabulario en español. 
  
  A continuación vas a ver 90 secuencias de letras que parecen 'españolas'.
  
  Solo algunas de ellas son palabras de verdad.",(presiona la barra espaciadora para continuar),5dcea4c3bc83380fe65dba2a,001,2024-06-30_06h41.50.105,empathy_intonation_perc,2024.1.4,Win32,59.95203837,,,,,,,,,,,,,,,,,,,,,,,,,,,,,,,,,,,
5.187,9.72,0,1,1,1,1,"Por favor, señala las palabras que tú conoces (aquellas que estás convencido que son palabras españolas, incluso aunque no seas capaz de dar el significado preciso).",(presiona la barra espaciadora para continuar),5dcea4c3bc83380fe65dba2a,001,2024-06-30_06h41.50.105,empathy_intonation_perc,2024.1.4,Win32,59.95203837,,,,,,,,,,,,,,,,,,,,,,,,,,,,,,,,,,,
9.72,13.154,0,2,2,2,1,Pero cuidado: los errores se penalizan. Por eso no tiene sentido tratar de incrementar tu puntuación marcando como reales palabras que nunca has visto.,(presiona la barra espaciadora para continuar),5dcea4c3bc83380fe65dba2a,001,2024-06-30_06h41.50.105,empathy_intonation_perc,2024.1.4,Win32,59.95203837,,,,,,,,,,,,,,,,,,,,,,,,,,,,,,,,,,,
13.155,15.486,0,3,3,3,1,"Presiona la tecla 1 si piensas que es una palabra real y la tecla 
  0 si piensas que es una palabra falsa. 
  
  Vamos a practicar un poco...",(presiona la barra espaciadora para continuar),5dcea4c3bc83380fe65dba2a,001,2024-06-30_06h41.50.105,empathy_intonation_perc,2024.1.4,Win32,59.95203837,,,,,,,,,,,,,,,,,,,,,,,,,,,,,,,,,,,
,,,,,,,,,5dcea4c3bc83380fe65dba2a,001,2024-06-30_06h41.50.105,empathy_intonation_perc,2024.1.4,Win32,59.95203837,15.49,22.685,1,0,6.661,,22.685,23.685,0,0,0,0,1,0,depiste,0,REAL,FALSA,,,,,,,,,,,,,,,,,
,,,,,,,,,5dcea4c3bc83380fe65dba2a,001,2024-06-30_06h41.50.105,empathy_intonation_perc,2024.1.4,Win32,59.95203837,23.686,25.619,1,1,1.396,,25.619,26.618,0,1,1,1,1,0,sí,1,REAL,FALSA,,,,,,,,,,,,,,,,,
,,,,,,,,,5dcea4c3bc83380fe65dba2a,001,2024-06-30_06h41.50.105,empathy_intonation_perc,2024.1.4,Win32,59.95203837,26.618,28.501,1,0,1.352,,28.501,29.502,0,2,2,2,1,0,coné,0,REAL,FALSA,,,,,,,,,,,,,,,,,
,,,,,,,,,5dcea4c3bc83380fe65dba2a,001,2024-06-30_06h41.50.105,empathy_intonation_perc,2024.1.4,Win32,59.95203837,29.503,31.417,1,0,1.382,,31.417,32.417,0,3,3,3,1,0,calpar,0,REAL,FALSA,,,,,,,,,,,,,,,,,
,,,,,,,,,5dcea4c3bc83380fe65dba2a,001,2024-06-30_06h41.50.105,empathy_intonation_perc,2024.1.4,Win32,59.95203837,32.417,34.217,1,0,1.282,,34.217,35.217,0,4,4,4,1,0,joten,0,REAL,FALSA,,,,,,,,,,,,,,,,,
,,,,,,,,,5dcea4c3bc83380fe65dba2a,001,2024-06-30_06h41.50.105,empathy_intonation_perc,2024.1.4,Win32,59.95203837,35.217,36.45,1,1,0.716,,36.45,37.45,0,5,5,5,1,0,sacapuntas,1,REAL,FALSA,,,,,,,,,,,,,,,,,
,,,,,,,,,5dcea4c3bc83380fe65dba2a,001,2024-06-30_06h41.50.105,empathy_intonation_perc,2024.1.4,Win32,59.95203837,37.45,38.883,1,0,0.889,,38.883,39.883,0,6,6,6,1,0,priba,0,REAL,FALSA,,,,,,,,,,,,,,,,,
,,,,,,,,,5dcea4c3bc83380fe65dba2a,001,2024-06-30_06h41.50.105,empathy_intonation_perc,2024.1.4,Win32,59.95203837,39.883,41.182,1,0,0.781,,41.183,42.183,0,7,7,7,1,0,pelasula,0,REAL,FALSA,,,,,,,,,,,,,,,,,
,,,,,,,,,5dcea4c3bc83380fe65dba2a,001,2024-06-30_06h41.50.105,empathy_intonation_perc,2024.1.4,Win32,59.95203837,42.183,43.266,1,1,0.548,,43.266,44.266,0,8,8,8,1,0,bien,1,REAL,FALSA,,,,,,,,,,,,,,,,,
,,,,,,,,,5dcea4c3bc83380fe65dba2a,001,2024-06-30_06h41.50.105,empathy_intonation_perc,2024.1.4,Win32,59.95203837,44.266,45.582,1,1,0.78,,45.582,46.582,0,9,9,9,1,0,casa,1,REAL,FALSA,,,,,,,,,,,,,,,,,
,,,,,,,,,5dcea4c3bc83380fe65dba2a,001,2024-06-30_06h41.50.105,empathy_intonation_perc,2024.1.4,Win32,59.95203837,46.582,48.198,1,0,1.097,,48.199,49.198,0,10,10,10,1,0,lejo,0,REAL,FALSA,,,,,,,,,,,,,,,,,
,,,,,,,,,5dcea4c3bc83380fe65dba2a,001,2024-06-30_06h41.50.105,empathy_intonation_perc,2024.1.4,Win32,59.95203837,49.198,50.315,1,0,0.602,,50.315,51.315,0,11,11,11,1,0,pretantas,0,REAL,FALSA,,,,,,,,,,,,,,,,,
,,,,,,,,,5dcea4c3bc83380fe65dba2a,001,2024-06-30_06h41.50.105,empathy_intonation_perc,2024.1.4,Win32,59.95203837,,,,,,,,,,,,,,,,,,,51.315,54.381,,,,,,,,,,,,,,,
,,,,,,,,,5dcea4c3bc83380fe65dba2a,001,2024-06-30_06h41.50.105,empathy_intonation_perc,2024.1.4,Win32,59.95203837,,,,,,,,,,,,,,62,pegar,,,,,,54.39,56.098,1,0,1.182,,0,0,0,61,1,non_cognate,1,REAL,FALSA
,,,,,,,,,5dcea4c3bc83380fe65dba2a,001,2024-06-30_06h41.50.105,empathy_intonation_perc,2024.1.4,Win32,59.95203837,,,,,,,,,,,,,,32,animal,,,,,,56.098,57.797,1,0,1.165,,0,1,1,31,1,two_way_cognate,1,REAL,FALSA
,,,,,,,,,5dcea4c3bc83380fe65dba2a,001,2024-06-30_06h41.50.105,empathy_intonation_perc,2024.1.4,Win32,59.95203837,,,,,,,,,,,,,,38,halo,,,,,,57.798,59.097,1,0,0.765,,0,2,2,37,1,two_way_cognate,1,REAL,FALSA
,,,,,,,,,5dcea4c3bc83380fe65dba2a,001,2024-06-30_06h41.50.105,empathy_intonation_perc,2024.1.4,Win32,59.95203837,,,,,,,,,,,,,,111,monue,,,,,,59.097,61.314,1,0,1.7,,0,3,3,110,1,pseudoword,0,REAL,FALSA
,,,,,,,,,5dcea4c3bc83380fe65dba2a,001,2024-06-30_06h41.50.105,empathy_intonation_perc,2024.1.4,Win32,59.95203837,,,,,,,,,,,,,,137,trugo,,,,,,61.314,62.364,1,0,0.517,,0,4,4,136,1,pseudoword,0,REAL,FALSA
,,,,,,,,,5dcea4c3bc83380fe65dba2a,001,2024-06-30_06h41.50.105,empathy_intonation_perc,2024.1.4,Win32,59.95203837,,,,,,,,,,,,,,42,rumor,,,,,,62.364,63.381,1,0,0.489,,0,5,5,41,1,two_way_cognate,1,REAL,FALSA
,,,,,,,,,5dcea4c3bc83380fe65dba2a,001,2024-06-30_06h41.50.105,empathy_intonation_perc,2024.1.4,Win32,59.95203837,,,,,,,,,,,,,,40,pelvis,,,,,,63.383,64.396,1,0,0.48,,0,6,6,39,1,two_way_cognate,1,REAL,FALSA
,,,,,,,,,5dcea4c3bc83380fe65dba2a,001,2024-06-30_06h41.50.105,empathy_intonation_perc,2024.1.4,Win32,59.95203837,,,,,,,,,,,,,,64,rizado,,,,,,64.397,65.43,1,0,0.505,,0,7,7,63,1,non_cognate,1,REAL,FALSA
,,,,,,,,,5dcea4c3bc83380fe65dba2a,001,2024-06-30_06h41.50.105,empathy_intonation_perc,2024.1.4,Win32,59.95203837,,,,,,,,,,,,,,92,flecha,,,,,,65.43,66.38,1,0,0.414,,0,8,8,91,1,non_cognate,1,REAL,FALSA
,,,,,,,,,5dcea4c3bc83380fe65dba2a,001,2024-06-30_06h41.50.105,empathy_intonation_perc,2024.1.4,Win32,59.95203837,,,,,,,,,,,,,,122,boñaz,,,,,,66.38,67.296,1,0,0.381,,0,9,9,121,1,pseudoword,0,REAL,FALSA
,,,,,,,,,5dcea4c3bc83380fe65dba2a,001,2024-06-30_06h41.50.105,empathy_intonation_perc,2024.1.4,Win32,59.95203837,,,,,,,,,,,,,,3,disco,,,,,,67.296,68.229,1,0,0.402,,0,10,10,2,1,three_way_cognate,1,REAL,FALSA
,,,,,,,,,5dcea4c3bc83380fe65dba2a,001,2024-06-30_06h41.50.105,empathy_intonation_perc,2024.1.4,Win32,59.95203837,,,,,,,,,,,,,,18,altar,,,,,,68.23,69.295,1,0,0.534,,0,11,11,17,1,three_way_cognate,1,REAL,FALSA
,,,,,,,,,5dcea4c3bc83380fe65dba2a,001,2024-06-30_06h41.50.105,empathy_intonation_perc,2024.1.4,Win32,59.95203837,,,,,,,,,,,,,,19,mafia,,,,,,69.296,70.262,1,0,0.436,,0,12,12,18,1,three_way_cognate,1,REAL,FALSA
,,,,,,,,,5dcea4c3bc83380fe65dba2a,001,2024-06-30_06h41.50.105,empathy_intonation_perc,2024.1.4,Win32,59.95203837,,,,,,,,,,,,,,180,pupica,,,,,,70.263,71.262,1,0,0.468,,0,13,13,179,1,pseudoword,0,REAL,FALSA
,,,,,,,,,5dcea4c3bc83380fe65dba2a,001,2024-06-30_06h41.50.105,empathy_intonation_perc,2024.1.4,Win32,59.95203837,,,,,,,,,,,,,,45,total,,,,,,71.262,72.212,1,0,0.434,,0,14,14,44,1,two_way_cognate,1,REAL,FALSA
,,,,,,,,,5dcea4c3bc83380fe65dba2a,001,2024-06-30_06h41.50.105,empathy_intonation_perc,2024.1.4,Win32,59.95203837,,,,,,,,,,,,,,128,pelí,,,,,,72.212,73.178,1,0,0.435,,0,15,15,127,1,pseudoword,0,REAL,FALSA
,,,,,,,,,5dcea4c3bc83380fe65dba2a,001,2024-06-30_06h41.50.105,empathy_intonation_perc,2024.1.4,Win32,59.95203837,,,,,,,,,,,,,,59,feo,,,,,,73.178,74.078,1,0,0.382,,0,16,16,58,1,non_cognate,1,REAL,FALSA
,,,,,,,,,5dcea4c3bc83380fe65dba2a,001,2024-06-30_06h41.50.105,empathy_intonation_perc,2024.1.4,Win32,59.95203837,,,,,,,,,,,,,,151,prías,,,,,,74.078,74.962,1,0,0.367,,0,17,17,150,1,pseudoword,0,REAL,FALSA
,,,,,,,,,5dcea4c3bc83380fe65dba2a,001,2024-06-30_06h41.50.105,empathy_intonation_perc,2024.1.4,Win32,59.95203837,,,,,,,,,,,,,,37,torso,,,,,,74.962,75.879,1,0,0.383,,0,18,18,36,1,two_way_cognate,1,REAL,FALSA
,,,,,,,,,5dcea4c3bc83380fe65dba2a,001,2024-06-30_06h41.50.105,empathy_intonation_perc,2024.1.4,Win32,59.95203837,,,,,,,,,,,,,,117,morrá,,,,,,75.879,76.878,1,0,0.46,,0,19,19,116,1,pseudoword,0,REAL,FALSA
,,,,,,,,,5dcea4c3bc83380fe65dba2a,001,2024-06-30_06h41.50.105,empathy_intonation_perc,2024.1.4,Win32,59.95203837,,,,,,,,,,,,,,167,dobbo,,,,,,76.879,77.861,1,0,0.45,,0,20,20,166,1,pseudoword,0,REAL,FALSA
,,,,,,,,,5dcea4c3bc83380fe65dba2a,001,2024-06-30_06h41.50.105,empathy_intonation_perc,2024.1.4,Win32,59.95203837,,,,,,,,,,,,,,106,diebro,,,,,,77.862,78.794,1,0,0.405,,0,21,21,105,1,pseudoword,0,REAL,FALSA
,,,,,,,,,5dcea4c3bc83380fe65dba2a,001,2024-06-30_06h41.50.105,empathy_intonation_perc,2024.1.4,Win32,59.95203837,,,,,,,,,,,,,,141,virios,,,,,,78.795,79.811,1,0,0.482,,0,22,22,140,1,pseudoword,0,REAL,FALSA
,,,,,,,,,5dcea4c3bc83380fe65dba2a,001,2024-06-30_06h41.50.105,empathy_intonation_perc,2024.1.4,Win32,59.95203837,,,,,,,,,,,,,,60,siglo,,,,,,79.811,80.761,1,0,0.432,,0,23,23,59,1,non_cognate,1,REAL,FALSA
,,,,,,,,,5dcea4c3bc83380fe65dba2a,001,2024-06-30_06h41.50.105,empathy_intonation_perc,2024.1.4,Win32,59.95203837,,,,,,,,,,,,,,9,portal,,,,,,80.761,81.694,1,0,0.415,,0,24,24,8,1,three_way_cognate,1,REAL,FALSA
,,,,,,,,,5dcea4c3bc83380fe65dba2a,001,2024-06-30_06h41.50.105,empathy_intonation_perc,2024.1.4,Win32,59.95203837,,,,,,,,,,,,,,82,brillo,,,,,,81.694,82.794,1,0,0.568,,0,25,25,81,1,non_cognate,1,REAL,FALSA
,,,,,,,,,5dcea4c3bc83380fe65dba2a,001,2024-06-30_06h41.50.105,empathy_intonation_perc,2024.1.4,Win32,59.95203837,,,,,,,,,,,,,,87,muleta,,,,,,82.794,83.794,1,0,0.465,,0,26,26,86,1,non_cognate,1,REAL,FALSA
,,,,,,,,,5dcea4c3bc83380fe65dba2a,001,2024-06-30_06h41.50.105,empathy_intonation_perc,2024.1.4,Win32,59.95203837,,,,,,,,,,,,,,58,colcha,,,,,,83.794,84.777,1,0,0.449,,0,27,27,57,1,non_cognate,1,REAL,FALSA
,,,,,,,,,5dcea4c3bc83380fe65dba2a,001,2024-06-30_06h41.50.105,empathy_intonation_perc,2024.1.4,Win32,59.95203837,,,,,,,,,,,,,,118,bará,,,,,,84.777,85.826,1,0,0.513,,0,28,28,117,1,pseudoword,0,REAL,FALSA
,,,,,,,,,5dcea4c3bc83380fe65dba2a,001,2024-06-30_06h41.50.105,empathy_intonation_perc,2024.1.4,Win32,59.95203837,,,,,,,,,,,,,,171,gotro,,,,,,85.827,86.876,1,0,0.531,,0,29,29,170,1,pseudoword,0,REAL,FALSA
,,,,,,,,,5dcea4c3bc83380fe65dba2a,001,2024-06-30_06h41.50.105,empathy_intonation_perc,2024.1.4,Win32,59.95203837,,,,,,,,,,,,,,145,rúo,,,,,,86.877,87.91,1,0,0.512,,0,30,30,144,1,pseudoword,0,REAL,FALSA
,,,,,,,,,5dcea4c3bc83380fe65dba2a,001,2024-06-30_06h41.50.105,empathy_intonation_perc,2024.1.4,Win32,59.95203837,,,,,,,,,,,,,,5,extra,,,,,,87.91,92.393,1,0,3.965,,0,31,31,4,1,three_way_cognate,1,REAL,FALSA
,,,,,,,,,5dcea4c3bc83380fe65dba2a,001,2024-06-30_06h41.50.105,empathy_intonation_perc,2024.1.4,Win32,59.95203837,,,,,,,,,,,,,,22,mango,,,,,,92.393,93.625,1,0,0.7,,0,32,32,21,1,three_way_cognate,1,REAL,FALSA
,,,,,,,,,5dcea4c3bc83380fe65dba2a,001,2024-06-30_06h41.50.105,empathy_intonation_perc,2024.1.4,Win32,59.95203837,,,,,,,,,,,,,,21,hotel,,,,,,93.626,94.892,1,0,0.752,,0,33,33,20,1,three_way_cognate,1,REAL,FALSA
,,,,,,,,,5dcea4c3bc83380fe65dba2a,001,2024-06-30_06h41.50.105,empathy_intonation_perc,2024.1.4,Win32,59.95203837,,,,,,,,,,,,,,181,gravés,,,,,,94.892,96.508,1,0,1.1,,0,34,34,180,1,pseudoword,0,REAL,FALSA
,,,,,,,,,5dcea4c3bc83380fe65dba2a,001,2024-06-30_06h41.50.105,empathy_intonation_perc,2024.1.4,Win32,59.95203837,,,,,,,,,,,,,,52,blando,,,,,,96.509,97.476,1,0,0.448,,0,35,35,51,1,non_cognate,1,REAL,FALSA
,,,,,,,,,5dcea4c3bc83380fe65dba2a,001,2024-06-30_06h41.50.105,empathy_intonation_perc,2024.1.4,Win32,59.95203837,,,,,,,,,,,,,,4,flora,,,,,,97.478,98.475,1,0,0.465,,0,36,36,3,1,three_way_cognate,1,REAL,FALSA
,,,,,,,,,5dcea4c3bc83380fe65dba2a,001,2024-06-30_06h41.50.105,empathy_intonation_perc,2024.1.4,Win32,59.95203837,,,,,,,,,,,,,,70,ánimo,,,,,,98.475,99.541,1,0,0.547,,0,37,37,69,1,non_cognate,1,REAL,FALSA
,,,,,,,,,5dcea4c3bc83380fe65dba2a,001,2024-06-30_06h41.50.105,empathy_intonation_perc,2024.1.4,Win32,59.95203837,,,,,,,,,,,,,,142,parre,,,,,,99.542,100.525,1,0,0.449,,0,38,38,141,1,pseudoword,0,REAL,FALSA
,,,,,,,,,5dcea4c3bc83380fe65dba2a,001,2024-06-30_06h41.50.105,empathy_intonation_perc,2024.1.4,Win32,59.95203837,,,,,,,,,,,,,,102,coyo,,,,,,100.527,101.475,1,0,0.417,,0,39,39,101,1,pseudoword,0,REAL,FALSA
,,,,,,,,,5dcea4c3bc83380fe65dba2a,001,2024-06-30_06h41.50.105,empathy_intonation_perc,2024.1.4,Win32,59.95203837,,,,,,,,,,,,,,1,moral,,,,,,101.476,102.608,1,0,0.602,,0,40,40,0,1,three_way_cognate,1,REAL,FALSA
,,,,,,,,,5dcea4c3bc83380fe65dba2a,001,2024-06-30_06h41.50.105,empathy_intonation_perc,2024.1.4,Win32,59.95203837,,,,,,,,,,,,,,168,cobén,,,,,,102.609,103.841,1,0,0.699,,0,41,41,167,1,pseudoword,0,REAL,FALSA
,,,,,,,,,5dcea4c3bc83380fe65dba2a,001,2024-06-30_06h41.50.105,empathy_intonation_perc,2024.1.4,Win32,59.95203837,,,,,,,,,,,,,,34,actor,,,,,,103.841,104.925,1,0,0.549,,0,42,42,33,1,two_way_cognate,1,REAL,FALSA
,,,,,,,,,5dcea4c3bc83380fe65dba2a,001,2024-06-30_06h41.50.105,empathy_intonation_perc,2024.1.4,Win32,59.95203837,,,,,,,,,,,,,,191,frasis,,,,,,104.925,106.041,1,0,0.582,,0,43,43,190,1,pseudoword,0,REAL,FALSA
,,,,,,,,,5dcea4c3bc83380fe65dba2a,001,2024-06-30_06h41.50.105,empathy_intonation_perc,2024.1.4,Win32,59.95203837,,,,,,,,,,,,,,94,forro,,,,,,106.041,107.042,1,0,0.468,,0,44,44,93,1,non_cognate,1,REAL,FALSA
,,,,,,,,,5dcea4c3bc83380fe65dba2a,001,2024-06-30_06h41.50.105,empathy_intonation_perc,2024.1.4,Win32,59.95203837,,,,,,,,,,,,,,25,vigor,,,,,,107.042,107.99,1,0,0.423,,0,45,45,24,1,two_way_cognate,1,REAL,FALSA
,,,,,,,,,5dcea4c3bc83380fe65dba2a,001,2024-06-30_06h41.50.105,empathy_intonation_perc,2024.1.4,Win32,59.95203837,,,,,,,,,,,,,,15,test,,,,,,107.99,109.007,1,0,0.5,,0,46,46,14,1,three_way_cognate,1,REAL,FALSA
,,,,,,,,,5dcea4c3bc83380fe65dba2a,001,2024-06-30_06h41.50.105,empathy_intonation_perc,2024.1.4,Win32,59.95203837,,,,,,,,,,,,,,26,enigma,,,,,,109.007,110.107,1,0,0.58,,0,47,47,25,1,two_way_cognate,1,REAL,FALSA
,,,,,,,,,5dcea4c3bc83380fe65dba2a,001,2024-06-30_06h41.50.105,empathy_intonation_perc,2024.1.4,Win32,59.95203837,,,,,,,,,,,,,,57,regalo,,,,,,110.107,111.674,1,0,1.054,,0,48,48,56,1,non_cognate,1,REAL,FALSA
,,,,,,,,,5dcea4c3bc83380fe65dba2a,001,2024-06-30_06h41.50.105,empathy_intonation_perc,2024.1.4,Win32,59.95203837,,,,,,,,,,,,,,163,olzan,,,,,,111.675,112.873,1,0,0.663,,0,49,49,162,1,pseudoword,0,REAL,FALSA
,,,,,,,,,5dcea4c3bc83380fe65dba2a,001,2024-06-30_06h41.50.105,empathy_intonation_perc,2024.1.4,Win32,59.95203837,,,,,,,,,,,,,,139,sasos,,,,,,112.873,113.873,1,0,0.487,,0,50,50,138,1,pseudoword,0,REAL,FALSA
,,,,,,,,,5dcea4c3bc83380fe65dba2a,001,2024-06-30_06h41.50.105,empathy_intonation_perc,2024.1.4,Win32,59.95203837,,,,,,,,,,,,,,17,clan,,,,,,113.873,114.789,1,0,0.402,,0,51,51,16,1,three_way_cognate,1,REAL,FALSA
,,,,,,,,,5dcea4c3bc83380fe65dba2a,001,2024-06-30_06h41.50.105,empathy_intonation_perc,2024.1.4,Win32,59.95203837,,,,,,,,,,,,,,153,golla,,,,,,114.789,115.806,1,0,0.497,,0,52,52,152,1,pseudoword,0,REAL,FALSA
,,,,,,,,,5dcea4c3bc83380fe65dba2a,001,2024-06-30_06h41.50.105,empathy_intonation_perc,2024.1.4,Win32,59.95203837,,,,,,,,,,,,,,11,golf,,,,,,115.806,116.872,1,0,0.549,,0,53,53,10,1,three_way_cognate,1,REAL,FALSA
,,,,,,,,,5dcea4c3bc83380fe65dba2a,001,2024-06-30_06h41.50.105,empathy_intonation_perc,2024.1.4,Win32,59.95203837,,,,,,,,,,,,,,14,aura,,,,,,116.873,117.822,1,0,0.431,,0,54,54,13,1,three_way_cognate,1,REAL,FALSA
,,,,,,,,,5dcea4c3bc83380fe65dba2a,001,2024-06-30_06h41.50.105,empathy_intonation_perc,2024.1.4,Win32,59.95203837,,,,,,,,,,,,,,12,dogma,,,,,,117.823,118.789,1,0,0.448,,0,55,55,11,1,three_way_cognate,1,REAL,FALSA
,,,,,,,,,5dcea4c3bc83380fe65dba2a,001,2024-06-30_06h41.50.105,empathy_intonation_perc,2024.1.4,Win32,59.95203837,,,,,,,,,,,,,,13,plan,,,,,,118.79,119.723,1,0,0.4,,0,56,56,12,1,three_way_cognate,1,REAL,FALSA
,,,,,,,,,5dcea4c3bc83380fe65dba2a,001,2024-06-30_06h41.50.105,empathy_intonation_perc,2024.1.4,Win32,59.95203837,,,,,,,,,,,,,,126,tobre,,,,,,119.723,120.706,1,0,0.451,,0,57,57,125,1,pseudoword,0,REAL,FALSA
,,,,,,,,,5dcea4c3bc83380fe65dba2a,001,2024-06-30_06h41.50.105,empathy_intonation_perc,2024.1.4,Win32,59.95203837,,,,,,,,,,,,,,103,vueras,,,,,,120.706,121.639,1,0,0.399,,0,58,58,102,1,pseudoword,0,REAL,FALSA
,,,,,,,,,5dcea4c3bc83380fe65dba2a,001,2024-06-30_06h41.50.105,empathy_intonation_perc,2024.1.4,Win32,59.95203837,,,,,,,,,,,,,,36,viable,,,,,,121.639,122.605,1,0,0.432,,0,59,59,35,1,two_way_cognate,1,REAL,FALSA
,,,,,,,,,5dcea4c3bc83380fe65dba2a,001,2024-06-30_06h41.50.105,empathy_intonation_perc,2024.1.4,Win32,59.95203837,,,,,,,,,,,,,,91,equipo,,,,,,122.605,123.572,1,0,0.449,,0,60,60,90,1,non_cognate,1,REAL,FALSA
,,,,,,,,,5dcea4c3bc83380fe65dba2a,001,2024-06-30_06h41.50.105,empathy_intonation_perc,2024.1.4,Win32,59.95203837,,,,,,,,,,,,,,131,fuar,,,,,,123.572,124.555,1,0,0.465,,0,61,61,130,1,pseudoword,0,REAL,FALSA
,,,,,,,,,5dcea4c3bc83380fe65dba2a,001,2024-06-30_06h41.50.105,empathy_intonation_perc,2024.1.4,Win32,59.95203837,,,,,,,,,,,,,,169,pitis,,,,,,124.555,125.522,1,0,0.431,,0,62,62,168,1,pseudoword,0,REAL,FALSA
,,,,,,,,,5dcea4c3bc83380fe65dba2a,001,2024-06-30_06h41.50.105,empathy_intonation_perc,2024.1.4,Win32,59.95203837,,,,,,,,,,,,,,46,mortal,,,,,,125.522,127.071,1,0,1.03,,0,63,63,45,1,two_way_cognate,1,REAL,FALSA
,,,,,,,,,5dcea4c3bc83380fe65dba2a,001,2024-06-30_06h41.50.105,empathy_intonation_perc,2024.1.4,Win32,59.95203837,,,,,,,,,,,,,,110,densó,,,,,,127.071,128.187,1,0,0.602,,0,64,64,109,1,pseudoword,0,REAL,FALSA
,,,,,,,,,5dcea4c3bc83380fe65dba2a,001,2024-06-30_06h41.50.105,empathy_intonation_perc,2024.1.4,Win32,59.95203837,,,,,,,,,,,,,,178,inichó,,,,,,128.187,129.354,1,0,0.65,,0,65,65,177,1,pseudoword,0,REAL,FALSA
,,,,,,,,,5dcea4c3bc83380fe65dba2a,001,2024-06-30_06h41.50.105,empathy_intonation_perc,2024.1.4,Win32,59.95203837,,,,,,,,,,,,,,149,emén,,,,,,129.354,130.437,1,0,0.565,,0,66,66,148,1,pseudoword,0,REAL,FALSA
,,,,,,,,,5dcea4c3bc83380fe65dba2a,001,2024-06-30_06h41.50.105,empathy_intonation_perc,2024.1.4,Win32,59.95203837,,,,,,,,,,,,,,162,cengo,,,,,,130.438,131.354,1,0,0.381,,0,67,67,161,1,pseudoword,0,REAL,FALSA
,,,,,,,,,5dcea4c3bc83380fe65dba2a,001,2024-06-30_06h41.50.105,empathy_intonation_perc,2024.1.4,Win32,59.95203837,,,,,,,,,,,,,,8,kilo,,,,,,131.356,132.421,1,0,0.531,,0,68,68,7,1,three_way_cognate,1,REAL,FALSA
,,,,,,,,,5dcea4c3bc83380fe65dba2a,001,2024-06-30_06h41.50.105,empathy_intonation_perc,2024.1.4,Win32,59.95203837,,,,,,,,,,,,,,67,llamar,,,,,,132.421,133.387,1,0,0.431,,0,69,69,66,1,non_cognate,1,REAL,FALSA
,,,,,,,,,5dcea4c3bc83380fe65dba2a,001,2024-06-30_06h41.50.105,empathy_intonation_perc,2024.1.4,Win32,59.95203837,,,,,,,,,,,,,,68,puñal,,,,,,133.387,134.387,1,0,0.468,,0,70,70,67,1,non_cognate,1,REAL,FALSA
,,,,,,,,,5dcea4c3bc83380fe65dba2a,001,2024-06-30_06h41.50.105,empathy_intonation_perc,2024.1.4,Win32,59.95203837,,,,,,,,,,,,,,146,gió,,,,,,134.388,135.353,1,0,0.431,,0,71,71,145,1,pseudoword,0,REAL,FALSA
,,,,,,,,,5dcea4c3bc83380fe65dba2a,001,2024-06-30_06h41.50.105,empathy_intonation_perc,2024.1.4,Win32,59.95203837,,,,,,,,,,,,,,136,hueas,,,,,,135.354,136.237,1,0,0.365,,0,72,72,135,1,pseudoword,0,REAL,FALSA
,,,,,,,,,5dcea4c3bc83380fe65dba2a,001,2024-06-30_06h41.50.105,empathy_intonation_perc,2024.1.4,Win32,59.95203837,,,,,,,,,,,,,,107,plago,,,,,,136.238,137.17,1,0,0.405,,0,73,73,106,1,pseudoword,0,REAL,FALSA
,,,,,,,,,5dcea4c3bc83380fe65dba2a,001,2024-06-30_06h41.50.105,empathy_intonation_perc,2024.1.4,Win32,59.95203837,,,,,,,,,,,,,,109,laras,,,,,,137.171,138.12,1,0,0.416,,0,74,74,108,1,pseudoword,0,REAL,FALSA
,,,,,,,,,5dcea4c3bc83380fe65dba2a,001,2024-06-30_06h41.50.105,empathy_intonation_perc,2024.1.4,Win32,59.95203837,,,,,,,,,,,,,,47,color,,,,,,138.121,139.053,1,0,0.398,,0,75,75,46,1,two_way_cognate,1,REAL,FALSA
,,,,,,,,,5dcea4c3bc83380fe65dba2a,001,2024-06-30_06h41.50.105,empathy_intonation_perc,2024.1.4,Win32,59.95203837,,,,,,,,,,,,,,148,gino,,,,,,139.054,140.12,1,0,0.532,,0,76,76,147,1,pseudoword,0,REAL,FALSA
,,,,,,,,,5dcea4c3bc83380fe65dba2a,001,2024-06-30_06h41.50.105,empathy_intonation_perc,2024.1.4,Win32,59.95203837,,,,,,,,,,,,,,166,anfia,,,,,,140.12,141.286,1,0,0.649,,0,77,77,165,1,pseudoword,0,REAL,FALSA
,,,,,,,,,5dcea4c3bc83380fe65dba2a,001,2024-06-30_06h41.50.105,empathy_intonation_perc,2024.1.4,Win32,59.95203837,,,,,,,,,,,,,,78,rendir,,,,,,141.286,143.002,1,0,1.201,,0,78,78,77,1,non_cognate,1,REAL,FALSA
,,,,,,,,,5dcea4c3bc83380fe65dba2a,001,2024-06-30_06h41.50.105,empathy_intonation_perc,2024.1.4,Win32,59.95203837,,,,,,,,,,,,,,99,bugor,,,,,,143.003,149.118,1,0,5.583,,0,79,79,98,1,pseudoword,0,REAL,FALSA
,,,,,,,,,5dcea4c3bc83380fe65dba2a,001,2024-06-30_06h41.50.105,empathy_intonation_perc,2024.1.4,Win32,59.95203837,,,,,,,,,,,,,,74,ala,,,,,,149.118,150.219,1,0,0.583,,0,80,80,73,1,non_cognate,1,REAL,FALSA
,,,,,,,,,5dcea4c3bc83380fe65dba2a,001,2024-06-30_06h41.50.105,empathy_intonation_perc,2024.1.4,Win32,59.95203837,,,,,,,,,,,,,,125,ceme,,,,,,150.219,151.385,1,0,0.634,,0,81,81,124,1,pseudoword,0,REAL,FALSA
,,,,,,,,,5dcea4c3bc83380fe65dba2a,001,2024-06-30_06h41.50.105,empathy_intonation_perc,2024.1.4,Win32,59.95203837,,,,,,,,,,,,,,188,amplir,,,,,,151.385,154.884,1,0,2.987,,0,82,82,187,1,pseudoword,0,REAL,FALSA
,,,,,,,,,5dcea4c3bc83380fe65dba2a,001,2024-06-30_06h41.50.105,empathy_intonation_perc,2024.1.4,Win32,59.95203837,,,,,,,,,,,,,,84,aviso,,,,,,154.885,156.502,1,0,1.102,,0,83,83,83,1,non_cognate,1,REAL,FALSA
,,,,,,,,,5dcea4c3bc83380fe65dba2a,001,2024-06-30_06h41.50.105,empathy_intonation_perc,2024.1.4,Win32,59.95203837,,,,,,,,,,,,,,71,torta,,,,,,156.502,157.551,1,0,0.522,,0,84,84,70,1,non_cognate,1,REAL,FALSA
,,,,,,,,,5dcea4c3bc83380fe65dba2a,001,2024-06-30_06h41.50.105,empathy_intonation_perc,2024.1.4,Win32,59.95203837,,,,,,,,,,,,,,119,esís,,,,,,157.551,158.551,1,0,0.482,,0,85,85,118,1,pseudoword,0,REAL,FALSA
,,,,,,,,,5dcea4c3bc83380fe65dba2a,001,2024-06-30_06h41.50.105,empathy_intonation_perc,2024.1.4,Win32,59.95203837,,,,,,,,,,,,,,96,caro,,,,,,158.551,159.85,1,0,0.764,,0,86,86,95,1,non_cognate,1,REAL,FALSA
,,,,,,,,,5dcea4c3bc83380fe65dba2a,001,2024-06-30_06h41.50.105,empathy_intonation_perc,2024.1.4,Win32,59.95203837,,,,,,,,,,,,,,157,seled,,,,,,159.85,160.767,1,0,0.401,,0,87,87,156,1,pseudoword,0,REAL,FALSA
,,,,,,,,,5dcea4c3bc83380fe65dba2a,001,2024-06-30_06h41.50.105,empathy_intonation_perc,2024.1.4,Win32,59.95203837,,,,,,,,,,,,,,65,guerra,,,,,,160.767,161.666,1,0,0.364,,0,88,88,64,1,non_cognate,1,REAL,FALSA
,,,,,,,,,5dcea4c3bc83380fe65dba2a,001,2024-06-30_06h41.50.105,empathy_intonation_perc,2024.1.4,Win32,59.95203837,,,,,,,,,,,,,,152,prave,,,,,,161.667,162.568,1,0,0.378,,0,89,89,151,1,pseudoword,0,REAL,FALSA
,,,,,,,,,5dcea4c3bc83380fe65dba2a,001,2024-06-30_06h41.50.105,empathy_intonation_perc,2024.1.4,Win32,59.95203837,,,,,,,,,,,,,,116,grigir,,,,,,162.573,163.733,1,0,0.631,,0,90,90,115,1,pseudoword,0,REAL,FALSA
,,,,,,,,,5dcea4c3bc83380fe65dba2a,001,2024-06-30_06h41.50.105,empathy_intonation_perc,2024.1.4,Win32,59.95203837,,,,,,,,,,,,,,175,tradía,,,,,,163.733,165.267,1,0,1.022,,0,91,91,174,1,pseudoword,0,REAL,FALSA
,,,,,,,,,5dcea4c3bc83380fe65dba2a,001,2024-06-30_06h41.50.105,empathy_intonation_perc,2024.1.4,Win32,59.95203837,,,,,,,,,,,,,,159,trcia,,,,,,165.267,166.399,1,0,0.604,,0,92,92,158,1,pseudoword,0,REAL,FALSA
,,,,,,,,,5dcea4c3bc83380fe65dba2a,001,2024-06-30_06h41.50.105,empathy_intonation_perc,2024.1.4,Win32,59.95203837,,,,,,,,,,,,,,121,barbs,,,,,,166.399,167.482,1,0,0.564,,0,93,93,120,1,pseudoword,0,REAL,FALSA
,,,,,,,,,5dcea4c3bc83380fe65dba2a,001,2024-06-30_06h41.50.105,empathy_intonation_perc,2024.1.4,Win32,59.95203837,,,,,,,,,,,,,,101,losco,,,,,,167.483,168.467,1,0,0.461,,0,94,94,100,1,pseudoword,0,REAL,FALSA
,,,,,,,,,5dcea4c3bc83380fe65dba2a,001,2024-06-30_06h41.50.105,empathy_intonation_perc,2024.1.4,Win32,59.95203837,,,,,,,,,,,,,,176,gripar,,,,,,168.468,169.566,1,0,0.562,,0,95,95,175,1,pseudoword,0,REAL,FALSA
,,,,,,,,,5dcea4c3bc83380fe65dba2a,001,2024-06-30_06h41.50.105,empathy_intonation_perc,2024.1.4,Win32,59.95203837,,,,,,,,,,,,,,2,tumor,,,,,,169.567,174.232,0,1,4.133,,0,96,96,1,1,three_way_cognate,1,REAL,FALSA
,,,,,,,,,5dcea4c3bc83380fe65dba2a,001,2024-06-30_06h41.50.105,empathy_intonation_perc,2024.1.4,Win32,59.95203837,,,,,,,,,,,,,,132,nocó,,,,,,174.232,176.748,1,0,1.998,,0,97,97,131,1,pseudoword,0,REAL,FALSA
,,,,,,,,,5dcea4c3bc83380fe65dba2a,001,2024-06-30_06h41.50.105,empathy_intonation_perc,2024.1.4,Win32,59.95203837,,,,,,,,,,,,,,88,percha,,,,,,176.749,178.016,1,0,0.731,,0,98,98,87,1,non_cognate,1,REAL,FALSA
,,,,,,,,,5dcea4c3bc83380fe65dba2a,001,2024-06-30_06h41.50.105,empathy_intonation_perc,2024.1.4,Win32,59.95203837,,,,,,,,,,,,,,49,teñir,,,,,,178.016,179.665,0,1,1.113,,0,99,99,48,1,non_cognate,1,REAL,FALSA
,,,,,,,,,5dcea4c3bc83380fe65dba2a,001,2024-06-30_06h41.50.105,empathy_intonation_perc,2024.1.4,Win32,59.95203837,,,,,,,,,,,,,,90,venado,,,,,,179.665,180.831,1,0,0.649,,0,100,100,89,1,non_cognate,1,REAL,FALSA
,,,,,,,,,5dcea4c3bc83380fe65dba2a,001,2024-06-30_06h41.50.105,empathy_intonation_perc,2024.1.4,Win32,59.95203837,,,,,,,,,,,,,,120,mauja,,,,,,180.831,181.931,1,0,0.576,,0,101,101,119,1,pseudoword,0,REAL,FALSA
,,,,,,,,,5dcea4c3bc83380fe65dba2a,001,2024-06-30_06h41.50.105,empathy_intonation_perc,2024.1.4,Win32,59.95203837,,,,,,,,,,,,,,130,dubo,,,,,,181.931,183.231,1,0,0.779,,0,102,102,129,1,pseudoword,0,REAL,FALSA
,,,,,,,,,5dcea4c3bc83380fe65dba2a,001,2024-06-30_06h41.50.105,empathy_intonation_perc,2024.1.4,Win32,59.95203837,,,,,,,,,,,,,,51,listo,,,,,,183.231,184.331,1,0,0.572,,0,103,103,50,1,non_cognate,1,REAL,FALSA
,,,,,,,,,5dcea4c3bc83380fe65dba2a,001,2024-06-30_06h41.50.105,empathy_intonation_perc,2024.1.4,Win32,59.95203837,,,,,,,,,,,,,,186,rizate,,,,,,184.331,185.73,1,0,0.871,,0,104,104,185,1,pseudoword,0,REAL,FALSA
,,,,,,,,,5dcea4c3bc83380fe65dba2a,001,2024-06-30_06h41.50.105,empathy_intonation_perc,2024.1.4,Win32,59.95203837,,,,,,,,,,,,,,28,ardor,,,,,,185.73,186.83,1,0,0.586,,0,105,105,27,1,two_way_cognate,1,REAL,FALSA
,,,,,,,,,5dcea4c3bc83380fe65dba2a,001,2024-06-30_06h41.50.105,empathy_intonation_perc,2024.1.4,Win32,59.95203837,,,,,,,,,,,,,,174,pabea,,,,,,186.83,187.98,1,0,0.632,,0,106,106,173,1,pseudoword,0,REAL,FALSA
,,,,,,,,,5dcea4c3bc83380fe65dba2a,001,2024-06-30_06h41.50.105,empathy_intonation_perc,2024.1.4,Win32,59.95203837,,,,,,,,,,,,,,150,cricó,,,,,,187.981,189.063,1,0,0.547,,0,107,107,149,1,pseudoword,0,REAL,FALSA
,,,,,,,,,5dcea4c3bc83380fe65dba2a,001,2024-06-30_06h41.50.105,empathy_intonation_perc,2024.1.4,Win32,59.95203837,,,,,,,,,,,,,,155,kugis,,,,,,189.063,190.597,0,1,1.015,,0,108,108,154,1,pseudoword,0,REAL,FALSA
,,,,,,,,,5dcea4c3bc83380fe65dba2a,001,2024-06-30_06h41.50.105,empathy_intonation_perc,2024.1.4,Win32,59.95203837,,,,,,,,,,,,,,189,medium,,,,,,190.597,192.146,0,1,1.015,,0,109,109,188,1,pseudoword,0,REAL,FALSA
,,,,,,,,,5dcea4c3bc83380fe65dba2a,001,2024-06-30_06h41.50.105,empathy_intonation_perc,2024.1.4,Win32,59.95203837,,,,,,,,,,,,,,31,civil,,,,,,192.15,193.729,0,1,1.054,,0,110,110,30,1,two_way_cognate,1,REAL,FALSA
,,,,,,,,,5dcea4c3bc83380fe65dba2a,001,2024-06-30_06h41.50.105,empathy_intonation_perc,2024.1.4,Win32,59.95203837,,,,,,,,,,,,,,182,desaro,,,,,,193.729,195.029,1,0,0.785,,0,111,111,181,1,pseudoword,0,REAL,FALSA
,,,,,,,,,5dcea4c3bc83380fe65dba2a,001,2024-06-30_06h41.50.105,empathy_intonation_perc,2024.1.4,Win32,59.95203837,,,,,,,,,,,,,,73,llevar,,,,,,195.029,196.229,1,0,0.678,,0,112,112,72,1,non_cognate,1,REAL,FALSA
,,,,,,,,,5dcea4c3bc83380fe65dba2a,001,2024-06-30_06h41.50.105,empathy_intonation_perc,2024.1.4,Win32,59.95203837,,,,,,,,,,,,,,105,leniz,,,,,,196.229,198.062,1,0,1.316,,0,113,113,104,1,pseudoword,0,REAL,FALSA
,,,,,,,,,5dcea4c3bc83380fe65dba2a,001,2024-06-30_06h41.50.105,empathy_intonation_perc,2024.1.4,Win32,59.95203837,,,,,,,,,,,,,,76,chocar,,,,,,198.063,199.212,1,0,0.615,,0,114,114,75,1,non_cognate,1,REAL,FALSA
,,,,,,,,,5dcea4c3bc83380fe65dba2a,001,2024-06-30_06h41.50.105,empathy_intonation_perc,2024.1.4,Win32,59.95203837,,,,,,,,,,,,,,100,épinas,,,,,,199.212,200.778,1,0,1.041,,0,115,115,99,1,pseudoword,0,REAL,FALSA
,,,,,,,,,5dcea4c3bc83380fe65dba2a,001,2024-06-30_06h41.50.105,empathy_intonation_perc,2024.1.4,Win32,59.95203837,,,,,,,,,,,,,,160,fomeó,,,,,,200.779,202.079,1,0,0.789,,0,116,116,159,1,pseudoword,0,REAL,FALSA
,,,,,,,,,5dcea4c3bc83380fe65dba2a,001,2024-06-30_06h41.50.105,empathy_intonation_perc,2024.1.4,Win32,59.95203837,,,,,,,,,,,,,,177,entodo,,,,,,202.08,203.145,1,0,0.531,,0,117,117,176,1,pseudoword,0,REAL,FALSA
,,,,,,,,,5dcea4c3bc83380fe65dba2a,001,2024-06-30_06h41.50.105,empathy_intonation_perc,2024.1.4,Win32,59.95203837,,,,,,,,,,,,,,173,mibro,,,,,,203.145,204.312,1,0,0.637,,0,118,118,172,1,pseudoword,0,REAL,FALSA
,,,,,,,,,5dcea4c3bc83380fe65dba2a,001,2024-06-30_06h41.50.105,empathy_intonation_perc,2024.1.4,Win32,59.95203837,,,,,,,,,,,,,,23,plural,,,,,,204.313,205.594,0,1,0.747,,0,119,119,22,1,three_way_cognate,1,REAL,FALSA
,,,,,,,,,5dcea4c3bc83380fe65dba2a,001,2024-06-30_06h41.50.105,empathy_intonation_perc,2024.1.4,Win32,59.95203837,,,,,,,,,,,,,,83,hálito,,,,,,205.595,206.86,1,0,0.73,,0,120,120,82,1,non_cognate,1,REAL,FALSA
,,,,,,,,,5dcea4c3bc83380fe65dba2a,001,2024-06-30_06h41.50.105,empathy_intonation_perc,2024.1.4,Win32,59.95203837,,,,,,,,,,,,,,35,aurora,,,,,,206.861,208.161,1,0,0.784,,0,121,121,34,1,two_way_cognate,1,REAL,FALSA
,,,,,,,,,5dcea4c3bc83380fe65dba2a,001,2024-06-30_06h41.50.105,empathy_intonation_perc,2024.1.4,Win32,59.95203837,,,,,,,,,,,,,,53,punta,,,,,,208.161,209.344,1,0,0.666,,0,122,122,52,1,non_cognate,1,REAL,FALSA
,,,,,,,,,5dcea4c3bc83380fe65dba2a,001,2024-06-30_06h41.50.105,empathy_intonation_perc,2024.1.4,Win32,59.95203837,,,,,,,,,,,,,,39,casual,,,,,,209.345,210.876,0,1,0.997,,0,123,123,38,1,two_way_cognate,1,REAL,FALSA
,,,,,,,,,5dcea4c3bc83380fe65dba2a,001,2024-06-30_06h41.50.105,empathy_intonation_perc,2024.1.4,Win32,59.95203837,,,,,,,,,,,,,,179,suelet,,,,,,210.877,211.976,1,0,0.585,,0,124,124,178,1,pseudoword,0,REAL,FALSA
,,,,,,,,,5dcea4c3bc83380fe65dba2a,001,2024-06-30_06h41.50.105,empathy_intonation_perc,2024.1.4,Win32,59.95203837,,,,,,,,,,,,,,80,cuenco,,,,,,211.977,213.093,1,0,0.597,,0,125,125,79,1,non_cognate,1,REAL,FALSA
,,,,,,,,,5dcea4c3bc83380fe65dba2a,001,2024-06-30_06h41.50.105,empathy_intonation_perc,2024.1.4,Win32,59.95203837,,,,,,,,,,,,,,33,collar,,,,,,213.093,214.343,0,1,0.725,,0,126,126,32,1,two_way_cognate,1,REAL,FALSA
,,,,,,,,,5dcea4c3bc83380fe65dba2a,001,2024-06-30_06h41.50.105,empathy_intonation_perc,2024.1.4,Win32,59.95203837,,,,,,,,,,,,,,144,diroco,,,,,,214.343,215.393,1,0,0.535,,0,127,127,143,1,pseudoword,0,REAL,FALSA
,,,,,,,,,5dcea4c3bc83380fe65dba2a,001,2024-06-30_06h41.50.105,empathy_intonation_perc,2024.1.4,Win32,59.95203837,,,,,,,,,,,,,,41,pasta,,,,,,215.393,217.826,1,0,1.917,,0,128,128,40,1,two_way_cognate,1,REAL,FALSA
,,,,,,,,,5dcea4c3bc83380fe65dba2a,001,2024-06-30_06h41.50.105,empathy_intonation_perc,2024.1.4,Win32,59.95203837,,,,,,,,,,,,,,97,nocita,,,,,,217.827,219.076,1,0,0.727,,0,129,129,96,1,pseudoword,0,REAL,FALSA
,,,,,,,,,5dcea4c3bc83380fe65dba2a,001,2024-06-30_06h41.50.105,empathy_intonation_perc,2024.1.4,Win32,59.95203837,,,,,,,,,,,,,,20,trauma,,,,,,219.077,220.193,1,0,0.584,,0,130,130,19,1,three_way_cognate,1,REAL,FALSA
,,,,,,,,,5dcea4c3bc83380fe65dba2a,001,2024-06-30_06h41.50.105,empathy_intonation_perc,2024.1.4,Win32,59.95203837,,,,,,,,,,,,,,61,aduana,,,,,,220.193,221.576,1,0,0.852,,0,131,131,60,1,non_cognate,1,REAL,FALSA
,,,,,,,,,5dcea4c3bc83380fe65dba2a,001,2024-06-30_06h41.50.105,empathy_intonation_perc,2024.1.4,Win32,59.95203837,,,,,,,,,,,,,,66,aleta,,,,,,221.576,222.626,1,0,0.532,,0,132,132,65,1,non_cognate,1,REAL,FALSA
,,,,,,,,,5dcea4c3bc83380fe65dba2a,001,2024-06-30_06h41.50.105,empathy_intonation_perc,2024.1.4,Win32,59.95203837,,,,,,,,,,,,,,140,chorde,,,,,,222.629,223.725,1,0,0.569,,0,133,133,139,1,pseudoword,0,REAL,FALSA
,,,,,,,,,5dcea4c3bc83380fe65dba2a,001,2024-06-30_06h41.50.105,empathy_intonation_perc,2024.1.4,Win32,59.95203837,,,,,,,,,,,,,,156,ozoso,,,,,,223.726,224.925,1,0,0.663,,0,134,134,155,1,pseudoword,0,REAL,FALSA
,,,,,,,,,5dcea4c3bc83380fe65dba2a,001,2024-06-30_06h41.50.105,empathy_intonation_perc,2024.1.4,Win32,59.95203837,,,,,,,,,,,,,,72,rostro,,,,,,224.926,226.092,1,0,0.633,,0,135,135,71,1,non_cognate,1,REAL,FALSA
,,,,,,,,,5dcea4c3bc83380fe65dba2a,001,2024-06-30_06h41.50.105,empathy_intonation_perc,2024.1.4,Win32,59.95203837,,,,,,,,,,,,,,24,retina,,,,,,226.092,227.225,1,0,0.601,,0,136,136,23,1,three_way_cognate,1,REAL,FALSA
,,,,,,,,,5dcea4c3bc83380fe65dba2a,001,2024-06-30_06h41.50.105,empathy_intonation_perc,2024.1.4,Win32,59.95203837,,,,,,,,,,,,,,172,dogue,,,,,,227.225,228.259,1,0,0.52,,0,137,137,171,1,pseudoword,0,REAL,FALSA
,,,,,,,,,5dcea4c3bc83380fe65dba2a,001,2024-06-30_06h41.50.105,empathy_intonation_perc,2024.1.4,Win32,59.95203837,,,,,,,,,,,,,,187,nomata,,,,,,228.26,229.308,1,0,0.516,,0,138,138,186,1,pseudoword,0,REAL,FALSA
,,,,,,,,,5dcea4c3bc83380fe65dba2a,001,2024-06-30_06h41.50.105,empathy_intonation_perc,2024.1.4,Win32,59.95203837,,,,,,,,,,,,,,30,fiscal,,,,,,229.308,230.674,0,1,0.833,,0,139,139,29,1,two_way_cognate,1,REAL,FALSA
,,,,,,,,,5dcea4c3bc83380fe65dba2a,001,2024-06-30_06h41.50.105,empathy_intonation_perc,2024.1.4,Win32,59.95203837,,,,,,,,,,,,,,147,alla,,,,,,230.674,231.758,1,0,0.568,,0,140,140,146,1,pseudoword,0,REAL,FALSA
,,,,,,,,,5dcea4c3bc83380fe65dba2a,001,2024-06-30_06h41.50.105,empathy_intonation_perc,2024.1.4,Win32,59.95203837,,,,,,,,,,,,,,86,cuenco,,,,,,231.758,232.874,1,0,0.598,,0,141,141,85,1,non_cognate,1,REAL,FALSA
,,,,,,,,,5dcea4c3bc83380fe65dba2a,001,2024-06-30_06h41.50.105,empathy_intonation_perc,2024.1.4,Win32,59.95203837,,,,,,,,,,,,,,69,tiza,,,,,,232.874,233.874,1,0,0.483,,0,142,142,68,1,non_cognate,1,REAL,FALSA
,,,,,,,,,5dcea4c3bc83380fe65dba2a,001,2024-06-30_06h41.50.105,empathy_intonation_perc,2024.1.4,Win32,59.95203837,,,,,,,,,,,,,,161,civas,,,,,,233.875,234.907,1,0,0.499,,0,143,143,160,1,pseudoword,0,REAL,FALSA
,,,,,,,,,5dcea4c3bc83380fe65dba2a,001,2024-06-30_06h41.50.105,empathy_intonation_perc,2024.1.4,Win32,59.95203837,,,,,,,,,,,,,,129,vinzó,,,,,,234.907,235.99,1,0,0.572,,0,144,144,128,1,pseudoword,0,REAL,FALSA
,,,,,,,,,5dcea4c3bc83380fe65dba2a,001,2024-06-30_06h41.50.105,empathy_intonation_perc,2024.1.4,Win32,59.95203837,,,,,,,,,,,,,,183,edioso,,,,,,235.99,237.074,1,0,0.564,,0,145,145,182,1,pseudoword,0,REAL,FALSA
,,,,,,,,,5dcea4c3bc83380fe65dba2a,001,2024-06-30_06h41.50.105,empathy_intonation_perc,2024.1.4,Win32,59.95203837,,,,,,,,,,,,,,43,honor,,,,,,237.074,238.341,0,1,0.735,,0,146,146,42,1,two_way_cognate,1,REAL,FALSA
,,,,,,,,,5dcea4c3bc83380fe65dba2a,001,2024-06-30_06h41.50.105,empathy_intonation_perc,2024.1.4,Win32,59.95203837,,,,,,,,,,,,,,63,hilo,,,,,,238.342,239.49,1,0,0.622,,0,147,147,62,1,non_cognate,1,REAL,FALSA
,,,,,,,,,5dcea4c3bc83380fe65dba2a,001,2024-06-30_06h41.50.105,empathy_intonation_perc,2024.1.4,Win32,59.95203837,,,,,,,,,,,,,,77,suave,,,,,,239.49,240.89,1,0,0.878,,0,148,148,76,1,non_cognate,1,REAL,FALSA
,,,,,,,,,5dcea4c3bc83380fe65dba2a,001,2024-06-30_06h41.50.105,empathy_intonation_perc,2024.1.4,Win32,59.95203837,,,,,,,,,,,,,,138,tator,,,,,,240.89,242.339,1,0,0.915,,0,149,149,137,1,pseudoword,0,REAL,FALSA
,,,,,,,,,5dcea4c3bc83380fe65dba2a,001,2024-06-30_06h41.50.105,empathy_intonation_perc,2024.1.4,Win32,59.95203837,,,,,,,,,,,,,,93,tapa,,,,,,242.339,243.44,1,0,0.585,,0,150,150,92,1,non_cognate,1,REAL,FALSA
,,,,,,,,,5dcea4c3bc83380fe65dba2a,001,2024-06-30_06h41.50.105,empathy_intonation_perc,2024.1.4,Win32,59.95203837,,,,,,,,,,,,,,170,diabo,,,,,,243.441,244.405,1,0,0.432,,0,151,151,169,1,pseudoword,0,REAL,FALSA
,,,,,,,,,5dcea4c3bc83380fe65dba2a,001,2024-06-30_06h41.50.105,empathy_intonation_perc,2024.1.4,Win32,59.95203837,,,,,,,,,,,,,,104,estulo,,,,,,244.406,245.422,1,0,0.482,,0,152,152,103,1,pseudoword,0,REAL,FALSA
,,,,,,,,,5dcea4c3bc83380fe65dba2a,001,2024-06-30_06h41.50.105,empathy_intonation_perc,2024.1.4,Win32,59.95203837,,,,,,,,,,,,,,55,maldad,,,,,,245.422,246.406,1,0,0.466,,0,153,153,54,1,non_cognate,1,REAL,FALSA
,,,,,,,,,5dcea4c3bc83380fe65dba2a,001,2024-06-30_06h41.50.105,empathy_intonation_perc,2024.1.4,Win32,59.95203837,,,,,,,,,,,,,,112,samón,,,,,,246.406,247.972,1,0,1.031,,0,154,154,111,1,pseudoword,0,REAL,FALSA
,,,,,,,,,5dcea4c3bc83380fe65dba2a,001,2024-06-30_06h41.50.105,empathy_intonation_perc,2024.1.4,Win32,59.95203837,,,,,,,,,,,,,,108,jauda,,,,,,247.972,249.056,1,0,0.551,,0,155,155,107,1,pseudoword,0,REAL,FALSA
,,,,,,,,,5dcea4c3bc83380fe65dba2a,001,2024-06-30_06h41.50.105,empathy_intonation_perc,2024.1.4,Win32,59.95203837,,,,,,,,,,,,,,143,hurcos,,,,,,249.056,250.405,1,0,0.811,,0,156,156,142,1,pseudoword,0,REAL,FALSA
,,,,,,,,,5dcea4c3bc83380fe65dba2a,001,2024-06-30_06h41.50.105,empathy_intonation_perc,2024.1.4,Win32,59.95203837,,,,,,,,,,,,,,81,sacar,,,,,,250.405,251.505,1,0,0.583,,0,157,157,80,1,non_cognate,1,REAL,FALSA
,,,,,,,,,5dcea4c3bc83380fe65dba2a,001,2024-06-30_06h41.50.105,empathy_intonation_perc,2024.1.4,Win32,59.95203837,,,,,,,,,,,,,,158,babrá,,,,,,251.505,252.522,1,0,0.501,,0,158,158,157,1,pseudoword,0,REAL,FALSA
,,,,,,,,,5dcea4c3bc83380fe65dba2a,001,2024-06-30_06h41.50.105,empathy_intonation_perc,2024.1.4,Win32,59.95203837,,,,,,,,,,,,,,123,arane,,,,,,252.524,253.722,1,0,0.663,,0,159,159,122,1,pseudoword,0,REAL,FALSA
,,,,,,,,,5dcea4c3bc83380fe65dba2a,001,2024-06-30_06h41.50.105,empathy_intonation_perc,2024.1.4,Win32,59.95203837,,,,,,,,,,,,,,113,nasce,,,,,,253.722,254.788,1,0,0.531,,0,160,160,112,1,pseudoword,0,REAL,FALSA
,,,,,,,,,5dcea4c3bc83380fe65dba2a,001,2024-06-30_06h41.50.105,empathy_intonation_perc,2024.1.4,Win32,59.95203837,,,,,,,,,,,,,,165,chote,,,,,,254.788,256.054,1,0,0.748,,0,161,161,164,1,pseudoword,0,REAL,FALSA
,,,,,,,,,5dcea4c3bc83380fe65dba2a,001,2024-06-30_06h41.50.105,empathy_intonation_perc,2024.1.4,Win32,59.95203837,,,,,,,,,,,,,,89,muñeca,,,,,,256.055,257.104,1,0,0.53,,0,162,162,88,1,non_cognate,1,REAL,FALSA
,,,,,,,,,5dcea4c3bc83380fe65dba2a,001,2024-06-30_06h41.50.105,empathy_intonation_perc,2024.1.4,Win32,59.95203837,,,,,,,,,,,,,,29,clamor,,,,,,257.104,258.62,0,1,1.003,,0,163,163,28,1,two_way_cognate,1,REAL,FALSA
,,,,,,,,,5dcea4c3bc83380fe65dba2a,001,2024-06-30_06h41.50.105,empathy_intonation_perc,2024.1.4,Win32,59.95203837,,,,,,,,,,,,,,16,chat,,,,,,258.621,259.92,0,1,0.787,,0,164,164,15,1,three_way_cognate,1,REAL,FALSA
,,,,,,,,,5dcea4c3bc83380fe65dba2a,001,2024-06-30_06h41.50.105,empathy_intonation_perc,2024.1.4,Win32,59.95203837,,,,,,,,,,,,,,192,próces,,,,,,259.921,261.037,1,0,0.598,,0,165,165,191,1,pseudoword,0,REAL,FALSA
,,,,,,,,,5dcea4c3bc83380fe65dba2a,001,2024-06-30_06h41.50.105,empathy_intonation_perc,2024.1.4,Win32,59.95203837,,,,,,,,,,,,,,133,conso,,,,,,261.038,262.205,1,0,0.642,,0,166,166,132,1,pseudoword,0,REAL,FALSA
,,,,,,,,,5dcea4c3bc83380fe65dba2a,001,2024-06-30_06h41.50.105,empathy_intonation_perc,2024.1.4,Win32,59.95203837,,,,,,,,,,,,,,135,panté,,,,,,262.205,263.27,1,0,0.531,,0,167,167,134,1,pseudoword,0,REAL,FALSA
,,,,,,,,,5dcea4c3bc83380fe65dba2a,001,2024-06-30_06h41.50.105,empathy_intonation_perc,2024.1.4,Win32,59.95203837,,,,,,,,,,,,,,10,drama,,,,,,263.27,264.953,1,0,1.148,,0,168,168,9,1,three_way_cognate,1,REAL,FALSA
,,,,,,,,,5dcea4c3bc83380fe65dba2a,001,2024-06-30_06h41.50.105,empathy_intonation_perc,2024.1.4,Win32,59.95203837,,,,,,,,,,,,,,98,martir,,,,,,264.954,265.969,1,0,0.483,,0,169,169,97,1,pseudoword,0,REAL,FALSA
,,,,,,,,,5dcea4c3bc83380fe65dba2a,001,2024-06-30_06h41.50.105,empathy_intonation_perc,2024.1.4,Win32,59.95203837,,,,,,,,,,,,,,56,pico,,,,,,265.97,267.136,1,0,0.653,,0,170,170,55,1,non_cognate,1,REAL,FALSA
,,,,,,,,,5dcea4c3bc83380fe65dba2a,001,2024-06-30_06h41.50.105,empathy_intonation_perc,2024.1.4,Win32,59.95203837,,,,,,,,,,,,,,95,listo,,,,,,267.136,268.152,1,0,0.495,,0,171,171,94,1,non_cognate,1,REAL,FALSA
,,,,,,,,,5dcea4c3bc83380fe65dba2a,001,2024-06-30_06h41.50.105,empathy_intonation_perc,2024.1.4,Win32,59.95203837,,,,,,,,,,,,,,164,tecia,,,,,,268.153,269.169,1,0,0.501,,0,172,172,163,1,pseudoword,0,REAL,FALSA
,,,,,,,,,5dcea4c3bc83380fe65dba2a,001,2024-06-30_06h41.50.105,empathy_intonation_perc,2024.1.4,Win32,59.95203837,,,,,,,,,,,,,,50,sierra,,,,,,269.169,270.452,1,0,0.764,,0,173,173,49,1,non_cognate,1,REAL,FALSA
,,,,,,,,,5dcea4c3bc83380fe65dba2a,001,2024-06-30_06h41.50.105,empathy_intonation_perc,2024.1.4,Win32,59.95203837,,,,,,,,,,,,,,54,tapón,,,,,,270.453,271.503,1,0,0.515,,0,174,174,53,1,non_cognate,1,REAL,FALSA
,,,,,,,,,5dcea4c3bc83380fe65dba2a,001,2024-06-30_06h41.50.105,empathy_intonation_perc,2024.1.4,Win32,59.95203837,,,,,,,,,,,,,,185,aljizo,,,,,,271.503,272.502,1,0,0.465,,0,175,175,184,1,pseudoword,0,REAL,FALSA
,,,,,,,,,5dcea4c3bc83380fe65dba2a,001,2024-06-30_06h41.50.105,empathy_intonation_perc,2024.1.4,Win32,59.95203837,,,,,,,,,,,,,,75,patada,,,,,,272.502,273.702,1,0,0.676,,0,176,176,74,1,non_cognate,1,REAL,FALSA
,,,,,,,,,5dcea4c3bc83380fe65dba2a,001,2024-06-30_06h41.50.105,empathy_intonation_perc,2024.1.4,Win32,59.95203837,,,,,,,,,,,,,,7,albino,,,,,,273.702,274.935,1,0,0.713,,0,177,177,6,1,three_way_cognate,1,REAL,FALSA
,,,,,,,,,5dcea4c3bc83380fe65dba2a,001,2024-06-30_06h41.50.105,empathy_intonation_perc,2024.1.4,Win32,59.95203837,,,,,,,,,,,,,,79,suelo,,,,,,274.935,276.052,1,0,0.606,,0,178,178,78,1,non_cognate,1,REAL,FALSA
,,,,,,,,,5dcea4c3bc83380fe65dba2a,001,2024-06-30_06h41.50.105,empathy_intonation_perc,2024.1.4,Win32,59.95203837,,,,,,,,,,,,,,154,harvé,,,,,,276.052,277.119,1,0,0.547,,0,179,179,153,1,pseudoword,0,REAL,FALSA
,,,,,,,,,5dcea4c3bc83380fe65dba2a,001,2024-06-30_06h41.50.105,empathy_intonation_perc,2024.1.4,Win32,59.95203837,,,,,,,,,,,,,,27,piano,,,,,,277.119,278.402,1,0,0.762,,0,180,180,26,1,two_way_cognate,1,REAL,FALSA
,,,,,,,,,5dcea4c3bc83380fe65dba2a,001,2024-06-30_06h41.50.105,empathy_intonation_perc,2024.1.4,Win32,59.95203837,,,,,,,,,,,,,,85,enorme,,,,,,278.402,279.485,1,0,0.549,,0,181,181,84,1,non_cognate,1,REAL,FALSA
,,,,,,,,,5dcea4c3bc83380fe65dba2a,001,2024-06-30_06h41.50.105,empathy_intonation_perc,2024.1.4,Win32,59.95203837,,,,,,,,,,,,,,48,pelvis,,,,,,279.485,280.884,0,1,0.863,,0,182,182,47,1,two_way_cognate,1,REAL,FALSA
,,,,,,,,,5dcea4c3bc83380fe65dba2a,001,2024-06-30_06h41.50.105,empathy_intonation_perc,2024.1.4,Win32,59.95203837,,,,,,,,,,,,,,127,vien,,,,,,280.885,281.951,1,0,0.549,,0,183,183,126,1,pseudoword,0,REAL,FALSA
,,,,,,,,,5dcea4c3bc83380fe65dba2a,001,2024-06-30_06h41.50.105,empathy_intonation_perc,2024.1.4,Win32,59.95203837,,,,,,,,,,,,,,6,horror,,,,,,281.951,283.334,0,1,0.859,,0,184,184,5,1,three_way_cognate,1,REAL,FALSA
,,,,,,,,,5dcea4c3bc83380fe65dba2a,001,2024-06-30_06h41.50.105,empathy_intonation_perc,2024.1.4,Win32,59.95203837,,,,,,,,,,,,,,190,asumie,,,,,,283.335,284.485,1,0,0.615,,0,185,185,189,1,pseudoword,0,REAL,FALSA
,,,,,,,,,5dcea4c3bc83380fe65dba2a,001,2024-06-30_06h41.50.105,empathy_intonation_perc,2024.1.4,Win32,59.95203837,,,,,,,,,,,,,,114,dibrea,,,,,,284.485,285.634,1,0,0.632,,0,186,186,113,1,pseudoword,0,REAL,FALSA
,,,,,,,,,5dcea4c3bc83380fe65dba2a,001,2024-06-30_06h41.50.105,empathy_intonation_perc,2024.1.4,Win32,59.95203837,,,,,,,,,,,,,,184,huenos,,,,,,285.635,286.652,1,0,0.488,,0,187,187,183,1,pseudoword,0,REAL,FALSA
,,,,,,,,,5dcea4c3bc83380fe65dba2a,001,2024-06-30_06h41.50.105,empathy_intonation_perc,2024.1.4,Win32,59.95203837,,,,,,,,,,,,,,124,lobe,,,,,,286.656,287.684,1,0,0.493,,0,188,188,123,1,pseudoword,0,REAL,FALSA
,,,,,,,,,5dcea4c3bc83380fe65dba2a,001,2024-06-30_06h41.50.105,empathy_intonation_perc,2024.1.4,Win32,59.95203837,,,,,,,,,,,,,,134,molor,,,,,,287.684,288.733,1,0,0.515,,0,189,189,133,1,pseudoword,0,REAL,FALSA
,,,,,,,,,5dcea4c3bc83380fe65dba2a,001,2024-06-30_06h41.50.105,empathy_intonation_perc,2024.1.4,Win32,59.95203837,,,,,,,,,,,,,,44,editor,,,,,,288.733,290.033,0,1,0.776,,0,190,190,43,1,two_way_cognate,1,REAL,FALSA
,,,,,,,,,5dcea4c3bc83380fe65dba2a,001,2024-06-30_06h41.50.105,empathy_intonation_perc,2024.1.4,Win32,59.95203837,,,,,,,,,,,,,,115,lidena,,,,,,290.034,291.116,1,0,0.567,,0,191,191,114,1,pseudoword,0,REAL,FALSA
