lextale_instructions.started,lextale_instructions.stopped,lextale_instructions_loop.thisRepN,lextale_instructions_loop.thisTrialN,lextale_instructions_loop.thisN,lextale_instructions_loop.thisIndex,lextale_instructions_loop.ran,instructions_text,continue_text,participant,session,date,expName,psychopyVersion,OS,frameRate,lextale_practice.started,lextale_practice.stopped,key_resp_lextale_practice.keys,key_resp_lextale_practice.corr,key_resp_lextale_practice.rt,key_resp_lextale_practice.duration,lextale_practice_feedback.started,lextale_practice_feedback.stopped,lextale_practice_trials.thisRepN,lextale_practice_trials.thisTrialN,lextale_practice_trials.thisN,lextale_practice_trials.thisIndex,lextale_practice_trials.ran,stim,word,correct_response,prac_button_real,prac_button_false,lextale_check.started,lextale_check.stopped,lextale_trial.started,lextale_trial.stopped,key_resp_lextale_trial.keys,key_resp_lextale_trial.corr,key_resp_lextale_trial.rt,key_resp_lextale_trial.duration,lextail_trials.thisRepN,lextail_trials.thisTrialN,lextail_trials.thisN,lextail_trials.thisIndex,lextail_trials.ran,type,correct_reponse,button_real,button_false
0.0101,3.7753,0,0,0,0,1,"Este es un test de vocabulario en español. 
  
  A continuación vas a ver 90 secuencias de letras que parecen 'españolas'.
  
  Solo algunas de ellas son palabras de verdad.",(presiona la barra espaciadora para continuar),5e42fc295135b5000cd20d0b,001,2024-06-30_06h15.07.214,empathy_intonation_perc,2024.1.4,Linux x86_64,30.03003003,,,,,,,,,,,,,,,,,,,,,,,,,,,,,,,,,,,
3.7761,7.0238,0,1,1,1,1,"Por favor, señala las palabras que tú conoces (aquellas que estás convencido que son palabras españolas, incluso aunque no seas capaz de dar el significado preciso).",(presiona la barra espaciadora para continuar),5e42fc295135b5000cd20d0b,001,2024-06-30_06h15.07.214,empathy_intonation_perc,2024.1.4,Linux x86_64,30.03003003,,,,,,,,,,,,,,,,,,,,,,,,,,,,,,,,,,,
7.0243,27.4366,0,2,2,2,1,Pero cuidado: los errores se penalizan. Por eso no tiene sentido tratar de incrementar tu puntuación marcando como reales palabras que nunca has visto.,(presiona la barra espaciadora para continuar),5e42fc295135b5000cd20d0b,001,2024-06-30_06h15.07.214,empathy_intonation_perc,2024.1.4,Linux x86_64,30.03003003,,,,,,,,,,,,,,,,,,,,,,,,,,,,,,,,,,,
27.4371,31.9023,0,3,3,3,1,"Presiona la tecla 1 si piensas que es una palabra real y la tecla 
  0 si piensas que es una palabra falsa. 
  
  Vamos a practicar un poco...",(presiona la barra espaciadora para continuar),5e42fc295135b5000cd20d0b,001,2024-06-30_06h15.07.214,empathy_intonation_perc,2024.1.4,Linux x86_64,30.03003003,,,,,,,,,,,,,,,,,,,,,,,,,,,,,,,,,,,
,,,,,,,,,5e42fc295135b5000cd20d0b,001,2024-06-30_06h15.07.214,empathy_intonation_perc,2024.1.4,Linux x86_64,30.03003003,31.9069,33.4856,1,0,1.0498,,33.4859,34.4854,0,0,0,0,1,0,depiste,0,REAL,FALSA,,,,,,,,,,,,,,,,,
,,,,,,,,,5e42fc295135b5000cd20d0b,001,2024-06-30_06h15.07.214,empathy_intonation_perc,2024.1.4,Linux x86_64,30.03003003,34.4859,35.7518,0,0,0.7311,,35.752,36.7514,0,1,1,1,1,0,sí,1,REAL,FALSA,,,,,,,,,,,,,,,,,
,,,,,,,,,5e42fc295135b5000cd20d0b,001,2024-06-30_06h15.07.214,empathy_intonation_perc,2024.1.4,Linux x86_64,30.03003003,36.7517,39.5844,1,0,2.2997,,39.5845,40.5845,0,2,2,2,1,0,coné,0,REAL,FALSA,,,,,,,,,,,,,,,,,
,,,,,,,,,5e42fc295135b5000cd20d0b,001,2024-06-30_06h15.07.214,empathy_intonation_perc,2024.1.4,Linux x86_64,30.03003003,40.5852,42.4002,1,0,1.2857,,42.4002,43.4002,0,3,3,3,1,0,calpar,0,REAL,FALSA,,,,,,,,,,,,,,,,,
,,,,,,,,,5e42fc295135b5000cd20d0b,001,2024-06-30_06h15.07.214,empathy_intonation_perc,2024.1.4,Linux x86_64,30.03003003,43.4007,44.5665,1,0,0.6334,,44.5666,45.5662,0,4,4,4,1,0,joten,0,REAL,FALSA,,,,,,,,,,,,,,,,,
,,,,,,,,,5e42fc295135b5000cd20d0b,001,2024-06-30_06h15.07.214,empathy_intonation_perc,2024.1.4,Linux x86_64,30.03003003,45.5667,47.5001,1,1,1.4014,,47.5005,48.499,0,5,5,5,1,0,sacapuntas,1,REAL,FALSA,,,,,,,,,,,,,,,,,
,,,,,,,,,5e42fc295135b5000cd20d0b,001,2024-06-30_06h15.07.214,empathy_intonation_perc,2024.1.4,Linux x86_64,30.03003003,48.5097,50.4675,0,1,1.4421,,50.4676,51.4651,0,6,6,6,1,0,priba,0,REAL,FALSA,,,,,,,,,,,,,,,,,
,,,,,,,,,5e42fc295135b5000cd20d0b,001,2024-06-30_06h15.07.214,empathy_intonation_perc,2024.1.4,Linux x86_64,30.03003003,51.4656,53.0983,0,1,1.098,,53.0984,54.0979,0,7,7,7,1,0,pelasula,0,REAL,FALSA,,,,,,,,,,,,,,,,,
,,,,,,,,,5e42fc295135b5000cd20d0b,001,2024-06-30_06h15.07.214,empathy_intonation_perc,2024.1.4,Linux x86_64,30.03003003,54.1088,55.8977,1,1,1.2674,,55.8978,56.8988,0,8,8,8,1,0,bien,1,REAL,FALSA,,,,,,,,,,,,,,,,,
,,,,,,,,,5e42fc295135b5000cd20d0b,001,2024-06-30_06h15.07.214,empathy_intonation_perc,2024.1.4,Linux x86_64,30.03003003,56.8995,58.0978,1,1,0.6684,,58.0978,59.0969,0,9,9,9,1,0,casa,1,REAL,FALSA,,,,,,,,,,,,,,,,,
,,,,,,,,,5e42fc295135b5000cd20d0b,001,2024-06-30_06h15.07.214,empathy_intonation_perc,2024.1.4,Linux x86_64,30.03003003,59.0973,60.6799,1,0,1.0497,,60.68,61.68,0,10,10,10,1,0,lejo,0,REAL,FALSA,,,,,,,,,,,,,,,,,
,,,,,,,,,5e42fc295135b5000cd20d0b,001,2024-06-30_06h15.07.214,empathy_intonation_perc,2024.1.4,Linux x86_64,30.03003003,61.6818,63.3136,0,1,1.1014,,63.3137,64.3132,0,11,11,11,1,0,pretantas,0,REAL,FALSA,,,,,,,,,,,,,,,,,
,,,,,,,,,5e42fc295135b5000cd20d0b,001,2024-06-30_06h15.07.214,empathy_intonation_perc,2024.1.4,Linux x86_64,30.03003003,,,,,,,,,,,,,,,,,,,64.3156,67.0966,,,,,,,,,,,,,,,
,,,,,,,,,5e42fc295135b5000cd20d0b,001,2024-06-30_06h15.07.214,empathy_intonation_perc,2024.1.4,Linux x86_64,30.03003003,,,,,,,,,,,,,,31,civil,,,,,,67.125,69.2459,1,0,1.6002,,0,0,0,30,1,two_way_cognate,1,REAL,FALSA
,,,,,,,,,5e42fc295135b5000cd20d0b,001,2024-06-30_06h15.07.214,empathy_intonation_perc,2024.1.4,Linux x86_64,30.03003003,,,,,,,,,,,,,,174,pabea,,,,,,69.2471,71.2616,0,1,1.4787,,0,1,1,173,1,pseudoword,0,REAL,FALSA
,,,,,,,,,5e42fc295135b5000cd20d0b,001,2024-06-30_06h15.07.214,empathy_intonation_perc,2024.1.4,Linux x86_64,30.03003003,,,,,,,,,,,,,,99,bugor,,,,,,71.2631,72.5783,0,1,0.7836,,0,2,2,98,1,pseudoword,0,REAL,FALSA
,,,,,,,,,5e42fc295135b5000cd20d0b,001,2024-06-30_06h15.07.214,empathy_intonation_perc,2024.1.4,Linux x86_64,30.03003003,,,,,,,,,,,,,,105,leniz,,,,,,72.5792,73.9107,0,1,0.801,,0,3,3,104,1,pseudoword,0,REAL,FALSA
,,,,,,,,,5e42fc295135b5000cd20d0b,001,2024-06-30_06h15.07.214,empathy_intonation_perc,2024.1.4,Linux x86_64,30.03003003,,,,,,,,,,,,,,67,llamar,,,,,,73.9112,75.0607,1,0,0.6131,,0,4,4,66,1,non_cognate,1,REAL,FALSA
,,,,,,,,,5e42fc295135b5000cd20d0b,001,2024-06-30_06h15.07.214,empathy_intonation_perc,2024.1.4,Linux x86_64,30.03003003,,,,,,,,,,,,,,65,guerra,,,,,,75.0619,76.2435,1,0,0.6545,,0,5,5,64,1,non_cognate,1,REAL,FALSA
,,,,,,,,,5e42fc295135b5000cd20d0b,001,2024-06-30_06h15.07.214,empathy_intonation_perc,2024.1.4,Linux x86_64,30.03003003,,,,,,,,,,,,,,20,trauma,,,,,,76.2439,78.043,1,0,1.264,,0,6,6,19,1,three_way_cognate,1,REAL,FALSA
,,,,,,,,,5e42fc295135b5000cd20d0b,001,2024-06-30_06h15.07.214,empathy_intonation_perc,2024.1.4,Linux x86_64,30.03003003,,,,,,,,,,,,,,6,horror,,,,,,78.0437,79.1763,1,0,0.6039,,0,7,7,5,1,three_way_cognate,1,REAL,FALSA
,,,,,,,,,5e42fc295135b5000cd20d0b,001,2024-06-30_06h15.07.214,empathy_intonation_perc,2024.1.4,Linux x86_64,30.03003003,,,,,,,,,,,,,,56,pico,,,,,,79.1767,81.1275,1,0,1.4184,,0,8,8,55,1,non_cognate,1,REAL,FALSA
,,,,,,,,,5e42fc295135b5000cd20d0b,001,2024-06-30_06h15.07.214,empathy_intonation_perc,2024.1.4,Linux x86_64,30.03003003,,,,,,,,,,,,,,192,próces,,,,,,81.1279,82.4428,0,1,0.7805,,0,9,9,191,1,pseudoword,0,REAL,FALSA
,,,,,,,,,5e42fc295135b5000cd20d0b,001,2024-06-30_06h15.07.214,empathy_intonation_perc,2024.1.4,Linux x86_64,30.03003003,,,,,,,,,,,,,,4,flora,,,,,,82.4439,83.776,1,0,0.7976,,0,10,10,3,1,three_way_cognate,1,REAL,FALSA
,,,,,,,,,5e42fc295135b5000cd20d0b,001,2024-06-30_06h15.07.214,empathy_intonation_perc,2024.1.4,Linux x86_64,30.03003003,,,,,,,,,,,,,,147,alla,,,,,,83.7775,85.4253,1,0,1.1193,,0,11,11,146,1,pseudoword,0,REAL,FALSA
,,,,,,,,,5e42fc295135b5000cd20d0b,001,2024-06-30_06h15.07.214,empathy_intonation_perc,2024.1.4,Linux x86_64,30.03003003,,,,,,,,,,,,,,176,gripar,,,,,,85.427,86.8253,0,1,0.8631,,0,12,12,175,1,pseudoword,0,REAL,FALSA
,,,,,,,,,5e42fc295135b5000cd20d0b,001,2024-06-30_06h15.07.214,empathy_intonation_perc,2024.1.4,Linux x86_64,30.03003003,,,,,,,,,,,,,,23,plural,,,,,,86.8268,88.2417,1,0,0.8846,,0,13,13,22,1,three_way_cognate,1,REAL,FALSA
,,,,,,,,,5e42fc295135b5000cd20d0b,001,2024-06-30_06h15.07.214,empathy_intonation_perc,2024.1.4,Linux x86_64,30.03003003,,,,,,,,,,,,,,76,chocar,,,,,,88.2428,90.4913,1,0,1.7181,,0,14,14,75,1,non_cognate,1,REAL,FALSA
,,,,,,,,,5e42fc295135b5000cd20d0b,001,2024-06-30_06h15.07.214,empathy_intonation_perc,2024.1.4,Linux x86_64,30.03003003,,,,,,,,,,,,,,41,pasta,,,,,,90.4919,91.6741,1,0,0.647,,0,15,15,40,1,two_way_cognate,1,REAL,FALSA
,,,,,,,,,5e42fc295135b5000cd20d0b,001,2024-06-30_06h15.07.214,empathy_intonation_perc,2024.1.4,Linux x86_64,30.03003003,,,,,,,,,,,,,,106,diebro,,,,,,91.6752,93.5402,0,1,1.3293,,0,16,16,105,1,pseudoword,0,REAL,FALSA
,,,,,,,,,5e42fc295135b5000cd20d0b,001,2024-06-30_06h15.07.214,empathy_intonation_perc,2024.1.4,Linux x86_64,30.03003003,,,,,,,,,,,,,,182,desaro,,,,,,93.5406,94.6747,0,1,0.623,,0,17,17,181,1,pseudoword,0,REAL,FALSA
,,,,,,,,,5e42fc295135b5000cd20d0b,001,2024-06-30_06h15.07.214,empathy_intonation_perc,2024.1.4,Linux x86_64,30.03003003,,,,,,,,,,,,,,131,fuar,,,,,,94.6751,96.1572,0,1,0.9495,,0,18,18,130,1,pseudoword,0,REAL,FALSA
,,,,,,,,,5e42fc295135b5000cd20d0b,001,2024-06-30_06h15.07.214,empathy_intonation_perc,2024.1.4,Linux x86_64,30.03003003,,,,,,,,,,,,,,109,laras,,,,,,96.1587,97.4892,1,0,0.8004,,0,19,19,108,1,pseudoword,0,REAL,FALSA
,,,,,,,,,5e42fc295135b5000cd20d0b,001,2024-06-30_06h15.07.214,empathy_intonation_perc,2024.1.4,Linux x86_64,30.03003003,,,,,,,,,,,,,,163,olzan,,,,,,97.4896,98.9891,0,1,0.9641,,0,20,20,162,1,pseudoword,0,REAL,FALSA
,,,,,,,,,5e42fc295135b5000cd20d0b,001,2024-06-30_06h15.07.214,empathy_intonation_perc,2024.1.4,Linux x86_64,30.03003003,,,,,,,,,,,,,,24,retina,,,,,,98.9894,100.3726,1,0,0.8486,,0,21,21,23,1,three_way_cognate,1,REAL,FALSA
,,,,,,,,,5e42fc295135b5000cd20d0b,001,2024-06-30_06h15.07.214,empathy_intonation_perc,2024.1.4,Linux x86_64,30.03003003,,,,,,,,,,,,,,70,ánimo,,,,,,100.3743,101.8387,1,0,0.9334,,0,22,22,69,1,non_cognate,1,REAL,FALSA
,,,,,,,,,5e42fc295135b5000cd20d0b,001,2024-06-30_06h15.07.214,empathy_intonation_perc,2024.1.4,Linux x86_64,30.03003003,,,,,,,,,,,,,,126,tobre,,,,,,101.8399,103.0725,0,1,0.6962,,0,23,23,125,1,pseudoword,0,REAL,FALSA
,,,,,,,,,5e42fc295135b5000cd20d0b,001,2024-06-30_06h15.07.214,empathy_intonation_perc,2024.1.4,Linux x86_64,30.03003003,,,,,,,,,,,,,,32,animal,,,,,,103.0729,104.7048,1,0,1.0989,,0,24,24,31,1,two_way_cognate,1,REAL,FALSA
,,,,,,,,,5e42fc295135b5000cd20d0b,001,2024-06-30_06h15.07.214,empathy_intonation_perc,2024.1.4,Linux x86_64,30.03003003,,,,,,,,,,,,,,10,drama,,,,,,104.7054,108.2211,1,0,2.9792,,0,25,25,9,1,three_way_cognate,1,REAL,FALSA
,,,,,,,,,5e42fc295135b5000cd20d0b,001,2024-06-30_06h15.07.214,empathy_intonation_perc,2024.1.4,Linux x86_64,30.03003003,,,,,,,,,,,,,,127,vien,,,,,,108.2439,110.7376,1,0,1.9644,,0,26,26,126,1,pseudoword,0,REAL,FALSA
,,,,,,,,,5e42fc295135b5000cd20d0b,001,2024-06-30_06h15.07.214,empathy_intonation_perc,2024.1.4,Linux x86_64,30.03003003,,,,,,,,,,,,,,164,tecia,,,,,,110.7383,112.104,0,1,0.8321,,0,27,27,163,1,pseudoword,0,REAL,FALSA
,,,,,,,,,5e42fc295135b5000cd20d0b,001,2024-06-30_06h15.07.214,empathy_intonation_perc,2024.1.4,Linux x86_64,30.03003003,,,,,,,,,,,,,,150,cricó,,,,,,112.1045,113.6558,1,0,1.0222,,0,28,28,149,1,pseudoword,0,REAL,FALSA
,,,,,,,,,5e42fc295135b5000cd20d0b,001,2024-06-30_06h15.07.214,empathy_intonation_perc,2024.1.4,Linux x86_64,30.03003003,,,,,,,,,,,,,,97,nocita,,,,,,113.6565,115.2373,0,1,1.0567,,0,29,29,96,1,pseudoword,0,REAL,FALSA
,,,,,,,,,5e42fc295135b5000cd20d0b,001,2024-06-30_06h15.07.214,empathy_intonation_perc,2024.1.4,Linux x86_64,30.03003003,,,,,,,,,,,,,,9,portal,,,,,,115.2381,116.4203,1,0,0.6506,,0,30,30,8,1,three_way_cognate,1,REAL,FALSA
,,,,,,,,,5e42fc295135b5000cd20d0b,001,2024-06-30_06h15.07.214,empathy_intonation_perc,2024.1.4,Linux x86_64,30.03003003,,,,,,,,,,,,,,3,disco,,,,,,116.421,117.6023,1,0,0.6509,,0,31,31,2,1,three_way_cognate,1,REAL,FALSA
,,,,,,,,,5e42fc295135b5000cd20d0b,001,2024-06-30_06h15.07.214,empathy_intonation_perc,2024.1.4,Linux x86_64,30.03003003,,,,,,,,,,,,,,66,aleta,,,,,,117.6027,119.6026,0,1,1.4628,,0,32,32,65,1,non_cognate,1,REAL,FALSA
,,,,,,,,,5e42fc295135b5000cd20d0b,001,2024-06-30_06h15.07.214,empathy_intonation_perc,2024.1.4,Linux x86_64,30.03003003,,,,,,,,,,,,,,8,kilo,,,,,,119.6033,120.9186,1,0,0.7742,,0,33,33,7,1,three_way_cognate,1,REAL,FALSA
,,,,,,,,,5e42fc295135b5000cd20d0b,001,2024-06-30_06h15.07.214,empathy_intonation_perc,2024.1.4,Linux x86_64,30.03003003,,,,,,,,,,,,,,184,huenos,,,,,,120.9195,122.2707,1,0,0.8165,,0,34,34,183,1,pseudoword,0,REAL,FALSA
,,,,,,,,,5e42fc295135b5000cd20d0b,001,2024-06-30_06h15.07.214,empathy_intonation_perc,2024.1.4,Linux x86_64,30.03003003,,,,,,,,,,,,,,104,estulo,,,,,,122.2718,123.6512,1,0,0.8471,,0,35,35,103,1,pseudoword,0,REAL,FALSA
,,,,,,,,,5e42fc295135b5000cd20d0b,001,2024-06-30_06h15.07.214,empathy_intonation_perc,2024.1.4,Linux x86_64,30.03003003,,,,,,,,,,,,,,53,punta,,,,,,123.6516,124.8847,1,0,0.6982,,0,36,36,52,1,non_cognate,1,REAL,FALSA
,,,,,,,,,5e42fc295135b5000cd20d0b,001,2024-06-30_06h15.07.214,empathy_intonation_perc,2024.1.4,Linux x86_64,30.03003003,,,,,,,,,,,,,,85,enorme,,,,,,124.8855,126.6172,0,1,1.2034,,0,37,37,84,1,non_cognate,1,REAL,FALSA
,,,,,,,,,5e42fc295135b5000cd20d0b,001,2024-06-30_06h15.07.214,empathy_intonation_perc,2024.1.4,Linux x86_64,30.03003003,,,,,,,,,,,,,,77,suave,,,,,,126.6177,127.9001,1,0,0.7539,,0,38,38,76,1,non_cognate,1,REAL,FALSA
,,,,,,,,,5e42fc295135b5000cd20d0b,001,2024-06-30_06h15.07.214,empathy_intonation_perc,2024.1.4,Linux x86_64,30.03003003,,,,,,,,,,,,,,179,suelet,,,,,,127.9004,130.2505,0,1,1.821,,0,39,39,178,1,pseudoword,0,REAL,FALSA
,,,,,,,,,5e42fc295135b5000cd20d0b,001,2024-06-30_06h15.07.214,empathy_intonation_perc,2024.1.4,Linux x86_64,30.03003003,,,,,,,,,,,,,,25,vigor,,,,,,130.2515,131.2662,1,0,0.4795,,0,40,40,24,1,two_way_cognate,1,REAL,FALSA
,,,,,,,,,5e42fc295135b5000cd20d0b,001,2024-06-30_06h15.07.214,empathy_intonation_perc,2024.1.4,Linux x86_64,30.03003003,,,,,,,,,,,,,,128,pelí,,,,,,131.2667,133.2661,0,1,1.4716,,0,41,41,127,1,pseudoword,0,REAL,FALSA
,,,,,,,,,5e42fc295135b5000cd20d0b,001,2024-06-30_06h15.07.214,empathy_intonation_perc,2024.1.4,Linux x86_64,30.03003003,,,,,,,,,,,,,,49,teñir,,,,,,133.267,134.4994,1,0,0.7015,,0,42,42,48,1,non_cognate,1,REAL,FALSA
,,,,,,,,,5e42fc295135b5000cd20d0b,001,2024-06-30_06h15.07.214,empathy_intonation_perc,2024.1.4,Linux x86_64,30.03003003,,,,,,,,,,,,,,115,lidena,,,,,,134.5003,135.9818,0,1,0.9531,,0,43,43,114,1,pseudoword,0,REAL,FALSA
,,,,,,,,,5e42fc295135b5000cd20d0b,001,2024-06-30_06h15.07.214,empathy_intonation_perc,2024.1.4,Linux x86_64,30.03003003,,,,,,,,,,,,,,177,entodo,,,,,,135.9822,137.6827,0,1,1.1666,,0,44,44,176,1,pseudoword,0,REAL,FALSA
,,,,,,,,,5e42fc295135b5000cd20d0b,001,2024-06-30_06h15.07.214,empathy_intonation_perc,2024.1.4,Linux x86_64,30.03003003,,,,,,,,,,,,,,33,collar,,,,,,137.6834,138.948,1,0,0.7388,,0,45,45,32,1,two_way_cognate,1,REAL,FALSA
,,,,,,,,,5e42fc295135b5000cd20d0b,001,2024-06-30_06h15.07.214,empathy_intonation_perc,2024.1.4,Linux x86_64,30.03003003,,,,,,,,,,,,,,119,esís,,,,,,138.9514,140.082,0,1,0.6058,,0,46,46,118,1,pseudoword,0,REAL,FALSA
,,,,,,,,,5e42fc295135b5000cd20d0b,001,2024-06-30_06h15.07.214,empathy_intonation_perc,2024.1.4,Linux x86_64,30.03003003,,,,,,,,,,,,,,116,grigir,,,,,,140.0825,141.4141,0,1,0.7918,,0,47,47,115,1,pseudoword,0,REAL,FALSA
,,,,,,,,,5e42fc295135b5000cd20d0b,001,2024-06-30_06h15.07.214,empathy_intonation_perc,2024.1.4,Linux x86_64,30.03003003,,,,,,,,,,,,,,111,monue,,,,,,141.4144,142.4974,1,0,0.5444,,0,48,48,110,1,pseudoword,0,REAL,FALSA
,,,,,,,,,5e42fc295135b5000cd20d0b,001,2024-06-30_06h15.07.214,empathy_intonation_perc,2024.1.4,Linux x86_64,30.03003003,,,,,,,,,,,,,,107,plago,,,,,,142.4982,143.6137,0,1,0.5896,,0,49,49,106,1,pseudoword,0,REAL,FALSA
,,,,,,,,,5e42fc295135b5000cd20d0b,001,2024-06-30_06h15.07.214,empathy_intonation_perc,2024.1.4,Linux x86_64,30.03003003,,,,,,,,,,,,,,88,percha,,,,,,143.6141,145.0299,0,1,0.8874,,0,50,50,87,1,non_cognate,1,REAL,FALSA
,,,,,,,,,5e42fc295135b5000cd20d0b,001,2024-06-30_06h15.07.214,empathy_intonation_perc,2024.1.4,Linux x86_64,30.03003003,,,,,,,,,,,,,,160,fomeó,,,,,,145.0303,146.3811,0,1,0.8224,,0,51,51,159,1,pseudoword,0,REAL,FALSA
,,,,,,,,,5e42fc295135b5000cd20d0b,001,2024-06-30_06h15.07.214,empathy_intonation_perc,2024.1.4,Linux x86_64,30.03003003,,,,,,,,,,,,,,15,test,,,,,,146.3814,147.3962,1,0,0.4802,,0,52,52,14,1,three_way_cognate,1,REAL,FALSA
,,,,,,,,,5e42fc295135b5000cd20d0b,001,2024-06-30_06h15.07.214,empathy_intonation_perc,2024.1.4,Linux x86_64,30.03003003,,,,,,,,,,,,,,38,halo,,,,,,147.3966,148.4961,1,0,0.5666,,0,53,53,37,1,two_way_cognate,1,REAL,FALSA
,,,,,,,,,5e42fc295135b5000cd20d0b,001,2024-06-30_06h15.07.214,empathy_intonation_perc,2024.1.4,Linux x86_64,30.03003003,,,,,,,,,,,,,,68,puñal,,,,,,148.4965,149.9458,1,0,0.9223,,0,54,54,67,1,non_cognate,1,REAL,FALSA
,,,,,,,,,5e42fc295135b5000cd20d0b,001,2024-06-30_06h15.07.214,empathy_intonation_perc,2024.1.4,Linux x86_64,30.03003003,,,,,,,,,,,,,,156,ozoso,,,,,,149.9468,151.2786,0,1,0.805,,0,55,55,155,1,pseudoword,0,REAL,FALSA
,,,,,,,,,5e42fc295135b5000cd20d0b,001,2024-06-30_06h15.07.214,empathy_intonation_perc,2024.1.4,Linux x86_64,30.03003003,,,,,,,,,,,,,,48,pelvis,,,,,,151.2792,152.3121,1,0,0.5108,,0,56,56,47,1,two_way_cognate,1,REAL,FALSA
,,,,,,,,,5e42fc295135b5000cd20d0b,001,2024-06-30_06h15.07.214,empathy_intonation_perc,2024.1.4,Linux x86_64,30.03003003,,,,,,,,,,,,,,34,actor,,,,,,152.3125,153.3452,1,0,0.4996,,0,57,57,33,1,two_way_cognate,1,REAL,FALSA
,,,,,,,,,5e42fc295135b5000cd20d0b,001,2024-06-30_06h15.07.214,empathy_intonation_perc,2024.1.4,Linux x86_64,30.03003003,,,,,,,,,,,,,,125,ceme,,,,,,153.3458,154.662,0,1,0.7856,,0,58,58,124,1,pseudoword,0,REAL,FALSA
,,,,,,,,,5e42fc295135b5000cd20d0b,001,2024-06-30_06h15.07.214,empathy_intonation_perc,2024.1.4,Linux x86_64,30.03003003,,,,,,,,,,,,,,1,moral,,,,,,154.6633,155.6619,1,0,0.469,,0,59,59,0,1,three_way_cognate,1,REAL,FALSA
,,,,,,,,,5e42fc295135b5000cd20d0b,001,2024-06-30_06h15.07.214,empathy_intonation_perc,2024.1.4,Linux x86_64,30.03003003,,,,,,,,,,,,,,69,tiza,,,,,,155.6631,157.0119,0,1,0.8177,,0,60,60,68,1,non_cognate,1,REAL,FALSA
,,,,,,,,,5e42fc295135b5000cd20d0b,001,2024-06-30_06h15.07.214,empathy_intonation_perc,2024.1.4,Linux x86_64,30.03003003,,,,,,,,,,,,,,21,hotel,,,,,,157.0129,158.0289,1,0,0.4911,,0,61,61,20,1,three_way_cognate,1,REAL,FALSA
,,,,,,,,,5e42fc295135b5000cd20d0b,001,2024-06-30_06h15.07.214,empathy_intonation_perc,2024.1.4,Linux x86_64,30.03003003,,,,,,,,,,,,,,57,regalo,,,,,,158.0295,159.3613,1,0,0.7931,,0,62,62,56,1,non_cognate,1,REAL,FALSA
,,,,,,,,,5e42fc295135b5000cd20d0b,001,2024-06-30_06h15.07.214,empathy_intonation_perc,2024.1.4,Linux x86_64,30.03003003,,,,,,,,,,,,,,183,edioso,,,,,,159.3622,160.5468,0,1,0.6578,,0,63,63,182,1,pseudoword,0,REAL,FALSA
,,,,,,,,,5e42fc295135b5000cd20d0b,001,2024-06-30_06h15.07.214,empathy_intonation_perc,2024.1.4,Linux x86_64,30.03003003,,,,,,,,,,,,,,83,hálito,,,,,,160.5474,162.1599,1,0,1.0836,,0,64,64,82,1,non_cognate,1,REAL,FALSA
,,,,,,,,,5e42fc295135b5000cd20d0b,001,2024-06-30_06h15.07.214,empathy_intonation_perc,2024.1.4,Linux x86_64,30.03003003,,,,,,,,,,,,,,112,samón,,,,,,162.1605,164.0599,1,0,1.3669,,0,65,65,111,1,pseudoword,0,REAL,FALSA
,,,,,,,,,5e42fc295135b5000cd20d0b,001,2024-06-30_06h15.07.214,empathy_intonation_perc,2024.1.4,Linux x86_64,30.03003003,,,,,,,,,,,,,,189,medium,,,,,,164.0604,165.1094,1,0,0.5178,,0,66,66,188,1,pseudoword,0,REAL,FALSA
,,,,,,,,,5e42fc295135b5000cd20d0b,001,2024-06-30_06h15.07.214,empathy_intonation_perc,2024.1.4,Linux x86_64,30.03003003,,,,,,,,,,,,,,27,piano,,,,,,165.1097,166.5259,1,0,0.8866,,0,67,67,26,1,two_way_cognate,1,REAL,FALSA
,,,,,,,,,5e42fc295135b5000cd20d0b,001,2024-06-30_06h15.07.214,empathy_intonation_perc,2024.1.4,Linux x86_64,30.03003003,,,,,,,,,,,,,,165,chote,,,,,,166.5279,167.8259,0,1,0.7689,,0,68,68,164,1,pseudoword,0,REAL,FALSA
,,,,,,,,,5e42fc295135b5000cd20d0b,001,2024-06-30_06h15.07.214,empathy_intonation_perc,2024.1.4,Linux x86_64,30.03003003,,,,,,,,,,,,,,170,diabo,,,,,,167.8267,169.2085,0,1,0.8532,,0,69,69,169,1,pseudoword,0,REAL,FALSA
,,,,,,,,,5e42fc295135b5000cd20d0b,001,2024-06-30_06h15.07.214,empathy_intonation_perc,2024.1.4,Linux x86_64,30.03003003,,,,,,,,,,,,,,121,barbs,,,,,,169.2088,170.5431,0,1,0.809,,0,70,70,120,1,pseudoword,0,REAL,FALSA
,,,,,,,,,5e42fc295135b5000cd20d0b,001,2024-06-30_06h15.07.214,empathy_intonation_perc,2024.1.4,Linux x86_64,30.03003003,,,,,,,,,,,,,,118,bará,,,,,,170.5434,172.0249,0,1,0.9547,,0,71,71,117,1,pseudoword,0,REAL,FALSA
,,,,,,,,,5e42fc295135b5000cd20d0b,001,2024-06-30_06h15.07.214,empathy_intonation_perc,2024.1.4,Linux x86_64,30.03003003,,,,,,,,,,,,,,103,vueras,,,,,,172.0262,173.4909,0,1,0.9316,,0,72,72,102,1,pseudoword,0,REAL,FALSA
,,,,,,,,,5e42fc295135b5000cd20d0b,001,2024-06-30_06h15.07.214,empathy_intonation_perc,2024.1.4,Linux x86_64,30.03003003,,,,,,,,,,,,,,149,emén,,,,,,173.4913,174.6408,0,1,0.6309,,0,73,73,148,1,pseudoword,0,REAL,FALSA
,,,,,,,,,5e42fc295135b5000cd20d0b,001,2024-06-30_06h15.07.214,empathy_intonation_perc,2024.1.4,Linux x86_64,30.03003003,,,,,,,,,,,,,,80,cuenco,,,,,,174.6412,175.9913,0,1,0.8239,,0,74,74,79,1,non_cognate,1,REAL,FALSA
,,,,,,,,,5e42fc295135b5000cd20d0b,001,2024-06-30_06h15.07.214,empathy_intonation_perc,2024.1.4,Linux x86_64,30.03003003,,,,,,,,,,,,,,138,tator,,,,,,175.9923,177.157,1,0,0.6348,,0,75,75,137,1,pseudoword,0,REAL,FALSA
,,,,,,,,,5e42fc295135b5000cd20d0b,001,2024-06-30_06h15.07.214,empathy_intonation_perc,2024.1.4,Linux x86_64,30.03003003,,,,,,,,,,,,,,114,dibrea,,,,,,177.1575,178.3234,0,1,0.6489,,0,76,76,113,1,pseudoword,0,REAL,FALSA
,,,,,,,,,5e42fc295135b5000cd20d0b,001,2024-06-30_06h15.07.214,empathy_intonation_perc,2024.1.4,Linux x86_64,30.03003003,,,,,,,,,,,,,,173,mibro,,,,,,178.3237,179.8235,0,1,0.9796,,0,77,77,172,1,pseudoword,0,REAL,FALSA
,,,,,,,,,5e42fc295135b5000cd20d0b,001,2024-06-30_06h15.07.214,empathy_intonation_perc,2024.1.4,Linux x86_64,30.03003003,,,,,,,,,,,,,,62,pegar,,,,,,179.8248,180.8733,0,1,0.5116,,0,78,78,61,1,non_cognate,1,REAL,FALSA
,,,,,,,,,5e42fc295135b5000cd20d0b,001,2024-06-30_06h15.07.214,empathy_intonation_perc,2024.1.4,Linux x86_64,30.03003003,,,,,,,,,,,,,,84,aviso,,,,,,180.8744,181.8728,0,1,0.4621,,0,79,79,83,1,non_cognate,1,REAL,FALSA
,,,,,,,,,5e42fc295135b5000cd20d0b,001,2024-06-30_06h15.07.214,empathy_intonation_perc,2024.1.4,Linux x86_64,30.03003003,,,,,,,,,,,,,,52,blando,,,,,,181.8732,183.1227,0,1,0.7166,,0,80,80,51,1,non_cognate,1,REAL,FALSA
,,,,,,,,,5e42fc295135b5000cd20d0b,001,2024-06-30_06h15.07.214,empathy_intonation_perc,2024.1.4,Linux x86_64,30.03003003,,,,,,,,,,,,,,134,molor,,,,,,183.1231,184.1892,0,1,0.537,,0,81,81,133,1,pseudoword,0,REAL,FALSA
,,,,,,,,,5e42fc295135b5000cd20d0b,001,2024-06-30_06h15.07.214,empathy_intonation_perc,2024.1.4,Linux x86_64,30.03003003,,,,,,,,,,,,,,55,maldad,,,,,,184.19,185.5396,0,1,0.8191,,0,82,82,54,1,non_cognate,1,REAL,FALSA
,,,,,,,,,5e42fc295135b5000cd20d0b,001,2024-06-30_06h15.07.214,empathy_intonation_perc,2024.1.4,Linux x86_64,30.03003003,,,,,,,,,,,,,,175,tradía,,,,,,185.5403,186.5894,1,0,0.5196,,0,83,83,174,1,pseudoword,0,REAL,FALSA
,,,,,,,,,5e42fc295135b5000cd20d0b,001,2024-06-30_06h15.07.214,empathy_intonation_perc,2024.1.4,Linux x86_64,30.03003003,,,,,,,,,,,,,,145,rúo,,,,,,186.5912,187.8885,1,0,0.7724,,0,84,84,144,1,pseudoword,0,REAL,FALSA
,,,,,,,,,5e42fc295135b5000cd20d0b,001,2024-06-30_06h15.07.214,empathy_intonation_perc,2024.1.4,Linux x86_64,30.03003003,,,,,,,,,,,,,,108,jauda,,,,,,187.8888,189.6716,0,1,1.2512,,0,85,85,107,1,pseudoword,0,REAL,FALSA
,,,,,,,,,5e42fc295135b5000cd20d0b,001,2024-06-30_06h15.07.214,empathy_intonation_perc,2024.1.4,Linux x86_64,30.03003003,,,,,,,,,,,,,,143,hurcos,,,,,,189.6729,191.2049,0,1,1.0062,,0,86,86,142,1,pseudoword,0,REAL,FALSA
,,,,,,,,,5e42fc295135b5000cd20d0b,001,2024-06-30_06h15.07.214,empathy_intonation_perc,2024.1.4,Linux x86_64,30.03003003,,,,,,,,,,,,,,58,colcha,,,,,,191.207,193.8536,0,1,2.1113,,0,87,87,57,1,non_cognate,1,REAL,FALSA
,,,,,,,,,5e42fc295135b5000cd20d0b,001,2024-06-30_06h15.07.214,empathy_intonation_perc,2024.1.4,Linux x86_64,30.03003003,,,,,,,,,,,,,,155,kugis,,,,,,193.854,195.0041,0,1,0.627,,0,88,88,154,1,pseudoword,0,REAL,FALSA
,,,,,,,,,5e42fc295135b5000cd20d0b,001,2024-06-30_06h15.07.214,empathy_intonation_perc,2024.1.4,Linux x86_64,30.03003003,,,,,,,,,,,,,,42,rumor,,,,,,195.005,196.2376,1,0,0.6958,,0,89,89,41,1,two_way_cognate,1,REAL,FALSA
,,,,,,,,,5e42fc295135b5000cd20d0b,001,2024-06-30_06h15.07.214,empathy_intonation_perc,2024.1.4,Linux x86_64,30.03003003,,,,,,,,,,,,,,100,épinas,,,,,,196.238,197.6033,1,0,0.8341,,0,90,90,99,1,pseudoword,0,REAL,FALSA
,,,,,,,,,5e42fc295135b5000cd20d0b,001,2024-06-30_06h15.07.214,empathy_intonation_perc,2024.1.4,Linux x86_64,30.03003003,,,,,,,,,,,,,,46,mortal,,,,,,197.6045,198.7861,1,0,0.6472,,0,91,91,45,1,two_way_cognate,1,REAL,FALSA
,,,,,,,,,5e42fc295135b5000cd20d0b,001,2024-06-30_06h15.07.214,empathy_intonation_perc,2024.1.4,Linux x86_64,30.03003003,,,,,,,,,,,,,,96,caro,,,,,,198.7865,200.1027,1,0,0.7851,,0,92,92,95,1,non_cognate,1,REAL,FALSA
,,,,,,,,,5e42fc295135b5000cd20d0b,001,2024-06-30_06h15.07.214,empathy_intonation_perc,2024.1.4,Linux x86_64,30.03003003,,,,,,,,,,,,,,60,siglo,,,,,,200.104,201.4525,0,1,0.8162,,0,93,93,59,1,non_cognate,1,REAL,FALSA
,,,,,,,,,5e42fc295135b5000cd20d0b,001,2024-06-30_06h15.07.214,empathy_intonation_perc,2024.1.4,Linux x86_64,30.03003003,,,,,,,,,,,,,,16,chat,,,,,,201.4535,202.4536,1,0,0.4695,,0,94,94,15,1,three_way_cognate,1,REAL,FALSA
,,,,,,,,,5e42fc295135b5000cd20d0b,001,2024-06-30_06h15.07.214,empathy_intonation_perc,2024.1.4,Linux x86_64,30.03003003,,,,,,,,,,,,,,142,parre,,,,,,202.4546,203.7857,1,0,0.7972,,0,95,95,141,1,pseudoword,0,REAL,FALSA
,,,,,,,,,5e42fc295135b5000cd20d0b,001,2024-06-30_06h15.07.214,empathy_intonation_perc,2024.1.4,Linux x86_64,30.03003003,,,,,,,,,,,,,,92,flecha,,,,,,203.7864,205.3013,1,0,0.9796,,0,96,96,91,1,non_cognate,1,REAL,FALSA
,,,,,,,,,5e42fc295135b5000cd20d0b,001,2024-06-30_06h15.07.214,empathy_intonation_perc,2024.1.4,Linux x86_64,30.03003003,,,,,,,,,,,,,,39,casual,,,,,,205.3017,206.3513,1,0,0.5139,,0,97,97,38,1,two_way_cognate,1,REAL,FALSA
,,,,,,,,,5e42fc295135b5000cd20d0b,001,2024-06-30_06h15.07.214,empathy_intonation_perc,2024.1.4,Linux x86_64,30.03003003,,,,,,,,,,,,,,140,chorde,,,,,,206.3519,207.551,0,1,0.6622,,0,98,98,139,1,pseudoword,0,REAL,FALSA
,,,,,,,,,5e42fc295135b5000cd20d0b,001,2024-06-30_06h15.07.214,empathy_intonation_perc,2024.1.4,Linux x86_64,30.03003003,,,,,,,,,,,,,,11,golf,,,,,,207.5517,208.5511,1,0,0.4697,,0,99,99,10,1,three_way_cognate,1,REAL,FALSA
,,,,,,,,,5e42fc295135b5000cd20d0b,001,2024-06-30_06h15.07.214,empathy_intonation_perc,2024.1.4,Linux x86_64,30.03003003,,,,,,,,,,,,,,162,cengo,,,,,,208.5518,209.768,0,1,0.6812,,0,100,100,161,1,pseudoword,0,REAL,FALSA
,,,,,,,,,5e42fc295135b5000cd20d0b,001,2024-06-30_06h15.07.214,empathy_intonation_perc,2024.1.4,Linux x86_64,30.03003003,,,,,,,,,,,,,,113,nasce,,,,,,209.7696,210.8518,0,1,0.5519,,0,101,101,112,1,pseudoword,0,REAL,FALSA
,,,,,,,,,5e42fc295135b5000cd20d0b,001,2024-06-30_06h15.07.214,empathy_intonation_perc,2024.1.4,Linux x86_64,30.03003003,,,,,,,,,,,,,,133,conso,,,,,,210.8526,211.9339,0,1,0.5479,,0,102,102,132,1,pseudoword,0,REAL,FALSA
,,,,,,,,,5e42fc295135b5000cd20d0b,001,2024-06-30_06h15.07.214,empathy_intonation_perc,2024.1.4,Linux x86_64,30.03003003,,,,,,,,,,,,,,146,gió,,,,,,211.9347,213.6175,0,1,1.1547,,0,103,103,145,1,pseudoword,0,REAL,FALSA
,,,,,,,,,5e42fc295135b5000cd20d0b,001,2024-06-30_06h15.07.214,empathy_intonation_perc,2024.1.4,Linux x86_64,30.03003003,,,,,,,,,,,,,,191,frasis,,,,,,213.6181,214.7664,0,1,0.6166,,0,104,104,190,1,pseudoword,0,REAL,FALSA
,,,,,,,,,5e42fc295135b5000cd20d0b,001,2024-06-30_06h15.07.214,empathy_intonation_perc,2024.1.4,Linux x86_64,30.03003003,,,,,,,,,,,,,,117,morrá,,,,,,214.7668,216.4002,1,0,1.103,,0,105,105,116,1,pseudoword,0,REAL,FALSA
,,,,,,,,,5e42fc295135b5000cd20d0b,001,2024-06-30_06h15.07.214,empathy_intonation_perc,2024.1.4,Linux x86_64,30.03003003,,,,,,,,,,,,,,152,prave,,,,,,216.4017,217.8331,0,1,0.8984,,0,106,106,151,1,pseudoword,0,REAL,FALSA
,,,,,,,,,5e42fc295135b5000cd20d0b,001,2024-06-30_06h15.07.214,empathy_intonation_perc,2024.1.4,Linux x86_64,30.03003003,,,,,,,,,,,,,,153,golla,,,,,,217.834,219.1821,0,1,0.8172,,0,107,107,152,1,pseudoword,0,REAL,FALSA
,,,,,,,,,5e42fc295135b5000cd20d0b,001,2024-06-30_06h15.07.214,empathy_intonation_perc,2024.1.4,Linux x86_64,30.03003003,,,,,,,,,,,,,,178,inichó,,,,,,219.1825,220.7492,0,1,1.0314,,0,108,108,177,1,pseudoword,0,REAL,FALSA
,,,,,,,,,5e42fc295135b5000cd20d0b,001,2024-06-30_06h15.07.214,empathy_intonation_perc,2024.1.4,Linux x86_64,30.03003003,,,,,,,,,,,,,,87,muleta,,,,,,220.7509,222.0652,0,1,0.78,,0,109,109,86,1,non_cognate,1,REAL,FALSA
,,,,,,,,,5e42fc295135b5000cd20d0b,001,2024-06-30_06h15.07.214,empathy_intonation_perc,2024.1.4,Linux x86_64,30.03003003,,,,,,,,,,,,,,14,aura,,,,,,222.0663,223.3146,1,0,0.7089,,0,110,110,13,1,three_way_cognate,1,REAL,FALSA
,,,,,,,,,5e42fc295135b5000cd20d0b,001,2024-06-30_06h15.07.214,empathy_intonation_perc,2024.1.4,Linux x86_64,30.03003003,,,,,,,,,,,,,,54,tapón,,,,,,223.315,224.5643,0,1,0.7193,,0,111,111,53,1,non_cognate,1,REAL,FALSA
,,,,,,,,,5e42fc295135b5000cd20d0b,001,2024-06-30_06h15.07.214,empathy_intonation_perc,2024.1.4,Linux x86_64,30.03003003,,,,,,,,,,,,,,102,coyo,,,,,,224.5648,225.8979,1,0,0.8007,,0,112,112,101,1,pseudoword,0,REAL,FALSA
,,,,,,,,,5e42fc295135b5000cd20d0b,001,2024-06-30_06h15.07.214,empathy_intonation_perc,2024.1.4,Linux x86_64,30.03003003,,,,,,,,,,,,,,93,tapa,,,,,,225.8989,227.1642,1,0,0.7322,,0,113,113,92,1,non_cognate,1,REAL,FALSA
,,,,,,,,,5e42fc295135b5000cd20d0b,001,2024-06-30_06h15.07.214,empathy_intonation_perc,2024.1.4,Linux x86_64,30.03003003,,,,,,,,,,,,,,157,seled,,,,,,227.165,228.8808,0,1,1.1862,,0,114,114,156,1,pseudoword,0,REAL,FALSA
,,,,,,,,,5e42fc295135b5000cd20d0b,001,2024-06-30_06h15.07.214,empathy_intonation_perc,2024.1.4,Linux x86_64,30.03003003,,,,,,,,,,,,,,72,rostro,,,,,,228.8824,230.0308,1,0,0.6169,,0,115,115,71,1,non_cognate,1,REAL,FALSA
,,,,,,,,,5e42fc295135b5000cd20d0b,001,2024-06-30_06h15.07.214,empathy_intonation_perc,2024.1.4,Linux x86_64,30.03003003,,,,,,,,,,,,,,159,trcia,,,,,,230.0317,231.647,1,0,1.0887,,0,116,116,158,1,pseudoword,0,REAL,FALSA
,,,,,,,,,5e42fc295135b5000cd20d0b,001,2024-06-30_06h15.07.214,empathy_intonation_perc,2024.1.4,Linux x86_64,30.03003003,,,,,,,,,,,,,,13,plan,,,,,,231.6488,232.6966,1,0,0.5154,,0,117,117,12,1,three_way_cognate,1,REAL,FALSA
,,,,,,,,,5e42fc295135b5000cd20d0b,001,2024-06-30_06h15.07.214,empathy_intonation_perc,2024.1.4,Linux x86_64,30.03003003,,,,,,,,,,,,,,135,panté,,,,,,232.6971,234.3303,1,0,1.1075,,0,118,118,134,1,pseudoword,0,REAL,FALSA
,,,,,,,,,5e42fc295135b5000cd20d0b,001,2024-06-30_06h15.07.214,empathy_intonation_perc,2024.1.4,Linux x86_64,30.03003003,,,,,,,,,,,,,,120,mauja,,,,,,234.3307,235.846,0,1,0.9867,,0,119,119,119,1,pseudoword,0,REAL,FALSA
,,,,,,,,,5e42fc295135b5000cd20d0b,001,2024-06-30_06h15.07.214,empathy_intonation_perc,2024.1.4,Linux x86_64,30.03003003,,,,,,,,,,,,,,167,dobbo,,,,,,235.8469,237.1289,0,1,0.7464,,0,120,120,166,1,pseudoword,0,REAL,FALSA
,,,,,,,,,5e42fc295135b5000cd20d0b,001,2024-06-30_06h15.07.214,empathy_intonation_perc,2024.1.4,Linux x86_64,30.03003003,,,,,,,,,,,,,,44,editor,,,,,,237.1302,238.2454,1,0,0.5838,,0,121,121,43,1,two_way_cognate,1,REAL,FALSA
,,,,,,,,,5e42fc295135b5000cd20d0b,001,2024-06-30_06h15.07.214,empathy_intonation_perc,2024.1.4,Linux x86_64,30.03003003,,,,,,,,,,,,,,124,lobe,,,,,,238.2467,239.3781,1,0,0.597,,0,122,122,123,1,pseudoword,0,REAL,FALSA
,,,,,,,,,5e42fc295135b5000cd20d0b,001,2024-06-30_06h15.07.214,empathy_intonation_perc,2024.1.4,Linux x86_64,30.03003003,,,,,,,,,,,,,,18,altar,,,,,,239.3785,240.4945,1,0,0.579,,0,123,123,17,1,three_way_cognate,1,REAL,FALSA
,,,,,,,,,5e42fc295135b5000cd20d0b,001,2024-06-30_06h15.07.214,empathy_intonation_perc,2024.1.4,Linux x86_64,30.03003003,,,,,,,,,,,,,,61,aduana,,,,,,240.4958,241.9443,0,1,0.9134,,0,124,124,60,1,non_cognate,1,REAL,FALSA
,,,,,,,,,5e42fc295135b5000cd20d0b,001,2024-06-30_06h15.07.214,empathy_intonation_perc,2024.1.4,Linux x86_64,30.03003003,,,,,,,,,,,,,,180,pupica,,,,,,241.9448,243.211,1,0,0.737,,0,125,125,179,1,pseudoword,0,REAL,FALSA
,,,,,,,,,5e42fc295135b5000cd20d0b,001,2024-06-30_06h15.07.214,empathy_intonation_perc,2024.1.4,Linux x86_64,30.03003003,,,,,,,,,,,,,,26,enigma,,,,,,243.2123,244.7607,1,0,1.0174,,0,126,126,25,1,two_way_cognate,1,REAL,FALSA
,,,,,,,,,5e42fc295135b5000cd20d0b,001,2024-06-30_06h15.07.214,empathy_intonation_perc,2024.1.4,Linux x86_64,30.03003003,,,,,,,,,,,,,,154,harvé,,,,,,244.7615,246.2107,1,0,0.9208,,0,127,127,153,1,pseudoword,0,REAL,FALSA
,,,,,,,,,5e42fc295135b5000cd20d0b,001,2024-06-30_06h15.07.214,empathy_intonation_perc,2024.1.4,Linux x86_64,30.03003003,,,,,,,,,,,,,,132,nocó,,,,,,246.2115,247.4765,0,1,0.7356,,0,128,128,131,1,pseudoword,0,REAL,FALSA
,,,,,,,,,5e42fc295135b5000cd20d0b,001,2024-06-30_06h15.07.214,empathy_intonation_perc,2024.1.4,Linux x86_64,30.03003003,,,,,,,,,,,,,,28,ardor,,,,,,247.4769,248.8933,1,0,0.8788,,0,129,129,27,1,two_way_cognate,1,REAL,FALSA
,,,,,,,,,5e42fc295135b5000cd20d0b,001,2024-06-30_06h15.07.214,empathy_intonation_perc,2024.1.4,Linux x86_64,30.03003003,,,,,,,,,,,,,,171,gotro,,,,,,248.8941,250.7431,0,1,1.3235,,0,130,130,170,1,pseudoword,0,REAL,FALSA
,,,,,,,,,5e42fc295135b5000cd20d0b,001,2024-06-30_06h15.07.214,empathy_intonation_perc,2024.1.4,Linux x86_64,30.03003003,,,,,,,,,,,,,,130,dubo,,,,,,250.7436,251.8425,1,0,0.5744,,0,131,131,129,1,pseudoword,0,REAL,FALSA
,,,,,,,,,5e42fc295135b5000cd20d0b,001,2024-06-30_06h15.07.214,empathy_intonation_perc,2024.1.4,Linux x86_64,30.03003003,,,,,,,,,,,,,,186,rizate,,,,,,251.8429,253.0423,0,1,0.6696,,0,132,132,185,1,pseudoword,0,REAL,FALSA
,,,,,,,,,5e42fc295135b5000cd20d0b,001,2024-06-30_06h15.07.214,empathy_intonation_perc,2024.1.4,Linux x86_64,30.03003003,,,,,,,,,,,,,,169,pitis,,,,,,253.0431,254.242,0,1,0.663,,0,133,133,168,1,pseudoword,0,REAL,FALSA
,,,,,,,,,5e42fc295135b5000cd20d0b,001,2024-06-30_06h15.07.214,empathy_intonation_perc,2024.1.4,Linux x86_64,30.03003003,,,,,,,,,,,,,,190,asumie,,,,,,254.2428,255.4583,0,1,0.6836,,0,134,134,189,1,pseudoword,0,REAL,FALSA
,,,,,,,,,5e42fc295135b5000cd20d0b,001,2024-06-30_06h15.07.214,empathy_intonation_perc,2024.1.4,Linux x86_64,30.03003003,,,,,,,,,,,,,,187,nomata,,,,,,255.4586,256.5583,0,1,0.5665,,0,135,135,186,1,pseudoword,0,REAL,FALSA
,,,,,,,,,5e42fc295135b5000cd20d0b,001,2024-06-30_06h15.07.214,empathy_intonation_perc,2024.1.4,Linux x86_64,30.03003003,,,,,,,,,,,,,,71,torta,,,,,,256.5588,257.958,0,1,0.867,,0,136,136,70,1,non_cognate,1,REAL,FALSA
,,,,,,,,,5e42fc295135b5000cd20d0b,001,2024-06-30_06h15.07.214,empathy_intonation_perc,2024.1.4,Linux x86_64,30.03003003,,,,,,,,,,,,,,168,cobén,,,,,,257.9594,260.2076,0,1,1.7174,,0,137,137,167,1,pseudoword,0,REAL,FALSA
,,,,,,,,,5e42fc295135b5000cd20d0b,001,2024-06-30_06h15.07.214,empathy_intonation_perc,2024.1.4,Linux x86_64,30.03003003,,,,,,,,,,,,,,7,albino,,,,,,260.2107,261.7239,1,0,0.9819,,0,138,138,6,1,three_way_cognate,1,REAL,FALSA
,,,,,,,,,5e42fc295135b5000cd20d0b,001,2024-06-30_06h15.07.214,empathy_intonation_perc,2024.1.4,Linux x86_64,30.03003003,,,,,,,,,,,,,,74,ala,,,,,,261.7246,267.1395,0,1,4.8789,,0,139,139,73,1,non_cognate,1,REAL,FALSA
,,,,,,,,,5e42fc295135b5000cd20d0b,001,2024-06-30_06h15.07.214,empathy_intonation_perc,2024.1.4,Linux x86_64,30.03003003,,,,,,,,,,,,,,141,virios,,,,,,267.1556,268.4226,0,1,0.7464,,0,140,140,140,1,pseudoword,0,REAL,FALSA
,,,,,,,,,5e42fc295135b5000cd20d0b,001,2024-06-30_06h15.07.214,empathy_intonation_perc,2024.1.4,Linux x86_64,30.03003003,,,,,,,,,,,,,,98,martir,,,,,,268.4241,269.6085,0,1,0.6501,,0,141,141,97,1,pseudoword,0,REAL,FALSA
,,,,,,,,,5e42fc295135b5000cd20d0b,001,2024-06-30_06h15.07.214,empathy_intonation_perc,2024.1.4,Linux x86_64,30.03003003,,,,,,,,,,,,,,91,equipo,,,,,,269.609,270.8886,0,1,0.7521,,0,142,142,90,1,non_cognate,1,REAL,FALSA
,,,,,,,,,5e42fc295135b5000cd20d0b,001,2024-06-30_06h15.07.214,empathy_intonation_perc,2024.1.4,Linux x86_64,30.03003003,,,,,,,,,,,,,,188,amplir,,,,,,270.8889,273.788,0,1,2.3673,,0,143,143,187,1,pseudoword,0,REAL,FALSA
,,,,,,,,,5e42fc295135b5000cd20d0b,001,2024-06-30_06h15.07.214,empathy_intonation_perc,2024.1.4,Linux x86_64,30.03003003,,,,,,,,,,,,,,73,llevar,,,,,,273.7884,274.9045,0,1,0.5771,,0,144,144,72,1,non_cognate,1,REAL,FALSA
,,,,,,,,,5e42fc295135b5000cd20d0b,001,2024-06-30_06h15.07.214,empathy_intonation_perc,2024.1.4,Linux x86_64,30.03003003,,,,,,,,,,,,,,19,mafia,,,,,,274.9062,276.1542,1,0,0.7188,,0,145,145,18,1,three_way_cognate,1,REAL,FALSA
,,,,,,,,,5e42fc295135b5000cd20d0b,001,2024-06-30_06h15.07.214,empathy_intonation_perc,2024.1.4,Linux x86_64,30.03003003,,,,,,,,,,,,,,166,anfia,,,,,,276.1545,278.5373,1,0,1.8524,,0,146,146,165,1,pseudoword,0,REAL,FALSA
,,,,,,,,,5e42fc295135b5000cd20d0b,001,2024-06-30_06h15.07.214,empathy_intonation_perc,2024.1.4,Linux x86_64,30.03003003,,,,,,,,,,,,,,5,extra,,,,,,278.538,279.8538,1,0,0.781,,0,147,147,4,1,three_way_cognate,1,REAL,FALSA
,,,,,,,,,5e42fc295135b5000cd20d0b,001,2024-06-30_06h15.07.214,empathy_intonation_perc,2024.1.4,Linux x86_64,30.03003003,,,,,,,,,,,,,,101,losco,,,,,,279.8545,281.3718,0,1,0.9892,,0,148,148,100,1,pseudoword,0,REAL,FALSA
,,,,,,,,,5e42fc295135b5000cd20d0b,001,2024-06-30_06h15.07.214,empathy_intonation_perc,2024.1.4,Linux x86_64,30.03003003,,,,,,,,,,,,,,144,diroco,,,,,,281.3722,282.8864,0,1,0.9809,,0,149,149,143,1,pseudoword,0,REAL,FALSA
,,,,,,,,,5e42fc295135b5000cd20d0b,001,2024-06-30_06h15.07.214,empathy_intonation_perc,2024.1.4,Linux x86_64,30.03003003,,,,,,,,,,,,,,185,aljizo,,,,,,282.8877,284.5692,0,1,1.1524,,0,150,150,184,1,pseudoword,0,REAL,FALSA
,,,,,,,,,5e42fc295135b5000cd20d0b,001,2024-06-30_06h15.07.214,empathy_intonation_perc,2024.1.4,Linux x86_64,30.03003003,,,,,,,,,,,,,,136,hueas,,,,,,284.5696,286.1023,0,1,0.9985,,0,151,151,135,1,pseudoword,0,REAL,FALSA
,,,,,,,,,5e42fc295135b5000cd20d0b,001,2024-06-30_06h15.07.214,empathy_intonation_perc,2024.1.4,Linux x86_64,30.03003003,,,,,,,,,,,,,,12,dogma,,,,,,286.1027,287.4688,0,1,0.8344,,0,152,152,11,1,three_way_cognate,1,REAL,FALSA
,,,,,,,,,5e42fc295135b5000cd20d0b,001,2024-06-30_06h15.07.214,empathy_intonation_perc,2024.1.4,Linux x86_64,30.03003003,,,,,,,,,,,,,,123,arane,,,,,,287.4695,291.551,0,1,3.5482,,0,153,153,122,1,pseudoword,0,REAL,FALSA
,,,,,,,,,5e42fc295135b5000cd20d0b,001,2024-06-30_06h15.07.214,empathy_intonation_perc,2024.1.4,Linux x86_64,30.03003003,,,,,,,,,,,,,,81,sacar,,,,,,291.5615,292.9175,0,1,0.8316,,0,154,154,80,1,non_cognate,1,REAL,FALSA
,,,,,,,,,5e42fc295135b5000cd20d0b,001,2024-06-30_06h15.07.214,empathy_intonation_perc,2024.1.4,Linux x86_64,30.03003003,,,,,,,,,,,,,,90,venado,,,,,,292.9178,294.784,0,1,1.3536,,0,155,155,89,1,non_cognate,1,REAL,FALSA
,,,,,,,,,5e42fc295135b5000cd20d0b,001,2024-06-30_06h15.07.214,empathy_intonation_perc,2024.1.4,Linux x86_64,30.03003003,,,,,,,,,,,,,,94,forro,,,,,,294.7847,296.2504,0,1,0.9357,,0,156,156,93,1,non_cognate,1,REAL,FALSA
,,,,,,,,,5e42fc295135b5000cd20d0b,001,2024-06-30_06h15.07.214,empathy_intonation_perc,2024.1.4,Linux x86_64,30.03003003,,,,,,,,,,,,,,129,vinzó,,,,,,296.251,297.5867,1,0,0.807,,0,157,157,128,1,pseudoword,0,REAL,FALSA
,,,,,,,,,5e42fc295135b5000cd20d0b,001,2024-06-30_06h15.07.214,empathy_intonation_perc,2024.1.4,Linux x86_64,30.03003003,,,,,,,,,,,,,,59,feo,,,,,,297.5875,299.0496,0,1,0.9346,,0,158,158,58,1,non_cognate,1,REAL,FALSA
,,,,,,,,,5e42fc295135b5000cd20d0b,001,2024-06-30_06h15.07.214,empathy_intonation_perc,2024.1.4,Linux x86_64,30.03003003,,,,,,,,,,,,,,95,listo,,,,,,299.05,300.3995,0,1,0.8181,,0,159,159,94,1,non_cognate,1,REAL,FALSA
,,,,,,,,,5e42fc295135b5000cd20d0b,001,2024-06-30_06h15.07.214,empathy_intonation_perc,2024.1.4,Linux x86_64,30.03003003,,,,,,,,,,,,,,181,gravés,,,,,,300.3999,301.5659,0,1,0.6301,,0,160,160,180,1,pseudoword,0,REAL,FALSA
,,,,,,,,,5e42fc295135b5000cd20d0b,001,2024-06-30_06h15.07.214,empathy_intonation_perc,2024.1.4,Linux x86_64,30.03003003,,,,,,,,,,,,,,40,pelvis,,,,,,301.5662,302.6669,1,0,0.5729,,0,161,161,39,1,two_way_cognate,1,REAL,FALSA
,,,,,,,,,5e42fc295135b5000cd20d0b,001,2024-06-30_06h15.07.214,empathy_intonation_perc,2024.1.4,Linux x86_64,30.03003003,,,,,,,,,,,,,,51,listo,,,,,,302.6676,303.8992,1,0,0.7058,,0,162,162,50,1,non_cognate,1,REAL,FALSA
,,,,,,,,,5e42fc295135b5000cd20d0b,001,2024-06-30_06h15.07.214,empathy_intonation_perc,2024.1.4,Linux x86_64,30.03003003,,,,,,,,,,,,,,64,rizado,,,,,,303.8998,305.7318,1,0,1.3058,,0,163,163,63,1,non_cognate,1,REAL,FALSA
,,,,,,,,,5e42fc295135b5000cd20d0b,001,2024-06-30_06h15.07.214,empathy_intonation_perc,2024.1.4,Linux x86_64,30.03003003,,,,,,,,,,,,,,2,tumor,,,,,,305.733,307.0317,1,0,0.7719,,0,164,164,1,1,three_way_cognate,1,REAL,FALSA
,,,,,,,,,5e42fc295135b5000cd20d0b,001,2024-06-30_06h15.07.214,empathy_intonation_perc,2024.1.4,Linux x86_64,30.03003003,,,,,,,,,,,,,,82,brillo,,,,,,307.0326,308.3317,1,0,0.7663,,0,165,165,81,1,non_cognate,1,REAL,FALSA
,,,,,,,,,5e42fc295135b5000cd20d0b,001,2024-06-30_06h15.07.214,empathy_intonation_perc,2024.1.4,Linux x86_64,30.03003003,,,,,,,,,,,,,,29,clamor,,,,,,308.3326,309.4647,1,0,0.6021,,0,166,166,28,1,two_way_cognate,1,REAL,FALSA
,,,,,,,,,5e42fc295135b5000cd20d0b,001,2024-06-30_06h15.07.214,empathy_intonation_perc,2024.1.4,Linux x86_64,30.03003003,,,,,,,,,,,,,,89,muñeca,,,,,,309.4654,311.4971,0,1,1.4996,,0,167,167,88,1,non_cognate,1,REAL,FALSA
,,,,,,,,,5e42fc295135b5000cd20d0b,001,2024-06-30_06h15.07.214,empathy_intonation_perc,2024.1.4,Linux x86_64,30.03003003,,,,,,,,,,,,,,78,rendir,,,,,,311.4975,314.1809,0,1,2.1532,,0,168,168,77,1,non_cognate,1,REAL,FALSA
,,,,,,,,,5e42fc295135b5000cd20d0b,001,2024-06-30_06h15.07.214,empathy_intonation_perc,2024.1.4,Linux x86_64,30.03003003,,,,,,,,,,,,,,151,prías,,,,,,314.1913,315.2632,1,0,0.5473,,0,169,169,150,1,pseudoword,0,REAL,FALSA
,,,,,,,,,5e42fc295135b5000cd20d0b,001,2024-06-30_06h15.07.214,empathy_intonation_perc,2024.1.4,Linux x86_64,30.03003003,,,,,,,,,,,,,,79,suelo,,,,,,315.2635,316.4965,0,1,0.6976,,0,170,170,78,1,non_cognate,1,REAL,FALSA
,,,,,,,,,5e42fc295135b5000cd20d0b,001,2024-06-30_06h15.07.214,empathy_intonation_perc,2024.1.4,Linux x86_64,30.03003003,,,,,,,,,,,,,,35,aurora,,,,,,316.4968,317.7296,1,0,0.6993,,0,171,171,34,1,two_way_cognate,1,REAL,FALSA
,,,,,,,,,5e42fc295135b5000cd20d0b,001,2024-06-30_06h15.07.214,empathy_intonation_perc,2024.1.4,Linux x86_64,30.03003003,,,,,,,,,,,,,,45,total,,,,,,317.731,318.9634,1,0,0.707,,0,172,172,44,1,two_way_cognate,1,REAL,FALSA
,,,,,,,,,5e42fc295135b5000cd20d0b,001,2024-06-30_06h15.07.214,empathy_intonation_perc,2024.1.4,Linux x86_64,30.03003003,,,,,,,,,,,,,,75,patada,,,,,,318.9638,321.5288,0,1,2.0363,,0,173,173,74,1,non_cognate,1,REAL,FALSA
,,,,,,,,,5e42fc295135b5000cd20d0b,001,2024-06-30_06h15.07.214,empathy_intonation_perc,2024.1.4,Linux x86_64,30.03003003,,,,,,,,,,,,,,137,trugo,,,,,,321.5314,323.096,0,1,1.0372,,0,174,174,136,1,pseudoword,0,REAL,FALSA
,,,,,,,,,5e42fc295135b5000cd20d0b,001,2024-06-30_06h15.07.214,empathy_intonation_perc,2024.1.4,Linux x86_64,30.03003003,,,,,,,,,,,,,,110,densó,,,,,,323.0974,324.7121,0,1,1.0794,,0,175,175,109,1,pseudoword,0,REAL,FALSA
,,,,,,,,,5e42fc295135b5000cd20d0b,001,2024-06-30_06h15.07.214,empathy_intonation_perc,2024.1.4,Linux x86_64,30.03003003,,,,,,,,,,,,,,37,torso,,,,,,324.7138,326.3279,1,0,1.085,,0,176,176,36,1,two_way_cognate,1,REAL,FALSA
,,,,,,,,,5e42fc295135b5000cd20d0b,001,2024-06-30_06h15.07.214,empathy_intonation_perc,2024.1.4,Linux x86_64,30.03003003,,,,,,,,,,,,,,47,color,,,,,,326.3292,327.6281,1,0,0.7688,,0,177,177,46,1,two_way_cognate,1,REAL,FALSA
,,,,,,,,,5e42fc295135b5000cd20d0b,001,2024-06-30_06h15.07.214,empathy_intonation_perc,2024.1.4,Linux x86_64,30.03003003,,,,,,,,,,,,,,43,honor,,,,,,327.6289,330.2269,1,0,2.059,,0,178,178,42,1,two_way_cognate,1,REAL,FALSA
,,,,,,,,,5e42fc295135b5000cd20d0b,001,2024-06-30_06h15.07.214,empathy_intonation_perc,2024.1.4,Linux x86_64,30.03003003,,,,,,,,,,,,,,30,fiscal,,,,,,330.2371,331.4267,1,0,0.6718,,0,179,179,29,1,two_way_cognate,1,REAL,FALSA
,,,,,,,,,5e42fc295135b5000cd20d0b,001,2024-06-30_06h15.07.214,empathy_intonation_perc,2024.1.4,Linux x86_64,30.03003003,,,,,,,,,,,,,,17,clan,,,,,,331.4277,332.5431,1,0,0.5865,,0,180,180,16,1,three_way_cognate,1,REAL,FALSA
,,,,,,,,,5e42fc295135b5000cd20d0b,001,2024-06-30_06h15.07.214,empathy_intonation_perc,2024.1.4,Linux x86_64,30.03003003,,,,,,,,,,,,,,158,babrá,,,,,,332.5439,333.7283,0,1,0.6571,,0,181,181,157,1,pseudoword,0,REAL,FALSA
,,,,,,,,,5e42fc295135b5000cd20d0b,001,2024-06-30_06h15.07.214,empathy_intonation_perc,2024.1.4,Linux x86_64,30.03003003,,,,,,,,,,,,,,148,gino,,,,,,333.7295,334.9444,0,1,0.6939,,0,182,182,147,1,pseudoword,0,REAL,FALSA
,,,,,,,,,5e42fc295135b5000cd20d0b,001,2024-06-30_06h15.07.214,empathy_intonation_perc,2024.1.4,Linux x86_64,30.03003003,,,,,,,,,,,,,,122,boñaz,,,,,,334.9447,336.0259,0,1,0.5536,,0,183,183,121,1,pseudoword,0,REAL,FALSA
,,,,,,,,,5e42fc295135b5000cd20d0b,001,2024-06-30_06h15.07.214,empathy_intonation_perc,2024.1.4,Linux x86_64,30.03003003,,,,,,,,,,,,,,63,hilo,,,,,,336.0272,337.1093,0,1,0.5482,,0,184,184,62,1,non_cognate,1,REAL,FALSA
,,,,,,,,,5e42fc295135b5000cd20d0b,001,2024-06-30_06h15.07.214,empathy_intonation_perc,2024.1.4,Linux x86_64,30.03003003,,,,,,,,,,,,,,50,sierra,,,,,,337.1111,338.3265,1,0,0.6864,,0,185,185,49,1,non_cognate,1,REAL,FALSA
,,,,,,,,,5e42fc295135b5000cd20d0b,001,2024-06-30_06h15.07.214,empathy_intonation_perc,2024.1.4,Linux x86_64,30.03003003,,,,,,,,,,,,,,36,viable,,,,,,338.3287,339.392,1,0,0.533,,0,186,186,35,1,two_way_cognate,1,REAL,FALSA
,,,,,,,,,5e42fc295135b5000cd20d0b,001,2024-06-30_06h15.07.214,empathy_intonation_perc,2024.1.4,Linux x86_64,30.03003003,,,,,,,,,,,,,,86,cuenco,,,,,,339.3924,341.2415,1,0,1.3189,,0,187,187,85,1,non_cognate,1,REAL,FALSA
,,,,,,,,,5e42fc295135b5000cd20d0b,001,2024-06-30_06h15.07.214,empathy_intonation_perc,2024.1.4,Linux x86_64,30.03003003,,,,,,,,,,,,,,172,dogue,,,,,,341.2417,342.9415,1,0,1.1716,,0,188,188,171,1,pseudoword,0,REAL,FALSA
,,,,,,,,,5e42fc295135b5000cd20d0b,001,2024-06-30_06h15.07.214,empathy_intonation_perc,2024.1.4,Linux x86_64,30.03003003,,,,,,,,,,,,,,161,civas,,,,,,342.9429,344.5085,1,0,1.0323,,0,189,189,160,1,pseudoword,0,REAL,FALSA
,,,,,,,,,5e42fc295135b5000cd20d0b,001,2024-06-30_06h15.07.214,empathy_intonation_perc,2024.1.4,Linux x86_64,30.03003003,,,,,,,,,,,,,,22,mango,,,,,,344.509,345.524,1,0,0.4783,,0,190,190,21,1,three_way_cognate,1,REAL,FALSA
,,,,,,,,,5e42fc295135b5000cd20d0b,001,2024-06-30_06h15.07.214,empathy_intonation_perc,2024.1.4,Linux x86_64,30.03003003,,,,,,,,,,,,,,139,sasos,,,,,,345.5252,346.6736,0,1,0.6183,,0,191,191,138,1,pseudoword,0,REAL,FALSA
