lextale_instructions.started,lextale_instructions.stopped,lextale_instructions_loop.thisRepN,lextale_instructions_loop.thisTrialN,lextale_instructions_loop.thisN,lextale_instructions_loop.thisIndex,lextale_instructions_loop.ran,instructions_text,continue_text,participant,session,date,expName,psychopyVersion,OS,frameRate,lextale_practice.started,lextale_practice.stopped,key_resp_lextale_practice.keys,key_resp_lextale_practice.corr,key_resp_lextale_practice.rt,key_resp_lextale_practice.duration,lextale_practice_feedback.started,lextale_practice_feedback.stopped,lextale_practice_trials.thisRepN,lextale_practice_trials.thisTrialN,lextale_practice_trials.thisN,lextale_practice_trials.thisIndex,lextale_practice_trials.ran,stim,word,correct_response,prac_button_real,prac_button_false,lextale_check.started,lextale_check.stopped,lextale_trial.started,lextale_trial.stopped,key_resp_lextale_trial.keys,key_resp_lextale_trial.corr,key_resp_lextale_trial.rt,key_resp_lextale_trial.duration,lextail_trials.thisRepN,lextail_trials.thisTrialN,lextail_trials.thisN,lextail_trials.thisIndex,lextail_trials.ran,type,correct_reponse,button_real,button_false
0.0048,22.3748,0,0,0,0,1,"Este es un test de vocabulario en español. 
  
  A continuación vas a ver 90 secuencias de letras que parecen 'españolas'.
  
  Solo algunas de ellas son palabras de verdad.",(presiona la barra espaciadora para continuar),5ea1dc309315030c68262aa3,001,2024-06-30_06h11.55.533,empathy_intonation_perc,2024.1.4,Linux x86_64,56.17977528,,,,,,,,,,,,,,,,,,,,,,,,,,,,,,,,,,,
22.3756,33.2881,0,1,1,1,1,"Por favor, señala las palabras que tú conoces (aquellas que estás convencido que son palabras españolas, incluso aunque no seas capaz de dar el significado preciso).",(presiona la barra espaciadora para continuar),5ea1dc309315030c68262aa3,001,2024-06-30_06h11.55.533,empathy_intonation_perc,2024.1.4,Linux x86_64,56.17977528,,,,,,,,,,,,,,,,,,,,,,,,,,,,,,,,,,,
33.2886,57.5184,0,2,2,2,1,Pero cuidado: los errores se penalizan. Por eso no tiene sentido tratar de incrementar tu puntuación marcando como reales palabras que nunca has visto.,(presiona la barra espaciadora para continuar),5ea1dc309315030c68262aa3,001,2024-06-30_06h11.55.533,empathy_intonation_perc,2024.1.4,Linux x86_64,56.17977528,,,,,,,,,,,,,,,,,,,,,,,,,,,,,,,,,,,
57.534,66.1514,0,3,3,3,1,"Presiona la tecla 1 si piensas que es una palabra real y la tecla 
  0 si piensas que es una palabra falsa. 
  
  Vamos a practicar un poco...",(presiona la barra espaciadora para continuar),5ea1dc309315030c68262aa3,001,2024-06-30_06h11.55.533,empathy_intonation_perc,2024.1.4,Linux x86_64,56.17977528,,,,,,,,,,,,,,,,,,,,,,,,,,,,,,,,,,,
,,,,,,,,,5ea1dc309315030c68262aa3,001,2024-06-30_06h11.55.533,empathy_intonation_perc,2024.1.4,Linux x86_64,56.17977528,66.1701,72.4674,0,1,5.7675,,72.4807,73.4563,0,0,0,0,1,0,depiste,0,REAL,FALSA,,,,,,,,,,,,,,,,,
,,,,,,,,,5ea1dc309315030c68262aa3,001,2024-06-30_06h11.55.533,empathy_intonation_perc,2024.1.4,Linux x86_64,56.17977528,73.457,75.2664,1,1,1.2721,,75.2664,76.2655,0,1,1,1,1,0,sí,1,REAL,FALSA,,,,,,,,,,,,,,,,,
,,,,,,,,,5ea1dc309315030c68262aa3,001,2024-06-30_06h11.55.533,empathy_intonation_perc,2024.1.4,Linux x86_64,56.17977528,76.2659,78.7481,0,1,1.9524,,78.7482,79.7493,0,2,2,2,1,0,coné,0,REAL,FALSA,,,,,,,,,,,,,,,,,
,,,,,,,,,5ea1dc309315030c68262aa3,001,2024-06-30_06h11.55.533,empathy_intonation_perc,2024.1.4,Linux x86_64,56.17977528,79.7618,83.5486,1,0,3.2684,,83.5487,84.5516,0,3,3,3,1,0,calpar,0,REAL,FALSA,,,,,,,,,,,,,,,,,
,,,,,,,,,5ea1dc309315030c68262aa3,001,2024-06-30_06h11.55.533,empathy_intonation_perc,2024.1.4,Linux x86_64,56.17977528,84.5683,86.3133,0,1,1.2125,,86.3133,87.3142,0,4,4,4,1,0,joten,0,REAL,FALSA,,,,,,,,,,,,,,,,,
,,,,,,,,,5ea1dc309315030c68262aa3,001,2024-06-30_06h11.55.533,empathy_intonation_perc,2024.1.4,Linux x86_64,56.17977528,87.3146,89.4472,0,0,1.6004,,89.4473,90.447,0,5,5,5,1,0,sacapuntas,1,REAL,FALSA,,,,,,,,,,,,,,,,,
,,,,,,,,,5ea1dc309315030c68262aa3,001,2024-06-30_06h11.55.533,empathy_intonation_perc,2024.1.4,Linux x86_64,56.17977528,90.4617,93.4068,0,1,2.4199,,93.4068,94.3971,0,6,6,6,1,0,priba,0,REAL,FALSA,,,,,,,,,,,,,,,,,
,,,,,,,,,5ea1dc309315030c68262aa3,001,2024-06-30_06h11.55.533,empathy_intonation_perc,2024.1.4,Linux x86_64,56.17977528,94.413,97.9772,1,0,3.0266,,97.9773,98.9789,0,7,7,7,1,0,pelasula,0,REAL,FALSA,,,,,,,,,,,,,,,,,
,,,,,,,,,5ea1dc309315030c68262aa3,001,2024-06-30_06h11.55.533,empathy_intonation_perc,2024.1.4,Linux x86_64,56.17977528,98.9948,101.8478,1,1,2.324,,101.848,102.8472,0,8,8,8,1,0,bien,1,REAL,FALSA,,,,,,,,,,,,,,,,,
,,,,,,,,,5ea1dc309315030c68262aa3,001,2024-06-30_06h11.55.533,empathy_intonation_perc,2024.1.4,Linux x86_64,56.17977528,102.8604,104.6786,1,1,1.2874,,104.6786,105.6785,0,9,9,9,1,0,casa,1,REAL,FALSA,,,,,,,,,,,,,,,,,
,,,,,,,,,5ea1dc309315030c68262aa3,001,2024-06-30_06h11.55.533,empathy_intonation_perc,2024.1.4,Linux x86_64,56.17977528,105.6791,107.4106,0,1,1.1836,,107.4107,108.4118,0,10,10,10,1,0,lejo,0,REAL,FALSA,,,,,,,,,,,,,,,,,
,,,,,,,,,5ea1dc309315030c68262aa3,001,2024-06-30_06h11.55.533,empathy_intonation_perc,2024.1.4,Linux x86_64,56.17977528,108.4273,110.8777,0,1,1.9161,,110.8777,111.8692,0,11,11,11,1,0,pretantas,0,REAL,FALSA,,,,,,,,,,,,,,,,,
,,,,,,,,,5ea1dc309315030c68262aa3,001,2024-06-30_06h11.55.533,empathy_intonation_perc,2024.1.4,Linux x86_64,56.17977528,,,,,,,,,,,,,,,,,,,111.8698,123.8278,,,,,,,,,,,,,,,
,,,,,,,,,5ea1dc309315030c68262aa3,001,2024-06-30_06h11.55.533,empathy_intonation_perc,2024.1.4,Linux x86_64,56.17977528,,,,,,,,,,,,,,48,pelvis,,,,,,123.8495,126.3122,1,0,1.9467,,0,0,0,47,1,two_way_cognate,1,REAL,FALSA
,,,,,,,,,5ea1dc309315030c68262aa3,001,2024-06-30_06h11.55.533,empathy_intonation_perc,2024.1.4,Linux x86_64,56.17977528,,,,,,,,,,,,,,156,ozoso,,,,,,126.3127,128.4937,0,1,1.651,,0,1,1,155,1,pseudoword,0,REAL,FALSA
,,,,,,,,,5ea1dc309315030c68262aa3,001,2024-06-30_06h11.55.533,empathy_intonation_perc,2024.1.4,Linux x86_64,56.17977528,,,,,,,,,,,,,,9,portal,,,,,,128.4941,130.9076,1,0,1.8858,,0,2,2,8,1,three_way_cognate,1,REAL,FALSA
,,,,,,,,,5ea1dc309315030c68262aa3,001,2024-06-30_06h11.55.533,empathy_intonation_perc,2024.1.4,Linux x86_64,56.17977528,,,,,,,,,,,,,,8,kilo,,,,,,130.908,132.7531,1,0,1.3106,,0,3,3,7,1,three_way_cognate,1,REAL,FALSA
,,,,,,,,,5ea1dc309315030c68262aa3,001,2024-06-30_06h11.55.533,empathy_intonation_perc,2024.1.4,Linux x86_64,56.17977528,,,,,,,,,,,,,,151,prías,,,,,,132.7537,134.8576,0,1,1.5891,,0,4,4,150,1,pseudoword,0,REAL,FALSA
,,,,,,,,,5ea1dc309315030c68262aa3,001,2024-06-30_06h11.55.533,empathy_intonation_perc,2024.1.4,Linux x86_64,56.17977528,,,,,,,,,,,,,,191,frasis,,,,,,134.8581,137.123,1,0,1.7452,,0,5,5,190,1,pseudoword,0,REAL,FALSA
,,,,,,,,,5ea1dc309315030c68262aa3,001,2024-06-30_06h11.55.533,empathy_intonation_perc,2024.1.4,Linux x86_64,56.17977528,,,,,,,,,,,,,,139,sasos,,,,,,137.1234,139.2738,1,0,1.6197,,0,6,6,138,1,pseudoword,0,REAL,FALSA
,,,,,,,,,5ea1dc309315030c68262aa3,001,2024-06-30_06h11.55.533,empathy_intonation_perc,2024.1.4,Linux x86_64,56.17977528,,,,,,,,,,,,,,61,aduana,,,,,,139.2744,141.1416,0,1,1.3484,,0,7,7,60,1,non_cognate,1,REAL,FALSA
,,,,,,,,,5ea1dc309315030c68262aa3,001,2024-06-30_06h11.55.533,empathy_intonation_perc,2024.1.4,Linux x86_64,56.17977528,,,,,,,,,,,,,,56,pico,,,,,,141.142,143.0918,1,0,1.4229,,0,8,8,55,1,non_cognate,1,REAL,FALSA
,,,,,,,,,5ea1dc309315030c68262aa3,001,2024-06-30_06h11.55.533,empathy_intonation_perc,2024.1.4,Linux x86_64,56.17977528,,,,,,,,,,,,,,7,albino,,,,,,143.0921,145.1579,1,0,1.5233,,0,9,9,6,1,three_way_cognate,1,REAL,FALSA
,,,,,,,,,5ea1dc309315030c68262aa3,001,2024-06-30_06h11.55.533,empathy_intonation_perc,2024.1.4,Linux x86_64,56.17977528,,,,,,,,,,,,,,183,edioso,,,,,,145.1583,146.8738,0,1,1.1908,,0,10,10,182,1,pseudoword,0,REAL,FALSA
,,,,,,,,,5ea1dc309315030c68262aa3,001,2024-06-30_06h11.55.533,empathy_intonation_perc,2024.1.4,Linux x86_64,56.17977528,,,,,,,,,,,,,,5,extra,,,,,,146.8743,148.6285,1,0,1.2323,,0,11,11,4,1,three_way_cognate,1,REAL,FALSA
,,,,,,,,,5ea1dc309315030c68262aa3,001,2024-06-30_06h11.55.533,empathy_intonation_perc,2024.1.4,Linux x86_64,56.17977528,,,,,,,,,,,,,,150,cricó,,,,,,148.6289,151.9198,1,0,2.748,,0,12,12,149,1,pseudoword,0,REAL,FALSA
,,,,,,,,,5ea1dc309315030c68262aa3,001,2024-06-30_06h11.55.533,empathy_intonation_perc,2024.1.4,Linux x86_64,56.17977528,,,,,,,,,,,,,,110,densó,,,,,,151.9358,154.0533,1,0,1.5772,,0,13,13,109,1,pseudoword,0,REAL,FALSA
,,,,,,,,,5ea1dc309315030c68262aa3,001,2024-06-30_06h11.55.533,empathy_intonation_perc,2024.1.4,Linux x86_64,56.17977528,,,,,,,,,,,,,,67,llamar,,,,,,154.0538,157.2871,1,0,2.7022,,0,14,14,66,1,non_cognate,1,REAL,FALSA
,,,,,,,,,5ea1dc309315030c68262aa3,001,2024-06-30_06h11.55.533,empathy_intonation_perc,2024.1.4,Linux x86_64,56.17977528,,,,,,,,,,,,,,29,clamor,,,,,,157.2875,160.1693,1,0,2.3403,,0,15,15,28,1,two_way_cognate,1,REAL,FALSA
,,,,,,,,,5ea1dc309315030c68262aa3,001,2024-06-30_06h11.55.533,empathy_intonation_perc,2024.1.4,Linux x86_64,56.17977528,,,,,,,,,,,,,,192,próces,,,,,,160.1848,162.1257,0,1,1.431,,0,16,16,191,1,pseudoword,0,REAL,FALSA
,,,,,,,,,5ea1dc309315030c68262aa3,001,2024-06-30_06h11.55.533,empathy_intonation_perc,2024.1.4,Linux x86_64,56.17977528,,,,,,,,,,,,,,143,hurcos,,,,,,162.1262,165.1677,0,1,2.5052,,0,17,17,142,1,pseudoword,0,REAL,FALSA
,,,,,,,,,5ea1dc309315030c68262aa3,001,2024-06-30_06h11.55.533,empathy_intonation_perc,2024.1.4,Linux x86_64,56.17977528,,,,,,,,,,,,,,92,flecha,,,,,,165.1681,167.1237,1,0,1.4145,,0,18,18,91,1,non_cognate,1,REAL,FALSA
,,,,,,,,,5ea1dc309315030c68262aa3,001,2024-06-30_06h11.55.533,empathy_intonation_perc,2024.1.4,Linux x86_64,56.17977528,,,,,,,,,,,,,,127,vien,,,,,,167.124,169.552,1,0,1.9006,,0,19,19,126,1,pseudoword,0,REAL,FALSA
,,,,,,,,,5ea1dc309315030c68262aa3,001,2024-06-30_06h11.55.533,empathy_intonation_perc,2024.1.4,Linux x86_64,56.17977528,,,,,,,,,,,,,,49,teñir,,,,,,169.5524,172.3654,0,1,2.2788,,0,20,20,48,1,non_cognate,1,REAL,FALSA
,,,,,,,,,5ea1dc309315030c68262aa3,001,2024-06-30_06h11.55.533,empathy_intonation_perc,2024.1.4,Linux x86_64,56.17977528,,,,,,,,,,,,,,123,arane,,,,,,172.3783,179.1995,0,1,6.279,,0,21,21,122,1,pseudoword,0,REAL,FALSA
,,,,,,,,,5ea1dc309315030c68262aa3,001,2024-06-30_06h11.55.533,empathy_intonation_perc,2024.1.4,Linux x86_64,56.17977528,,,,,,,,,,,,,,28,ardor,,,,,,179.2151,181.1831,1,0,1.4325,,0,22,22,27,1,two_way_cognate,1,REAL,FALSA
,,,,,,,,,5ea1dc309315030c68262aa3,001,2024-06-30_06h11.55.533,empathy_intonation_perc,2024.1.4,Linux x86_64,56.17977528,,,,,,,,,,,,,,68,puñal,,,,,,181.1836,185.0986,1,0,3.3695,,0,23,23,67,1,non_cognate,1,REAL,FALSA
,,,,,,,,,5ea1dc309315030c68262aa3,001,2024-06-30_06h11.55.533,empathy_intonation_perc,2024.1.4,Linux x86_64,56.17977528,,,,,,,,,,,,,,82,brillo,,,,,,185.1142,186.6653,1,0,1.0324,,0,24,24,81,1,non_cognate,1,REAL,FALSA
,,,,,,,,,5ea1dc309315030c68262aa3,001,2024-06-30_06h11.55.533,empathy_intonation_perc,2024.1.4,Linux x86_64,56.17977528,,,,,,,,,,,,,,22,mango,,,,,,186.6658,188.3489,1,0,1.1483,,0,25,25,21,1,three_way_cognate,1,REAL,FALSA
,,,,,,,,,5ea1dc309315030c68262aa3,001,2024-06-30_06h11.55.533,empathy_intonation_perc,2024.1.4,Linux x86_64,56.17977528,,,,,,,,,,,,,,89,muñeca,,,,,,188.3494,191.5022,0,1,2.6138,,0,26,26,88,1,non_cognate,1,REAL,FALSA
,,,,,,,,,5ea1dc309315030c68262aa3,001,2024-06-30_06h11.55.533,empathy_intonation_perc,2024.1.4,Linux x86_64,56.17977528,,,,,,,,,,,,,,14,aura,,,,,,191.5027,195.1471,1,0,3.1131,,0,27,27,13,1,three_way_cognate,1,REAL,FALSA
,,,,,,,,,5ea1dc309315030c68262aa3,001,2024-06-30_06h11.55.533,empathy_intonation_perc,2024.1.4,Linux x86_64,56.17977528,,,,,,,,,,,,,,36,viable,,,,,,195.1631,202.9814,1,0,7.2961,,0,28,28,35,1,two_way_cognate,1,REAL,FALSA
,,,,,,,,,5ea1dc309315030c68262aa3,001,2024-06-30_06h11.55.533,empathy_intonation_perc,2024.1.4,Linux x86_64,56.17977528,,,,,,,,,,,,,,99,bugor,,,,,,202.9982,204.8315,0,1,1.3134,,0,29,29,98,1,pseudoword,0,REAL,FALSA
,,,,,,,,,5ea1dc309315030c68262aa3,001,2024-06-30_06h11.55.533,empathy_intonation_perc,2024.1.4,Linux x86_64,56.17977528,,,,,,,,,,,,,,60,siglo,,,,,,204.8319,210.245,1,0,4.8702,,0,30,30,59,1,non_cognate,1,REAL,FALSA
,,,,,,,,,5ea1dc309315030c68262aa3,001,2024-06-30_06h11.55.533,empathy_intonation_perc,2024.1.4,Linux x86_64,56.17977528,,,,,,,,,,,,,,95,listo,,,,,,210.2588,211.9549,1,0,1.1831,,0,31,31,94,1,non_cognate,1,REAL,FALSA
,,,,,,,,,5ea1dc309315030c68262aa3,001,2024-06-30_06h11.55.533,empathy_intonation_perc,2024.1.4,Linux x86_64,56.17977528,,,,,,,,,,,,,,80,cuenco,,,,,,211.9553,215.7124,1,0,3.2113,,0,32,32,79,1,non_cognate,1,REAL,FALSA
,,,,,,,,,5ea1dc309315030c68262aa3,001,2024-06-30_06h11.55.533,empathy_intonation_perc,2024.1.4,Linux x86_64,56.17977528,,,,,,,,,,,,,,27,piano,,,,,,215.7129,217.1457,1,0,0.9078,,0,33,33,26,1,two_way_cognate,1,REAL,FALSA
,,,,,,,,,5ea1dc309315030c68262aa3,001,2024-06-30_06h11.55.533,empathy_intonation_perc,2024.1.4,Linux x86_64,56.17977528,,,,,,,,,,,,,,58,colcha,,,,,,217.1461,219.8799,1,0,2.1981,,0,34,34,57,1,non_cognate,1,REAL,FALSA
,,,,,,,,,5ea1dc309315030c68262aa3,001,2024-06-30_06h11.55.533,empathy_intonation_perc,2024.1.4,Linux x86_64,56.17977528,,,,,,,,,,,,,,15,test,,,,,,219.8803,222.7772,1,0,2.3546,,0,35,35,14,1,three_way_cognate,1,REAL,FALSA
,,,,,,,,,5ea1dc309315030c68262aa3,001,2024-06-30_06h11.55.533,empathy_intonation_perc,2024.1.4,Linux x86_64,56.17977528,,,,,,,,,,,,,,21,hotel,,,,,,222.7927,224.5253,1,0,1.1977,,0,36,36,20,1,three_way_cognate,1,REAL,FALSA
,,,,,,,,,5ea1dc309315030c68262aa3,001,2024-06-30_06h11.55.533,empathy_intonation_perc,2024.1.4,Linux x86_64,56.17977528,,,,,,,,,,,,,,125,ceme,,,,,,224.5257,226.1256,0,1,1.0841,,0,37,37,124,1,pseudoword,0,REAL,FALSA
,,,,,,,,,5ea1dc309315030c68262aa3,001,2024-06-30_06h11.55.533,empathy_intonation_perc,2024.1.4,Linux x86_64,56.17977528,,,,,,,,,,,,,,52,blando,,,,,,226.1259,230.1078,1,0,3.4704,,0,38,38,51,1,non_cognate,1,REAL,FALSA
,,,,,,,,,5ea1dc309315030c68262aa3,001,2024-06-30_06h11.55.533,empathy_intonation_perc,2024.1.4,Linux x86_64,56.17977528,,,,,,,,,,,,,,70,ánimo,,,,,,230.1237,234.5408,1,0,3.8932,,0,39,39,69,1,non_cognate,1,REAL,FALSA
,,,,,,,,,5ea1dc309315030c68262aa3,001,2024-06-30_06h11.55.533,empathy_intonation_perc,2024.1.4,Linux x86_64,56.17977528,,,,,,,,,,,,,,124,lobe,,,,,,234.5549,238.2925,0,1,3.2254,,0,40,40,123,1,pseudoword,0,REAL,FALSA
,,,,,,,,,5ea1dc309315030c68262aa3,001,2024-06-30_06h11.55.533,empathy_intonation_perc,2024.1.4,Linux x86_64,56.17977528,,,,,,,,,,,,,,131,fuar,,,,,,238.3086,240.3912,0,1,1.561,,0,41,41,130,1,pseudoword,0,REAL,FALSA
,,,,,,,,,5ea1dc309315030c68262aa3,001,2024-06-30_06h11.55.533,empathy_intonation_perc,2024.1.4,Linux x86_64,56.17977528,,,,,,,,,,,,,,4,flora,,,,,,240.3916,242.2058,1,0,1.2583,,0,42,42,3,1,three_way_cognate,1,REAL,FALSA
,,,,,,,,,5ea1dc309315030c68262aa3,001,2024-06-30_06h11.55.533,empathy_intonation_perc,2024.1.4,Linux x86_64,56.17977528,,,,,,,,,,,,,,160,fomeó,,,,,,242.2061,246.6383,1,0,3.913,,0,43,43,159,1,pseudoword,0,REAL,FALSA
,,,,,,,,,5ea1dc309315030c68262aa3,001,2024-06-30_06h11.55.533,empathy_intonation_perc,2024.1.4,Linux x86_64,56.17977528,,,,,,,,,,,,,,140,chorde,,,,,,246.6519,249.0893,1,0,1.9104,,0,44,44,139,1,pseudoword,0,REAL,FALSA
,,,,,,,,,5ea1dc309315030c68262aa3,001,2024-06-30_06h11.55.533,empathy_intonation_perc,2024.1.4,Linux x86_64,56.17977528,,,,,,,,,,,,,,37,torso,,,,,,249.0898,250.5554,1,0,0.9181,,0,45,45,36,1,two_way_cognate,1,REAL,FALSA
,,,,,,,,,5ea1dc309315030c68262aa3,001,2024-06-30_06h11.55.533,empathy_intonation_perc,2024.1.4,Linux x86_64,56.17977528,,,,,,,,,,,,,,96,caro,,,,,,250.5559,255.7916,1,0,4.7097,,0,46,46,95,1,non_cognate,1,REAL,FALSA
,,,,,,,,,5ea1dc309315030c68262aa3,001,2024-06-30_06h11.55.533,empathy_intonation_perc,2024.1.4,Linux x86_64,56.17977528,,,,,,,,,,,,,,66,aleta,,,,,,255.8073,261.8192,0,1,5.4837,,0,47,47,65,1,non_cognate,1,REAL,FALSA
,,,,,,,,,5ea1dc309315030c68262aa3,001,2024-06-30_06h11.55.533,empathy_intonation_perc,2024.1.4,Linux x86_64,56.17977528,,,,,,,,,,,,,,72,rostro,,,,,,261.8298,264.3021,1,0,1.933,,0,48,48,71,1,non_cognate,1,REAL,FALSA
,,,,,,,,,5ea1dc309315030c68262aa3,001,2024-06-30_06h11.55.533,empathy_intonation_perc,2024.1.4,Linux x86_64,56.17977528,,,,,,,,,,,,,,133,conso,,,,,,264.3177,268.3687,1,0,3.5307,,0,49,49,132,1,pseudoword,0,REAL,FALSA
,,,,,,,,,5ea1dc309315030c68262aa3,001,2024-06-30_06h11.55.533,empathy_intonation_perc,2024.1.4,Linux x86_64,56.17977528,,,,,,,,,,,,,,117,morrá,,,,,,268.3842,271.1186,1,0,2.2225,,0,50,50,116,1,pseudoword,0,REAL,FALSA
,,,,,,,,,5ea1dc309315030c68262aa3,001,2024-06-30_06h11.55.533,empathy_intonation_perc,2024.1.4,Linux x86_64,56.17977528,,,,,,,,,,,,,,41,pasta,,,,,,271.1191,275.4002,1,0,3.736,,0,51,51,40,1,two_way_cognate,1,REAL,FALSA
,,,,,,,,,5ea1dc309315030c68262aa3,001,2024-06-30_06h11.55.533,empathy_intonation_perc,2024.1.4,Linux x86_64,56.17977528,,,,,,,,,,,,,,146,gió,,,,,,275.4144,280.4837,1,0,4.5496,,0,52,52,145,1,pseudoword,0,REAL,FALSA
,,,,,,,,,5ea1dc309315030c68262aa3,001,2024-06-30_06h11.55.533,empathy_intonation_perc,2024.1.4,Linux x86_64,56.17977528,,,,,,,,,,,,,,169,pitis,,,,,,280.4977,283.3502,0,1,2.3319,,0,53,53,168,1,pseudoword,0,REAL,FALSA
,,,,,,,,,5ea1dc309315030c68262aa3,001,2024-06-30_06h11.55.533,empathy_intonation_perc,2024.1.4,Linux x86_64,56.17977528,,,,,,,,,,,,,,75,patada,,,,,,283.3507,285.7824,1,0,1.8915,,0,54,54,74,1,non_cognate,1,REAL,FALSA
,,,,,,,,,5ea1dc309315030c68262aa3,001,2024-06-30_06h11.55.533,empathy_intonation_perc,2024.1.4,Linux x86_64,56.17977528,,,,,,,,,,,,,,153,golla,,,,,,285.7828,287.9833,1,0,1.6609,,0,55,55,152,1,pseudoword,0,REAL,FALSA
,,,,,,,,,5ea1dc309315030c68262aa3,001,2024-06-30_06h11.55.533,empathy_intonation_perc,2024.1.4,Linux x86_64,56.17977528,,,,,,,,,,,,,,19,mafia,,,,,,287.9837,293.9013,1,0,5.3703,,0,56,56,18,1,three_way_cognate,1,REAL,FALSA
,,,,,,,,,5ea1dc309315030c68262aa3,001,2024-06-30_06h11.55.533,empathy_intonation_perc,2024.1.4,Linux x86_64,56.17977528,,,,,,,,,,,,,,102,coyo,,,,,,293.9156,296.6166,1,0,2.1745,,0,57,57,101,1,pseudoword,0,REAL,FALSA
,,,,,,,,,5ea1dc309315030c68262aa3,001,2024-06-30_06h11.55.533,empathy_intonation_perc,2024.1.4,Linux x86_64,56.17977528,,,,,,,,,,,,,,155,kugis,,,,,,296.629,298.2677,0,1,1.125,,0,58,58,154,1,pseudoword,0,REAL,FALSA
,,,,,,,,,5ea1dc309315030c68262aa3,001,2024-06-30_06h11.55.533,empathy_intonation_perc,2024.1.4,Linux x86_64,56.17977528,,,,,,,,,,,,,,46,mortal,,,,,,298.2682,306.6799,1,0,7.8805,,0,59,59,45,1,two_way_cognate,1,REAL,FALSA
,,,,,,,,,5ea1dc309315030c68262aa3,001,2024-06-30_06h11.55.533,empathy_intonation_perc,2024.1.4,Linux x86_64,56.17977528,,,,,,,,,,,,,,189,medium,,,,,,306.6933,309.729,0,1,2.5011,,0,60,60,188,1,pseudoword,0,REAL,FALSA
,,,,,,,,,5ea1dc309315030c68262aa3,001,2024-06-30_06h11.55.533,empathy_intonation_perc,2024.1.4,Linux x86_64,56.17977528,,,,,,,,,,,,,,65,guerra,,,,,,309.7294,311.5946,1,0,1.3426,,0,61,61,64,1,non_cognate,1,REAL,FALSA
,,,,,,,,,5ea1dc309315030c68262aa3,001,2024-06-30_06h11.55.533,empathy_intonation_perc,2024.1.4,Linux x86_64,56.17977528,,,,,,,,,,,,,,97,nocita,,,,,,311.595,313.8121,1,0,1.6715,,0,62,62,96,1,pseudoword,0,REAL,FALSA
,,,,,,,,,5ea1dc309315030c68262aa3,001,2024-06-30_06h11.55.533,empathy_intonation_perc,2024.1.4,Linux x86_64,56.17977528,,,,,,,,,,,,,,81,sacar,,,,,,313.8127,315.5121,1,0,1.1702,,0,63,63,80,1,non_cognate,1,REAL,FALSA
,,,,,,,,,5ea1dc309315030c68262aa3,001,2024-06-30_06h11.55.533,empathy_intonation_perc,2024.1.4,Linux x86_64,56.17977528,,,,,,,,,,,,,,76,chocar,,,,,,315.5124,317.2283,1,0,1.169,,0,64,64,75,1,non_cognate,1,REAL,FALSA
,,,,,,,,,5ea1dc309315030c68262aa3,001,2024-06-30_06h11.55.533,empathy_intonation_perc,2024.1.4,Linux x86_64,56.17977528,,,,,,,,,,,,,,57,regalo,,,,,,317.2288,318.8446,1,0,1.072,,0,65,65,56,1,non_cognate,1,REAL,FALSA
,,,,,,,,,5ea1dc309315030c68262aa3,001,2024-06-30_06h11.55.533,empathy_intonation_perc,2024.1.4,Linux x86_64,56.17977528,,,,,,,,,,,,,,162,cengo,,,,,,318.8449,321.3775,1,0,1.9976,,0,66,66,161,1,pseudoword,0,REAL,FALSA
,,,,,,,,,5ea1dc309315030c68262aa3,001,2024-06-30_06h11.55.533,empathy_intonation_perc,2024.1.4,Linux x86_64,56.17977528,,,,,,,,,,,,,,53,punta,,,,,,321.3779,324.593,1,0,2.6672,,0,67,67,52,1,non_cognate,1,REAL,FALSA
,,,,,,,,,5ea1dc309315030c68262aa3,001,2024-06-30_06h11.55.533,empathy_intonation_perc,2024.1.4,Linux x86_64,56.17977528,,,,,,,,,,,,,,147,alla,,,,,,324.6092,327.2936,0,1,2.1683,,0,68,68,146,1,pseudoword,0,REAL,FALSA
,,,,,,,,,5ea1dc309315030c68262aa3,001,2024-06-30_06h11.55.533,empathy_intonation_perc,2024.1.4,Linux x86_64,56.17977528,,,,,,,,,,,,,,118,bará,,,,,,327.2939,330.6106,1,0,2.7905,,0,69,69,117,1,pseudoword,0,REAL,FALSA
,,,,,,,,,5ea1dc309315030c68262aa3,001,2024-06-30_06h11.55.533,empathy_intonation_perc,2024.1.4,Linux x86_64,56.17977528,,,,,,,,,,,,,,114,dibrea,,,,,,330.627,332.7927,0,1,1.6529,,0,70,70,113,1,pseudoword,0,REAL,FALSA
,,,,,,,,,5ea1dc309315030c68262aa3,001,2024-06-30_06h11.55.533,empathy_intonation_perc,2024.1.4,Linux x86_64,56.17977528,,,,,,,,,,,,,,168,cobén,,,,,,332.7931,343.4208,0,1,10.0962,,0,71,71,167,1,pseudoword,0,REAL,FALSA
,,,,,,,,,5ea1dc309315030c68262aa3,001,2024-06-30_06h11.55.533,empathy_intonation_perc,2024.1.4,Linux x86_64,56.17977528,,,,,,,,,,,,,,43,honor,,,,,,343.4372,346.0732,1,0,2.1059,,0,72,72,42,1,two_way_cognate,1,REAL,FALSA
,,,,,,,,,5ea1dc309315030c68262aa3,001,2024-06-30_06h11.55.533,empathy_intonation_perc,2024.1.4,Linux x86_64,56.17977528,,,,,,,,,,,,,,154,harvé,,,,,,346.0736,353.3901,0,1,6.7803,,0,73,73,153,1,pseudoword,0,REAL,FALSA
,,,,,,,,,5ea1dc309315030c68262aa3,001,2024-06-30_06h11.55.533,empathy_intonation_perc,2024.1.4,Linux x86_64,56.17977528,,,,,,,,,,,,,,31,civil,,,,,,353.4057,354.9739,1,0,1.05,,0,74,74,30,1,two_way_cognate,1,REAL,FALSA
,,,,,,,,,5ea1dc309315030c68262aa3,001,2024-06-30_06h11.55.533,empathy_intonation_perc,2024.1.4,Linux x86_64,56.17977528,,,,,,,,,,,,,,190,asumie,,,,,,354.9743,358.9385,0,1,3.4373,,0,75,75,189,1,pseudoword,0,REAL,FALSA
,,,,,,,,,5ea1dc309315030c68262aa3,001,2024-06-30_06h11.55.533,empathy_intonation_perc,2024.1.4,Linux x86_64,56.17977528,,,,,,,,,,,,,,157,seled,,,,,,358.9552,370.7536,0,1,11.2642,,0,76,76,156,1,pseudoword,0,REAL,FALSA
,,,,,,,,,5ea1dc309315030c68262aa3,001,2024-06-30_06h11.55.533,empathy_intonation_perc,2024.1.4,Linux x86_64,56.17977528,,,,,,,,,,,,,,178,inichó,,,,,,370.7698,376.9217,0,1,5.6162,,0,77,77,177,1,pseudoword,0,REAL,FALSA
,,,,,,,,,5ea1dc309315030c68262aa3,001,2024-06-30_06h11.55.533,empathy_intonation_perc,2024.1.4,Linux x86_64,56.17977528,,,,,,,,,,,,,,24,retina,,,,,,376.9376,378.7042,1,0,1.2321,,0,78,78,23,1,three_way_cognate,1,REAL,FALSA
,,,,,,,,,5ea1dc309315030c68262aa3,001,2024-06-30_06h11.55.533,empathy_intonation_perc,2024.1.4,Linux x86_64,56.17977528,,,,,,,,,,,,,,84,aviso,,,,,,378.7046,380.5043,1,0,1.2894,,0,79,79,83,1,non_cognate,1,REAL,FALSA
,,,,,,,,,5ea1dc309315030c68262aa3,001,2024-06-30_06h11.55.533,empathy_intonation_perc,2024.1.4,Linux x86_64,56.17977528,,,,,,,,,,,,,,33,collar,,,,,,380.5046,392.9,1,0,11.8676,,0,80,80,32,1,two_way_cognate,1,REAL,FALSA
,,,,,,,,,5ea1dc309315030c68262aa3,001,2024-06-30_06h11.55.533,empathy_intonation_perc,2024.1.4,Linux x86_64,56.17977528,,,,,,,,,,,,,,112,samón,,,,,,392.916,398.9982,1,0,5.5477,,0,81,81,111,1,pseudoword,0,REAL,FALSA
,,,,,,,,,5ea1dc309315030c68262aa3,001,2024-06-30_06h11.55.533,empathy_intonation_perc,2024.1.4,Linux x86_64,56.17977528,,,,,,,,,,,,,,86,cuenco,,,,,,399.0141,400.4829,1,0,0.9367,,0,82,82,85,1,non_cognate,1,REAL,FALSA
,,,,,,,,,5ea1dc309315030c68262aa3,001,2024-06-30_06h11.55.533,empathy_intonation_perc,2024.1.4,Linux x86_64,56.17977528,,,,,,,,,,,,,,134,molor,,,,,,400.4832,402.9015,0,1,1.9126,,0,83,83,133,1,pseudoword,0,REAL,FALSA
,,,,,,,,,5ea1dc309315030c68262aa3,001,2024-06-30_06h11.55.533,empathy_intonation_perc,2024.1.4,Linux x86_64,56.17977528,,,,,,,,,,,,,,40,pelvis,,,,,,402.9019,404.7335,1,0,1.304,,0,84,84,39,1,two_way_cognate,1,REAL,FALSA
,,,,,,,,,5ea1dc309315030c68262aa3,001,2024-06-30_06h11.55.533,empathy_intonation_perc,2024.1.4,Linux x86_64,56.17977528,,,,,,,,,,,,,,91,equipo,,,,,,404.7339,406.3994,1,0,1.1412,,0,85,85,90,1,non_cognate,1,REAL,FALSA
,,,,,,,,,5ea1dc309315030c68262aa3,001,2024-06-30_06h11.55.533,empathy_intonation_perc,2024.1.4,Linux x86_64,56.17977528,,,,,,,,,,,,,,161,civas,,,,,,406.3999,411.0845,1,0,4.1644,,0,86,86,160,1,pseudoword,0,REAL,FALSA
,,,,,,,,,5ea1dc309315030c68262aa3,001,2024-06-30_06h11.55.533,empathy_intonation_perc,2024.1.4,Linux x86_64,56.17977528,,,,,,,,,,,,,,11,golf,,,,,,411.0973,413.69,0,1,2.0843,,0,87,87,10,1,three_way_cognate,1,REAL,FALSA
,,,,,,,,,5ea1dc309315030c68262aa3,001,2024-06-30_06h11.55.533,empathy_intonation_perc,2024.1.4,Linux x86_64,56.17977528,,,,,,,,,,,,,,170,diabo,,,,,,413.6904,421.0447,0,1,6.7987,,0,88,88,169,1,pseudoword,0,REAL,FALSA
,,,,,,,,,5ea1dc309315030c68262aa3,001,2024-06-30_06h11.55.533,empathy_intonation_perc,2024.1.4,Linux x86_64,56.17977528,,,,,,,,,,,,,,59,feo,,,,,,421.061,422.8703,1,0,1.2842,,0,89,89,58,1,non_cognate,1,REAL,FALSA
,,,,,,,,,5ea1dc309315030c68262aa3,001,2024-06-30_06h11.55.533,empathy_intonation_perc,2024.1.4,Linux x86_64,56.17977528,,,,,,,,,,,,,,54,tapón,,,,,,422.8707,425.5274,1,0,2.1304,,0,90,90,53,1,non_cognate,1,REAL,FALSA
,,,,,,,,,5ea1dc309315030c68262aa3,001,2024-06-30_06h11.55.533,empathy_intonation_perc,2024.1.4,Linux x86_64,56.17977528,,,,,,,,,,,,,,171,gotro,,,,,,425.5432,427.528,0,1,1.4604,,0,91,91,170,1,pseudoword,0,REAL,FALSA
,,,,,,,,,5ea1dc309315030c68262aa3,001,2024-06-30_06h11.55.533,empathy_intonation_perc,2024.1.4,Linux x86_64,56.17977528,,,,,,,,,,,,,,172,dogue,,,,,,427.5284,430.826,0,1,2.7652,,0,92,92,171,1,pseudoword,0,REAL,FALSA
,,,,,,,,,5ea1dc309315030c68262aa3,001,2024-06-30_06h11.55.533,empathy_intonation_perc,2024.1.4,Linux x86_64,56.17977528,,,,,,,,,,,,,,186,rizate,,,,,,430.8264,433.8927,0,1,2.519,,0,93,93,185,1,pseudoword,0,REAL,FALSA
,,,,,,,,,5ea1dc309315030c68262aa3,001,2024-06-30_06h11.55.533,empathy_intonation_perc,2024.1.4,Linux x86_64,56.17977528,,,,,,,,,,,,,,90,venado,,,,,,433.9079,435.9291,1,0,1.4959,,0,94,94,89,1,non_cognate,1,REAL,FALSA
,,,,,,,,,5ea1dc309315030c68262aa3,001,2024-06-30_06h11.55.533,empathy_intonation_perc,2024.1.4,Linux x86_64,56.17977528,,,,,,,,,,,,,,74,ala,,,,,,435.9294,438.7276,1,0,2.266,,0,95,95,73,1,non_cognate,1,REAL,FALSA
,,,,,,,,,5ea1dc309315030c68262aa3,001,2024-06-30_06h11.55.533,empathy_intonation_perc,2024.1.4,Linux x86_64,56.17977528,,,,,,,,,,,,,,130,dubo,,,,,,438.7279,445.1454,1,0,5.8803,,0,96,96,129,1,pseudoword,0,REAL,FALSA
,,,,,,,,,5ea1dc309315030c68262aa3,001,2024-06-30_06h11.55.533,empathy_intonation_perc,2024.1.4,Linux x86_64,56.17977528,,,,,,,,,,,,,,135,panté,,,,,,445.1618,448.4948,1,0,2.8106,,0,97,97,134,1,pseudoword,0,REAL,FALSA
,,,,,,,,,5ea1dc309315030c68262aa3,001,2024-06-30_06h11.55.533,empathy_intonation_perc,2024.1.4,Linux x86_64,56.17977528,,,,,,,,,,,,,,163,olzan,,,,,,448.4951,452.0092,1,0,2.985,,0,98,98,162,1,pseudoword,0,REAL,FALSA
,,,,,,,,,5ea1dc309315030c68262aa3,001,2024-06-30_06h11.55.533,empathy_intonation_perc,2024.1.4,Linux x86_64,56.17977528,,,,,,,,,,,,,,62,pegar,,,,,,452.0249,454.976,1,0,2.4309,,0,99,99,61,1,non_cognate,1,REAL,FALSA
,,,,,,,,,5ea1dc309315030c68262aa3,001,2024-06-30_06h11.55.533,empathy_intonation_perc,2024.1.4,Linux x86_64,56.17977528,,,,,,,,,,,,,,10,drama,,,,,,454.9764,457.125,1,0,1.6228,,0,100,100,9,1,three_way_cognate,1,REAL,FALSA
,,,,,,,,,5ea1dc309315030c68262aa3,001,2024-06-30_06h11.55.533,empathy_intonation_perc,2024.1.4,Linux x86_64,56.17977528,,,,,,,,,,,,,,77,suave,,,,,,457.1411,458.5414,1,0,0.8662,,0,101,101,76,1,non_cognate,1,REAL,FALSA
,,,,,,,,,5ea1dc309315030c68262aa3,001,2024-06-30_06h11.55.533,empathy_intonation_perc,2024.1.4,Linux x86_64,56.17977528,,,,,,,,,,,,,,101,losco,,,,,,458.5417,460.5749,1,0,1.4986,,0,102,102,100,1,pseudoword,0,REAL,FALSA
,,,,,,,,,5ea1dc309315030c68262aa3,001,2024-06-30_06h11.55.533,empathy_intonation_perc,2024.1.4,Linux x86_64,56.17977528,,,,,,,,,,,,,,51,listo,,,,,,460.5753,461.9575,1,0,0.8507,,0,103,103,50,1,non_cognate,1,REAL,FALSA
,,,,,,,,,5ea1dc309315030c68262aa3,001,2024-06-30_06h11.55.533,empathy_intonation_perc,2024.1.4,Linux x86_64,56.17977528,,,,,,,,,,,,,,17,clan,,,,,,461.9579,467.2382,0,1,4.732,,0,104,104,16,1,three_way_cognate,1,REAL,FALSA
,,,,,,,,,5ea1dc309315030c68262aa3,001,2024-06-30_06h11.55.533,empathy_intonation_perc,2024.1.4,Linux x86_64,56.17977528,,,,,,,,,,,,,,105,leniz,,,,,,467.2538,470.6393,0,1,2.869,,0,105,105,104,1,pseudoword,0,REAL,FALSA
,,,,,,,,,5ea1dc309315030c68262aa3,001,2024-06-30_06h11.55.533,empathy_intonation_perc,2024.1.4,Linux x86_64,56.17977528,,,,,,,,,,,,,,34,actor,,,,,,470.6397,472.106,1,0,0.9324,,0,106,106,33,1,two_way_cognate,1,REAL,FALSA
,,,,,,,,,5ea1dc309315030c68262aa3,001,2024-06-30_06h11.55.533,empathy_intonation_perc,2024.1.4,Linux x86_64,56.17977528,,,,,,,,,,,,,,113,nasce,,,,,,472.1064,475.8719,0,1,3.2241,,0,107,107,112,1,pseudoword,0,REAL,FALSA
,,,,,,,,,5ea1dc309315030c68262aa3,001,2024-06-30_06h11.55.533,empathy_intonation_perc,2024.1.4,Linux x86_64,56.17977528,,,,,,,,,,,,,,47,color,,,,,,475.8864,477.4723,1,0,1.0662,,0,108,108,46,1,two_way_cognate,1,REAL,FALSA
,,,,,,,,,5ea1dc309315030c68262aa3,001,2024-06-30_06h11.55.533,empathy_intonation_perc,2024.1.4,Linux x86_64,56.17977528,,,,,,,,,,,,,,181,gravés,,,,,,477.4727,483.9252,0,1,5.9285,,0,109,109,180,1,pseudoword,0,REAL,FALSA
,,,,,,,,,5ea1dc309315030c68262aa3,001,2024-06-30_06h11.55.533,empathy_intonation_perc,2024.1.4,Linux x86_64,56.17977528,,,,,,,,,,,,,,50,sierra,,,,,,483.9415,485.5216,1,0,1.0277,,0,110,110,49,1,non_cognate,1,REAL,FALSA
,,,,,,,,,5ea1dc309315030c68262aa3,001,2024-06-30_06h11.55.533,empathy_intonation_perc,2024.1.4,Linux x86_64,56.17977528,,,,,,,,,,,,,,121,barbs,,,,,,485.522,490.1177,0,1,4.0708,,0,111,111,120,1,pseudoword,0,REAL,FALSA
,,,,,,,,,5ea1dc309315030c68262aa3,001,2024-06-30_06h11.55.533,empathy_intonation_perc,2024.1.4,Linux x86_64,56.17977528,,,,,,,,,,,,,,116,grigir,,,,,,490.1335,493.5686,1,0,2.905,,0,112,112,115,1,pseudoword,0,REAL,FALSA
,,,,,,,,,5ea1dc309315030c68262aa3,001,2024-06-30_06h11.55.533,empathy_intonation_perc,2024.1.4,Linux x86_64,56.17977528,,,,,,,,,,,,,,44,editor,,,,,,493.5847,495.5269,1,0,1.4358,,0,113,113,43,1,two_way_cognate,1,REAL,FALSA
,,,,,,,,,5ea1dc309315030c68262aa3,001,2024-06-30_06h11.55.533,empathy_intonation_perc,2024.1.4,Linux x86_64,56.17977528,,,,,,,,,,,,,,174,pabea,,,,,,495.5274,498.1666,0,1,2.0871,,0,114,114,173,1,pseudoword,0,REAL,FALSA
,,,,,,,,,5ea1dc309315030c68262aa3,001,2024-06-30_06h11.55.533,empathy_intonation_perc,2024.1.4,Linux x86_64,56.17977528,,,,,,,,,,,,,,87,muleta,,,,,,498.167,500.1327,0,1,1.4248,,0,115,115,86,1,non_cognate,1,REAL,FALSA
,,,,,,,,,5ea1dc309315030c68262aa3,001,2024-06-30_06h11.55.533,empathy_intonation_perc,2024.1.4,Linux x86_64,56.17977528,,,,,,,,,,,,,,94,forro,,,,,,500.1331,502.0326,1,0,1.3893,,0,116,116,93,1,non_cognate,1,REAL,FALSA
,,,,,,,,,5ea1dc309315030c68262aa3,001,2024-06-30_06h11.55.533,empathy_intonation_perc,2024.1.4,Linux x86_64,56.17977528,,,,,,,,,,,,,,3,disco,,,,,,502.0329,504.7983,1,0,2.2201,,0,117,117,2,1,three_way_cognate,1,REAL,FALSA
,,,,,,,,,5ea1dc309315030c68262aa3,001,2024-06-30_06h11.55.533,empathy_intonation_perc,2024.1.4,Linux x86_64,56.17977528,,,,,,,,,,,,,,63,hilo,,,,,,504.7987,507.2887,1,0,1.9795,,0,118,118,62,1,non_cognate,1,REAL,FALSA
,,,,,,,,,5ea1dc309315030c68262aa3,001,2024-06-30_06h11.55.533,empathy_intonation_perc,2024.1.4,Linux x86_64,56.17977528,,,,,,,,,,,,,,136,hueas,,,,,,507.3041,510.4984,0,1,2.6629,,0,119,119,135,1,pseudoword,0,REAL,FALSA
,,,,,,,,,5ea1dc309315030c68262aa3,001,2024-06-30_06h11.55.533,empathy_intonation_perc,2024.1.4,Linux x86_64,56.17977528,,,,,,,,,,,,,,141,virios,,,,,,510.4988,514.281,1,0,3.2336,,0,120,120,140,1,pseudoword,0,REAL,FALSA
,,,,,,,,,5ea1dc309315030c68262aa3,001,2024-06-30_06h11.55.533,empathy_intonation_perc,2024.1.4,Linux x86_64,56.17977528,,,,,,,,,,,,,,165,chote,,,,,,514.2964,516.2466,1,0,1.4332,,0,121,121,164,1,pseudoword,0,REAL,FALSA
,,,,,,,,,5ea1dc309315030c68262aa3,001,2024-06-30_06h11.55.533,empathy_intonation_perc,2024.1.4,Linux x86_64,56.17977528,,,,,,,,,,,,,,184,huenos,,,,,,516.2472,517.896,1,0,1.1012,,0,122,122,183,1,pseudoword,0,REAL,FALSA
,,,,,,,,,5ea1dc309315030c68262aa3,001,2024-06-30_06h11.55.533,empathy_intonation_perc,2024.1.4,Linux x86_64,56.17977528,,,,,,,,,,,,,,2,tumor,,,,,,517.8965,519.8129,1,0,1.3854,,0,123,123,1,1,three_way_cognate,1,REAL,FALSA
,,,,,,,,,5ea1dc309315030c68262aa3,001,2024-06-30_06h11.55.533,empathy_intonation_perc,2024.1.4,Linux x86_64,56.17977528,,,,,,,,,,,,,,142,parre,,,,,,519.8132,521.4136,1,0,1.0734,,0,124,124,141,1,pseudoword,0,REAL,FALSA
,,,,,,,,,5ea1dc309315030c68262aa3,001,2024-06-30_06h11.55.533,empathy_intonation_perc,2024.1.4,Linux x86_64,56.17977528,,,,,,,,,,,,,,20,trauma,,,,,,521.4141,522.9785,1,0,1.0194,,0,125,125,19,1,three_way_cognate,1,REAL,FALSA
,,,,,,,,,5ea1dc309315030c68262aa3,001,2024-06-30_06h11.55.533,empathy_intonation_perc,2024.1.4,Linux x86_64,56.17977528,,,,,,,,,,,,,,45,total,,,,,,522.979,524.4137,1,0,0.9265,,0,126,126,44,1,two_way_cognate,1,REAL,FALSA
,,,,,,,,,5ea1dc309315030c68262aa3,001,2024-06-30_06h11.55.533,empathy_intonation_perc,2024.1.4,Linux x86_64,56.17977528,,,,,,,,,,,,,,6,horror,,,,,,524.4141,527.9833,1,0,3.0273,,0,127,127,5,1,three_way_cognate,1,REAL,FALSA
,,,,,,,,,5ea1dc309315030c68262aa3,001,2024-06-30_06h11.55.533,empathy_intonation_perc,2024.1.4,Linux x86_64,56.17977528,,,,,,,,,,,,,,175,tradía,,,,,,527.9953,534.5268,1,0,5.9952,,0,128,128,174,1,pseudoword,0,REAL,FALSA
,,,,,,,,,5ea1dc309315030c68262aa3,001,2024-06-30_06h11.55.533,empathy_intonation_perc,2024.1.4,Linux x86_64,56.17977528,,,,,,,,,,,,,,182,desaro,,,,,,534.5424,536.4611,1,0,1.3954,,0,129,129,181,1,pseudoword,0,REAL,FALSA
,,,,,,,,,5ea1dc309315030c68262aa3,001,2024-06-30_06h11.55.533,empathy_intonation_perc,2024.1.4,Linux x86_64,56.17977528,,,,,,,,,,,,,,148,gino,,,,,,536.4614,539.0115,1,0,2.0187,,0,130,130,147,1,pseudoword,0,REAL,FALSA
,,,,,,,,,5ea1dc309315030c68262aa3,001,2024-06-30_06h11.55.533,empathy_intonation_perc,2024.1.4,Linux x86_64,56.17977528,,,,,,,,,,,,,,16,chat,,,,,,539.0119,541.5196,1,0,1.9883,,0,131,131,15,1,three_way_cognate,1,REAL,FALSA
,,,,,,,,,5ea1dc309315030c68262aa3,001,2024-06-30_06h11.55.533,empathy_intonation_perc,2024.1.4,Linux x86_64,56.17977528,,,,,,,,,,,,,,98,martir,,,,,,541.5349,544.6931,1,0,2.6171,,0,132,132,97,1,pseudoword,0,REAL,FALSA
,,,,,,,,,5ea1dc309315030c68262aa3,001,2024-06-30_06h11.55.533,empathy_intonation_perc,2024.1.4,Linux x86_64,56.17977528,,,,,,,,,,,,,,107,plago,,,,,,544.6936,546.5761,1,0,1.3465,,0,133,133,106,1,pseudoword,0,REAL,FALSA
,,,,,,,,,5ea1dc309315030c68262aa3,001,2024-06-30_06h11.55.533,empathy_intonation_perc,2024.1.4,Linux x86_64,56.17977528,,,,,,,,,,,,,,85,enorme,,,,,,546.5767,550.4762,0,1,3.3503,,0,134,134,84,1,non_cognate,1,REAL,FALSA
,,,,,,,,,5ea1dc309315030c68262aa3,001,2024-06-30_06h11.55.533,empathy_intonation_perc,2024.1.4,Linux x86_64,56.17977528,,,,,,,,,,,,,,42,rumor,,,,,,550.4911,554.1914,0,1,3.1845,,0,135,135,41,1,two_way_cognate,1,REAL,FALSA
,,,,,,,,,5ea1dc309315030c68262aa3,001,2024-06-30_06h11.55.533,empathy_intonation_perc,2024.1.4,Linux x86_64,56.17977528,,,,,,,,,,,,,,100,épinas,,,,,,554.2064,557.1396,1,0,2.4156,0.0061,0,136,136,99,1,pseudoword,0,REAL,FALSA
,,,,,,,,,5ea1dc309315030c68262aa3,001,2024-06-30_06h11.55.533,empathy_intonation_perc,2024.1.4,Linux x86_64,56.17977528,,,,,,,,,,,,,,119,esís,,,,,,557.14,559.3574,0,1,1.6842,,0,137,137,118,1,pseudoword,0,REAL,FALSA
,,,,,,,,,5ea1dc309315030c68262aa3,001,2024-06-30_06h11.55.533,empathy_intonation_perc,2024.1.4,Linux x86_64,56.17977528,,,,,,,,,,,,,,179,suelet,,,,,,559.3729,563.2585,0,1,3.3613,,0,138,138,178,1,pseudoword,0,REAL,FALSA
,,,,,,,,,5ea1dc309315030c68262aa3,001,2024-06-30_06h11.55.533,empathy_intonation_perc,2024.1.4,Linux x86_64,56.17977528,,,,,,,,,,,,,,109,laras,,,,,,563.2741,565.7914,1,0,1.9927,,0,139,139,108,1,pseudoword,0,REAL,FALSA
,,,,,,,,,5ea1dc309315030c68262aa3,001,2024-06-30_06h11.55.533,empathy_intonation_perc,2024.1.4,Linux x86_64,56.17977528,,,,,,,,,,,,,,64,rizado,,,,,,565.7919,569.5222,1,0,3.1889,,0,140,140,63,1,non_cognate,1,REAL,FALSA
,,,,,,,,,5ea1dc309315030c68262aa3,001,2024-06-30_06h11.55.533,empathy_intonation_perc,2024.1.4,Linux x86_64,56.17977528,,,,,,,,,,,,,,111,monue,,,,,,569.5354,572.9061,0,1,2.8508,,0,141,141,110,1,pseudoword,0,REAL,FALSA
,,,,,,,,,5ea1dc309315030c68262aa3,001,2024-06-30_06h11.55.533,empathy_intonation_perc,2024.1.4,Linux x86_64,56.17977528,,,,,,,,,,,,,,180,pupica,,,,,,572.9065,577.2406,1,0,3.7968,,0,142,142,179,1,pseudoword,0,REAL,FALSA
,,,,,,,,,5ea1dc309315030c68262aa3,001,2024-06-30_06h11.55.533,empathy_intonation_perc,2024.1.4,Linux x86_64,56.17977528,,,,,,,,,,,,,,129,vinzó,,,,,,577.2558,582.9165,1,0,5.1131,,0,143,143,128,1,pseudoword,0,REAL,FALSA
,,,,,,,,,5ea1dc309315030c68262aa3,001,2024-06-30_06h11.55.533,empathy_intonation_perc,2024.1.4,Linux x86_64,56.17977528,,,,,,,,,,,,,,120,mauja,,,,,,582.9313,589.0891,0,1,5.6451,,0,144,144,119,1,pseudoword,0,REAL,FALSA
,,,,,,,,,5ea1dc309315030c68262aa3,001,2024-06-30_06h11.55.533,empathy_intonation_perc,2024.1.4,Linux x86_64,56.17977528,,,,,,,,,,,,,,12,dogma,,,,,,589.105,591.0012,1,0,1.3644,,0,145,145,11,1,three_way_cognate,1,REAL,FALSA
,,,,,,,,,5ea1dc309315030c68262aa3,001,2024-06-30_06h11.55.533,empathy_intonation_perc,2024.1.4,Linux x86_64,56.17977528,,,,,,,,,,,,,,137,trugo,,,,,,591.0017,595.3064,1,0,3.7784,,0,146,146,136,1,pseudoword,0,REAL,FALSA
,,,,,,,,,5ea1dc309315030c68262aa3,001,2024-06-30_06h11.55.533,empathy_intonation_perc,2024.1.4,Linux x86_64,56.17977528,,,,,,,,,,,,,,103,vueras,,,,,,595.322,602.8773,0,1,7.0337,,0,147,147,102,1,pseudoword,0,REAL,FALSA
,,,,,,,,,5ea1dc309315030c68262aa3,001,2024-06-30_06h11.55.533,empathy_intonation_perc,2024.1.4,Linux x86_64,56.17977528,,,,,,,,,,,,,,30,fiscal,,,,,,602.8932,604.4531,1,0,1.0428,,0,148,148,29,1,two_way_cognate,1,REAL,FALSA
,,,,,,,,,5ea1dc309315030c68262aa3,001,2024-06-30_06h11.55.533,empathy_intonation_perc,2024.1.4,Linux x86_64,56.17977528,,,,,,,,,,,,,,159,trcia,,,,,,604.4536,607.4327,0,1,2.4462,,0,149,149,158,1,pseudoword,0,REAL,FALSA
,,,,,,,,,5ea1dc309315030c68262aa3,001,2024-06-30_06h11.55.533,empathy_intonation_perc,2024.1.4,Linux x86_64,56.17977528,,,,,,,,,,,,,,39,casual,,,,,,607.4484,609.8485,1,0,1.8734,,0,150,150,38,1,two_way_cognate,1,REAL,FALSA
,,,,,,,,,5ea1dc309315030c68262aa3,001,2024-06-30_06h11.55.533,empathy_intonation_perc,2024.1.4,Linux x86_64,56.17977528,,,,,,,,,,,,,,69,tiza,,,,,,609.8489,611.8477,1,0,1.4676,,0,151,151,68,1,non_cognate,1,REAL,FALSA
,,,,,,,,,5ea1dc309315030c68262aa3,001,2024-06-30_06h11.55.533,empathy_intonation_perc,2024.1.4,Linux x86_64,56.17977528,,,,,,,,,,,,,,79,suelo,,,,,,611.8481,613.6814,1,0,1.3001,,0,152,152,78,1,non_cognate,1,REAL,FALSA
,,,,,,,,,5ea1dc309315030c68262aa3,001,2024-06-30_06h11.55.533,empathy_intonation_perc,2024.1.4,Linux x86_64,56.17977528,,,,,,,,,,,,,,166,anfia,,,,,,613.682,619.7474,0,1,5.5334,,0,153,153,165,1,pseudoword,0,REAL,FALSA
,,,,,,,,,5ea1dc309315030c68262aa3,001,2024-06-30_06h11.55.533,empathy_intonation_perc,2024.1.4,Linux x86_64,56.17977528,,,,,,,,,,,,,,32,animal,,,,,,619.7639,621.3473,1,0,1.0542,,0,154,154,31,1,two_way_cognate,1,REAL,FALSA
,,,,,,,,,5ea1dc309315030c68262aa3,001,2024-06-30_06h11.55.533,empathy_intonation_perc,2024.1.4,Linux x86_64,56.17977528,,,,,,,,,,,,,,152,prave,,,,,,621.3479,625.1954,0,1,3.304,,0,155,155,151,1,pseudoword,0,REAL,FALSA
,,,,,,,,,5ea1dc309315030c68262aa3,001,2024-06-30_06h11.55.533,empathy_intonation_perc,2024.1.4,Linux x86_64,56.17977528,,,,,,,,,,,,,,73,llevar,,,,,,625.1956,626.8814,1,0,1.1804,,0,156,156,72,1,non_cognate,1,REAL,FALSA
,,,,,,,,,5ea1dc309315030c68262aa3,001,2024-06-30_06h11.55.533,empathy_intonation_perc,2024.1.4,Linux x86_64,56.17977528,,,,,,,,,,,,,,1,moral,,,,,,626.8818,628.7652,1,0,1.3351,,0,157,157,0,1,three_way_cognate,1,REAL,FALSA
,,,,,,,,,5ea1dc309315030c68262aa3,001,2024-06-30_06h11.55.533,empathy_intonation_perc,2024.1.4,Linux x86_64,56.17977528,,,,,,,,,,,,,,78,rendir,,,,,,628.7656,630.6318,1,0,1.3334,,0,158,158,77,1,non_cognate,1,REAL,FALSA
,,,,,,,,,5ea1dc309315030c68262aa3,001,2024-06-30_06h11.55.533,empathy_intonation_perc,2024.1.4,Linux x86_64,56.17977528,,,,,,,,,,,,,,104,estulo,,,,,,630.6322,632.6148,1,0,1.4539,,0,159,159,103,1,pseudoword,0,REAL,FALSA
,,,,,,,,,5ea1dc309315030c68262aa3,001,2024-06-30_06h11.55.533,empathy_intonation_perc,2024.1.4,Linux x86_64,56.17977528,,,,,,,,,,,,,,167,dobbo,,,,,,632.6153,634.614,0,1,1.4585,,0,160,160,166,1,pseudoword,0,REAL,FALSA
,,,,,,,,,5ea1dc309315030c68262aa3,001,2024-06-30_06h11.55.533,empathy_intonation_perc,2024.1.4,Linux x86_64,56.17977528,,,,,,,,,,,,,,26,enigma,,,,,,634.6145,637.0219,1,0,1.8705,,0,161,161,25,1,two_way_cognate,1,REAL,FALSA
,,,,,,,,,5ea1dc309315030c68262aa3,001,2024-06-30_06h11.55.533,empathy_intonation_perc,2024.1.4,Linux x86_64,56.17977528,,,,,,,,,,,,,,145,rúo,,,,,,637.0222,656.777,0,1,19.1957,,0,162,162,144,1,pseudoword,0,REAL,FALSA
,,,,,,,,,5ea1dc309315030c68262aa3,001,2024-06-30_06h11.55.533,empathy_intonation_perc,2024.1.4,Linux x86_64,56.17977528,,,,,,,,,,,,,,187,nomata,,,,,,656.7937,659.273,0,1,1.9369,,0,163,163,186,1,pseudoword,0,REAL,FALSA
,,,,,,,,,5ea1dc309315030c68262aa3,001,2024-06-30_06h11.55.533,empathy_intonation_perc,2024.1.4,Linux x86_64,56.17977528,,,,,,,,,,,,,,93,tapa,,,,,,659.2735,660.8062,1,0,1.0005,,0,164,164,92,1,non_cognate,1,REAL,FALSA
,,,,,,,,,5ea1dc309315030c68262aa3,001,2024-06-30_06h11.55.533,empathy_intonation_perc,2024.1.4,Linux x86_64,56.17977528,,,,,,,,,,,,,,18,altar,,,,,,660.8068,662.3209,1,0,0.9971,,0,165,165,17,1,three_way_cognate,1,REAL,FALSA
,,,,,,,,,5ea1dc309315030c68262aa3,001,2024-06-30_06h11.55.533,empathy_intonation_perc,2024.1.4,Linux x86_64,56.17977528,,,,,,,,,,,,,,164,tecia,,,,,,662.3213,664.7405,1,0,1.8797,,0,166,166,163,1,pseudoword,0,REAL,FALSA
,,,,,,,,,5ea1dc309315030c68262aa3,001,2024-06-30_06h11.55.533,empathy_intonation_perc,2024.1.4,Linux x86_64,56.17977528,,,,,,,,,,,,,,128,pelí,,,,,,664.741,668.8753,0,1,3.6242,,0,167,167,127,1,pseudoword,0,REAL,FALSA
,,,,,,,,,5ea1dc309315030c68262aa3,001,2024-06-30_06h11.55.533,empathy_intonation_perc,2024.1.4,Linux x86_64,56.17977528,,,,,,,,,,,,,,188,amplir,,,,,,668.8912,671.4722,1,0,2.0508,,0,168,168,187,1,pseudoword,0,REAL,FALSA
,,,,,,,,,5ea1dc309315030c68262aa3,001,2024-06-30_06h11.55.533,empathy_intonation_perc,2024.1.4,Linux x86_64,56.17977528,,,,,,,,,,,,,,13,plan,,,,,,671.4726,673.3751,1,0,1.3778,,0,169,169,12,1,three_way_cognate,1,REAL,FALSA
,,,,,,,,,5ea1dc309315030c68262aa3,001,2024-06-30_06h11.55.533,empathy_intonation_perc,2024.1.4,Linux x86_64,56.17977528,,,,,,,,,,,,,,138,tator,,,,,,673.3756,676.5251,0,1,2.6273,,0,170,170,137,1,pseudoword,0,REAL,FALSA
,,,,,,,,,5ea1dc309315030c68262aa3,001,2024-06-30_06h11.55.533,empathy_intonation_perc,2024.1.4,Linux x86_64,56.17977528,,,,,,,,,,,,,,23,plural,,,,,,676.5256,679.6048,0,1,2.5564,,0,171,171,22,1,three_way_cognate,1,REAL,FALSA
,,,,,,,,,5ea1dc309315030c68262aa3,001,2024-06-30_06h11.55.533,empathy_intonation_perc,2024.1.4,Linux x86_64,56.17977528,,,,,,,,,,,,,,108,jauda,,,,,,679.6198,682.1677,0,1,2.0343,,0,172,172,107,1,pseudoword,0,REAL,FALSA
,,,,,,,,,5ea1dc309315030c68262aa3,001,2024-06-30_06h11.55.533,empathy_intonation_perc,2024.1.4,Linux x86_64,56.17977528,,,,,,,,,,,,,,122,boñaz,,,,,,682.1682,686.1703,0,1,3.4686,,0,173,173,121,1,pseudoword,0,REAL,FALSA
,,,,,,,,,5ea1dc309315030c68262aa3,001,2024-06-30_06h11.55.533,empathy_intonation_perc,2024.1.4,Linux x86_64,56.17977528,,,,,,,,,,,,,,126,tobre,,,,,,686.1839,689.2531,0,1,2.5381,,0,174,174,125,1,pseudoword,0,REAL,FALSA
,,,,,,,,,5ea1dc309315030c68262aa3,001,2024-06-30_06h11.55.533,empathy_intonation_perc,2024.1.4,Linux x86_64,56.17977528,,,,,,,,,,,,,,55,maldad,,,,,,689.2689,694.5347,0,1,4.7505,,0,175,175,54,1,non_cognate,1,REAL,FALSA
,,,,,,,,,5ea1dc309315030c68262aa3,001,2024-06-30_06h11.55.533,empathy_intonation_perc,2024.1.4,Linux x86_64,56.17977528,,,,,,,,,,,,,,176,gripar,,,,,,694.5505,696.5853,1,0,1.5046,,0,176,176,175,1,pseudoword,0,REAL,FALSA
,,,,,,,,,5ea1dc309315030c68262aa3,001,2024-06-30_06h11.55.533,empathy_intonation_perc,2024.1.4,Linux x86_64,56.17977528,,,,,,,,,,,,,,106,diebro,,,,,,696.5857,699.6846,0,1,2.5502,,0,177,177,105,1,pseudoword,0,REAL,FALSA
,,,,,,,,,5ea1dc309315030c68262aa3,001,2024-06-30_06h11.55.533,empathy_intonation_perc,2024.1.4,Linux x86_64,56.17977528,,,,,,,,,,,,,,88,percha,,,,,,699.701,709.7496,1,0,9.4983,,0,178,178,87,1,non_cognate,1,REAL,FALSA
,,,,,,,,,5ea1dc309315030c68262aa3,001,2024-06-30_06h11.55.533,empathy_intonation_perc,2024.1.4,Linux x86_64,56.17977528,,,,,,,,,,,,,,71,torta,,,,,,709.7655,711.6166,1,0,1.331,,0,179,179,70,1,non_cognate,1,REAL,FALSA
,,,,,,,,,5ea1dc309315030c68262aa3,001,2024-06-30_06h11.55.533,empathy_intonation_perc,2024.1.4,Linux x86_64,56.17977528,,,,,,,,,,,,,,35,aurora,,,,,,711.617,713.0863,1,0,0.9459,,0,180,180,34,1,two_way_cognate,1,REAL,FALSA
,,,,,,,,,5ea1dc309315030c68262aa3,001,2024-06-30_06h11.55.533,empathy_intonation_perc,2024.1.4,Linux x86_64,56.17977528,,,,,,,,,,,,,,83,hálito,,,,,,713.0867,723.7317,1,0,10.1139,,0,181,181,82,1,non_cognate,1,REAL,FALSA
,,,,,,,,,5ea1dc309315030c68262aa3,001,2024-06-30_06h11.55.533,empathy_intonation_perc,2024.1.4,Linux x86_64,56.17977528,,,,,,,,,,,,,,115,lidena,,,,,,723.751,725.7815,0,1,1.4865,,0,182,182,114,1,pseudoword,0,REAL,FALSA
,,,,,,,,,5ea1dc309315030c68262aa3,001,2024-06-30_06h11.55.533,empathy_intonation_perc,2024.1.4,Linux x86_64,56.17977528,,,,,,,,,,,,,,177,entodo,,,,,,725.7821,729.4473,0,1,3.1349,,0,183,183,176,1,pseudoword,0,REAL,FALSA
,,,,,,,,,5ea1dc309315030c68262aa3,001,2024-06-30_06h11.55.533,empathy_intonation_perc,2024.1.4,Linux x86_64,56.17977528,,,,,,,,,,,,,,185,aljizo,,,,,,729.4477,731.2628,0,1,1.2798,,0,184,184,184,1,pseudoword,0,REAL,FALSA
,,,,,,,,,5ea1dc309315030c68262aa3,001,2024-06-30_06h11.55.533,empathy_intonation_perc,2024.1.4,Linux x86_64,56.17977528,,,,,,,,,,,,,,158,babrá,,,,,,731.2631,736.0613,1,0,4.2528,,0,185,185,157,1,pseudoword,0,REAL,FALSA
,,,,,,,,,5ea1dc309315030c68262aa3,001,2024-06-30_06h11.55.533,empathy_intonation_perc,2024.1.4,Linux x86_64,56.17977528,,,,,,,,,,,,,,25,vigor,,,,,,736.0739,737.8128,1,0,1.2145,,0,186,186,24,1,two_way_cognate,1,REAL,FALSA
,,,,,,,,,5ea1dc309315030c68262aa3,001,2024-06-30_06h11.55.533,empathy_intonation_perc,2024.1.4,Linux x86_64,56.17977528,,,,,,,,,,,,,,144,diroco,,,,,,737.8131,740.4623,0,1,2.1198,,0,187,187,143,1,pseudoword,0,REAL,FALSA
,,,,,,,,,5ea1dc309315030c68262aa3,001,2024-06-30_06h11.55.533,empathy_intonation_perc,2024.1.4,Linux x86_64,56.17977528,,,,,,,,,,,,,,38,halo,,,,,,740.4628,742.7046,1,0,1.7279,,0,188,188,37,1,two_way_cognate,1,REAL,FALSA
,,,,,,,,,5ea1dc309315030c68262aa3,001,2024-06-30_06h11.55.533,empathy_intonation_perc,2024.1.4,Linux x86_64,56.17977528,,,,,,,,,,,,,,173,mibro,,,,,,742.7051,744.5441,0,1,1.2999,,0,189,189,172,1,pseudoword,0,REAL,FALSA
,,,,,,,,,5ea1dc309315030c68262aa3,001,2024-06-30_06h11.55.533,empathy_intonation_perc,2024.1.4,Linux x86_64,56.17977528,,,,,,,,,,,,,,149,emén,,,,,,744.5445,746.3449,0,1,1.2632,,0,190,190,148,1,pseudoword,0,REAL,FALSA
,,,,,,,,,5ea1dc309315030c68262aa3,001,2024-06-30_06h11.55.533,empathy_intonation_perc,2024.1.4,Linux x86_64,56.17977528,,,,,,,,,,,,,,132,nocó,,,,,,746.3453,752.5794,1,0,5.7003,,0,191,191,131,1,pseudoword,0,REAL,FALSA
