lextale_instructions.started,lextale_instructions.stopped,lextale_instructions_loop.thisRepN,lextale_instructions_loop.thisTrialN,lextale_instructions_loop.thisN,lextale_instructions_loop.thisIndex,lextale_instructions_loop.ran,instructions_text,continue_text,participant,session,date,expName,psychopyVersion,OS,frameRate,lextale_practice.started,lextale_practice.stopped,key_resp_lextale_practice.keys,key_resp_lextale_practice.corr,key_resp_lextale_practice.rt,key_resp_lextale_practice.duration,lextale_practice_feedback.started,lextale_practice_feedback.stopped,lextale_practice_trials.thisRepN,lextale_practice_trials.thisTrialN,lextale_practice_trials.thisN,lextale_practice_trials.thisIndex,lextale_practice_trials.ran,stim,word,correct_response,prac_button_real,prac_button_false,lextale_check.started,lextale_check.stopped,lextale_trial.started,lextale_trial.stopped,key_resp_lextale_trial.keys,key_resp_lextale_trial.corr,key_resp_lextale_trial.rt,key_resp_lextale_trial.duration,lextail_trials.thisRepN,lextail_trials.thisTrialN,lextail_trials.thisN,lextail_trials.thisIndex,lextail_trials.ran,type,correct_reponse,button_real,button_false
0.0009,7.3995,0,0,0,0,1,"Este es un test de vocabulario en español. 
  
  A continuación vas a ver 90 secuencias de letras que parecen 'españolas'.
  
  Solo algunas de ellas son palabras de verdad.",(presiona la barra espaciadora para continuar),5fb025d26f5aaa39152578fa,001,2024-06-30_05h57.22.928,empathy_intonation_perc,2024.1.4,Win32,120.4819277,,,,,,,,,,,,,,,,,,,,,,,,,,,,,,,,,,,
7.4045,17.781,0,1,1,1,1,"Por favor, señala las palabras que tú conoces (aquellas que estás convencido que son palabras españolas, incluso aunque no seas capaz de dar el significado preciso).",(presiona la barra espaciadora para continuar),5fb025d26f5aaa39152578fa,001,2024-06-30_05h57.22.928,empathy_intonation_perc,2024.1.4,Win32,120.4819277,,,,,,,,,,,,,,,,,,,,,,,,,,,,,,,,,,,
17.786,23.2141,0,2,2,2,1,Pero cuidado: los errores se penalizan. Por eso no tiene sentido tratar de incrementar tu puntuación marcando como reales palabras que nunca has visto.,(presiona la barra espaciadora para continuar),5fb025d26f5aaa39152578fa,001,2024-06-30_05h57.22.928,empathy_intonation_perc,2024.1.4,Win32,120.4819277,,,,,,,,,,,,,,,,,,,,,,,,,,,,,,,,,,,
23.2187,30.4164,0,3,3,3,1,"Presiona la tecla 1 si piensas que es una palabra real y la tecla 
  0 si piensas que es una palabra falsa. 
  
  Vamos a practicar un poco...",(presiona la barra espaciadora para continuar),5fb025d26f5aaa39152578fa,001,2024-06-30_05h57.22.928,empathy_intonation_perc,2024.1.4,Win32,120.4819277,,,,,,,,,,,,,,,,,,,,,,,,,,,,,,,,,,,
,,,,,,,,,5fb025d26f5aaa39152578fa,001,2024-06-30_05h57.22.928,empathy_intonation_perc,2024.1.4,Win32,120.4819277,30.4221,33.5294,1,0,2.5977,,33.5295,34.5309,0,0,0,0,1,0,depiste,0,REAL,FALSA,,,,,,,,,,,,,,,,,
,,,,,,,,,5fb025d26f5aaa39152578fa,001,2024-06-30_05h57.22.928,empathy_intonation_perc,2024.1.4,Win32,120.4819277,34.5313,36.5504,1,1,1.5102,,36.5505,37.5518,0,1,1,1,1,0,sí,1,REAL,FALSA,,,,,,,,,,,,,,,,,
,,,,,,,,,5fb025d26f5aaa39152578fa,001,2024-06-30_05h57.22.928,empathy_intonation_perc,2024.1.4,Win32,120.4819277,37.5521,39.3713,0,1,1.3136,,39.3713,40.3728,0,2,2,2,1,0,coné,0,REAL,FALSA,,,,,,,,,,,,,,,,,
,,,,,,,,,5fb025d26f5aaa39152578fa,001,2024-06-30_05h57.22.928,empathy_intonation_perc,2024.1.4,Win32,120.4819277,40.3776,42.4508,0,1,1.561,,42.4509,43.4522,0,3,3,3,1,0,calpar,0,REAL,FALSA,,,,,,,,,,,,,,,,,
,,,,,,,,,5fb025d26f5aaa39152578fa,001,2024-06-30_05h57.22.928,empathy_intonation_perc,2024.1.4,Win32,120.4819277,43.4524,45.305,0,1,1.3457,,45.3051,46.3066,0,4,4,4,1,0,joten,0,REAL,FALSA,,,,,,,,,,,,,,,,,
,,,,,,,,,5fb025d26f5aaa39152578fa,001,2024-06-30_05h57.22.928,empathy_intonation_perc,2024.1.4,Win32,120.4819277,46.3114,48.0257,0,0,1.2026,,48.0258,49.0271,0,5,5,5,1,0,sacapuntas,1,REAL,FALSA,,,,,,,,,,,,,,,,,
,,,,,,,,,5fb025d26f5aaa39152578fa,001,2024-06-30_05h57.22.928,empathy_intonation_perc,2024.1.4,Win32,120.4819277,49.0273,50.4627,1,0,0.9279,,50.4627,51.4642,0,6,6,6,1,0,priba,0,REAL,FALSA,,,,,,,,,,,,,,,,,
,,,,,,,,,5fb025d26f5aaa39152578fa,001,2024-06-30_05h57.22.928,empathy_intonation_perc,2024.1.4,Win32,120.4819277,51.4643,53.2501,0,1,1.2776,,53.2501,54.2516,0,7,7,7,1,0,pelasula,0,REAL,FALSA,,,,,,,,,,,,,,,,,
,,,,,,,,,5fb025d26f5aaa39152578fa,001,2024-06-30_05h57.22.928,empathy_intonation_perc,2024.1.4,Win32,120.4819277,54.2563,56.1043,1,1,1.3379,,56.1044,57.1058,0,8,8,8,1,0,bien,1,REAL,FALSA,,,,,,,,,,,,,,,,,
,,,,,,,,,5fb025d26f5aaa39152578fa,001,2024-06-30_05h57.22.928,empathy_intonation_perc,2024.1.4,Win32,120.4819277,57.1059,58.3577,1,1,0.7479,,58.3577,59.3593,0,9,9,9,1,0,casa,1,REAL,FALSA,,,,,,,,,,,,,,,,,
,,,,,,,,,5fb025d26f5aaa39152578fa,001,2024-06-30_05h57.22.928,empathy_intonation_perc,2024.1.4,Win32,120.4819277,59.3595,61.4623,1,0,1.5943,,61.4623,62.4639,0,10,10,10,1,0,lejo,0,REAL,FALSA,,,,,,,,,,,,,,,,,
,,,,,,,,,5fb025d26f5aaa39152578fa,001,2024-06-30_05h57.22.928,empathy_intonation_perc,2024.1.4,Win32,120.4819277,62.4685,63.6488,0,1,0.6717,,63.6488,64.6503,0,11,11,11,1,0,pretantas,0,REAL,FALSA,,,,,,,,,,,,,,,,,
,,,,,,,,,5fb025d26f5aaa39152578fa,001,2024-06-30_05h57.22.928,empathy_intonation_perc,2024.1.4,Win32,120.4819277,,,,,,,,,,,,,,,,,,,64.6506,67.6548,,,,,,,,,,,,,,,
,,,,,,,,,5fb025d26f5aaa39152578fa,001,2024-06-30_05h57.22.928,empathy_intonation_perc,2024.1.4,Win32,120.4819277,,,,,,,,,,,,,,119,esís,,,,,,67.6643,69.9417,1,0,1.7607,,0,0,0,118,1,pseudoword,0,REAL,FALSA
,,,,,,,,,5fb025d26f5aaa39152578fa,001,2024-06-30_05h57.22.928,empathy_intonation_perc,2024.1.4,Win32,120.4819277,,,,,,,,,,,,,,116,grigir,,,,,,69.9467,71.5105,0,1,1.0506,,0,1,1,115,1,pseudoword,0,REAL,FALSA
,,,,,,,,,5fb025d26f5aaa39152578fa,001,2024-06-30_05h57.22.928,empathy_intonation_perc,2024.1.4,Win32,120.4819277,,,,,,,,,,,,,,148,gino,,,,,,71.5106,73.3465,1,0,1.33,,0,2,2,147,1,pseudoword,0,REAL,FALSA
,,,,,,,,,5fb025d26f5aaa39152578fa,001,2024-06-30_05h57.22.928,empathy_intonation_perc,2024.1.4,Win32,120.4819277,,,,,,,,,,,,,,103,vueras,,,,,,73.3467,74.8571,1,0,1.0056,,0,3,3,102,1,pseudoword,0,REAL,FALSA
,,,,,,,,,5fb025d26f5aaa39152578fa,001,2024-06-30_05h57.22.928,empathy_intonation_perc,2024.1.4,Win32,120.4819277,,,,,,,,,,,,,,105,leniz,,,,,,74.8572,76.1758,0,1,0.811,,0,4,4,104,1,pseudoword,0,REAL,FALSA
,,,,,,,,,5fb025d26f5aaa39152578fa,001,2024-06-30_05h57.22.928,empathy_intonation_perc,2024.1.4,Win32,120.4819277,,,,,,,,,,,,,,134,molor,,,,,,76.1759,77.6195,0,1,0.9383,,0,5,5,133,1,pseudoword,0,REAL,FALSA
,,,,,,,,,5fb025d26f5aaa39152578fa,001,2024-06-30_05h57.22.928,empathy_intonation_perc,2024.1.4,Win32,120.4819277,,,,,,,,,,,,,,167,dobbo,,,,,,77.6197,78.9632,0,1,0.8343,,0,6,6,166,1,pseudoword,0,REAL,FALSA
,,,,,,,,,5fb025d26f5aaa39152578fa,001,2024-06-30_05h57.22.928,empathy_intonation_perc,2024.1.4,Win32,120.4819277,,,,,,,,,,,,,,88,percha,,,,,,78.9634,81.8759,1,0,2.4048,,0,7,7,87,1,non_cognate,1,REAL,FALSA
,,,,,,,,,5fb025d26f5aaa39152578fa,001,2024-06-30_05h57.22.928,empathy_intonation_perc,2024.1.4,Win32,120.4819277,,,,,,,,,,,,,,6,horror,,,,,,81.8806,84.0039,1,0,1.6155,,0,8,8,5,1,three_way_cognate,1,REAL,FALSA
,,,,,,,,,5fb025d26f5aaa39152578fa,001,2024-06-30_05h57.22.928,empathy_intonation_perc,2024.1.4,Win32,120.4819277,,,,,,,,,,,,,,111,monue,,,,,,84.0041,85.6898,0,1,1.1803,,0,9,9,110,1,pseudoword,0,REAL,FALSA
,,,,,,,,,5fb025d26f5aaa39152578fa,001,2024-06-30_05h57.22.928,empathy_intonation_perc,2024.1.4,Win32,120.4819277,,,,,,,,,,,,,,178,inichó,,,,,,85.6899,88.2853,1,0,2.0862,,0,10,10,177,1,pseudoword,0,REAL,FALSA
,,,,,,,,,5fb025d26f5aaa39152578fa,001,2024-06-30_05h57.22.928,empathy_intonation_perc,2024.1.4,Win32,120.4819277,,,,,,,,,,,,,,162,cengo,,,,,,88.2898,89.8542,0,1,1.0521,,0,11,11,161,1,pseudoword,0,REAL,FALSA
,,,,,,,,,5fb025d26f5aaa39152578fa,001,2024-06-30_05h57.22.928,empathy_intonation_perc,2024.1.4,Win32,120.4819277,,,,,,,,,,,,,,125,ceme,,,,,,89.8544,91.3733,0,1,1.0098,,0,12,12,124,1,pseudoword,0,REAL,FALSA
,,,,,,,,,5fb025d26f5aaa39152578fa,001,2024-06-30_05h57.22.928,empathy_intonation_perc,2024.1.4,Win32,120.4819277,,,,,,,,,,,,,,40,pelvis,,,,,,91.3735,93.0005,1,0,1.1228,,0,13,13,39,1,two_way_cognate,1,REAL,FALSA
,,,,,,,,,5fb025d26f5aaa39152578fa,001,2024-06-30_05h57.22.928,empathy_intonation_perc,2024.1.4,Win32,120.4819277,,,,,,,,,,,,,,80,cuenco,,,,,,93.0007,95.0788,0,1,1.5716,,0,14,14,79,1,non_cognate,1,REAL,FALSA
,,,,,,,,,5fb025d26f5aaa39152578fa,001,2024-06-30_05h57.22.928,empathy_intonation_perc,2024.1.4,Win32,120.4819277,,,,,,,,,,,,,,95,listo,,,,,,95.0789,96.9231,0,1,1.3371,,0,15,15,94,1,non_cognate,1,REAL,FALSA
,,,,,,,,,5fb025d26f5aaa39152578fa,001,2024-06-30_05h57.22.928,empathy_intonation_perc,2024.1.4,Win32,120.4819277,,,,,,,,,,,,,,147,alla,,,,,,96.9233,98.609,1,0,1.1767,,0,16,16,146,1,pseudoword,0,REAL,FALSA
,,,,,,,,,5fb025d26f5aaa39152578fa,001,2024-06-30_05h57.22.928,empathy_intonation_perc,2024.1.4,Win32,120.4819277,,,,,,,,,,,,,,15,test,,,,,,98.6093,100.0694,1,0,0.9524,,0,17,17,14,1,three_way_cognate,1,REAL,FALSA
,,,,,,,,,5fb025d26f5aaa39152578fa,001,2024-06-30_05h57.22.928,empathy_intonation_perc,2024.1.4,Win32,120.4819277,,,,,,,,,,,,,,68,puñal,,,,,,100.0696,103.2574,0,1,2.6802,,0,18,18,67,1,non_cognate,1,REAL,FALSA
,,,,,,,,,5fb025d26f5aaa39152578fa,001,2024-06-30_05h57.22.928,empathy_intonation_perc,2024.1.4,Win32,120.4819277,,,,,,,,,,,,,,33,collar,,,,,,103.2576,104.9349,1,0,1.1686,,0,19,19,32,1,two_way_cognate,1,REAL,FALSA
,,,,,,,,,5fb025d26f5aaa39152578fa,001,2024-06-30_05h57.22.928,empathy_intonation_perc,2024.1.4,Win32,120.4819277,,,,,,,,,,,,,,185,aljizo,,,,,,104.9351,107.063,0,1,1.6234,,0,20,20,184,1,pseudoword,0,REAL,FALSA
,,,,,,,,,5fb025d26f5aaa39152578fa,001,2024-06-30_05h57.22.928,empathy_intonation_perc,2024.1.4,Win32,120.4819277,,,,,,,,,,,,,,48,pelvis,,,,,,107.0632,108.3817,1,0,0.8084,,0,21,21,47,1,two_way_cognate,1,REAL,FALSA
,,,,,,,,,5fb025d26f5aaa39152578fa,001,2024-06-30_05h57.22.928,empathy_intonation_perc,2024.1.4,Win32,120.4819277,,,,,,,,,,,,,,157,seled,,,,,,108.3818,109.7588,0,1,0.87,,0,22,22,156,1,pseudoword,0,REAL,FALSA
,,,,,,,,,5fb025d26f5aaa39152578fa,001,2024-06-30_05h57.22.928,empathy_intonation_perc,2024.1.4,Win32,120.4819277,,,,,,,,,,,,,,176,gripar,,,,,,109.759,111.9705,0,1,1.7019,,0,23,23,175,1,pseudoword,0,REAL,FALSA
,,,,,,,,,5fb025d26f5aaa39152578fa,001,2024-06-30_05h57.22.928,empathy_intonation_perc,2024.1.4,Win32,120.4819277,,,,,,,,,,,,,,93,tapa,,,,,,111.9752,113.5476,0,1,1.0648,,0,24,24,92,1,non_cognate,1,REAL,FALSA
,,,,,,,,,5fb025d26f5aaa39152578fa,001,2024-06-30_05h57.22.928,empathy_intonation_perc,2024.1.4,Win32,120.4819277,,,,,,,,,,,,,,160,fomeó,,,,,,113.5479,115.0499,1,0,0.9987,,0,25,25,159,1,pseudoword,0,REAL,FALSA
,,,,,,,,,5fb025d26f5aaa39152578fa,001,2024-06-30_05h57.22.928,empathy_intonation_perc,2024.1.4,Win32,120.4819277,,,,,,,,,,,,,,158,babrá,,,,,,115.05,117.0111,1,0,1.452,,0,26,26,157,1,pseudoword,0,REAL,FALSA
,,,,,,,,,5fb025d26f5aaa39152578fa,001,2024-06-30_05h57.22.928,empathy_intonation_perc,2024.1.4,Win32,120.4819277,,,,,,,,,,,,,,177,entodo,,,,,,117.0113,118.3798,0,1,0.8595,,0,27,27,176,1,pseudoword,0,REAL,FALSA
,,,,,,,,,5fb025d26f5aaa39152578fa,001,2024-06-30_05h57.22.928,empathy_intonation_perc,2024.1.4,Win32,120.4819277,,,,,,,,,,,,,,128,pelí,,,,,,118.3799,119.857,0,1,0.9695,,0,28,28,127,1,pseudoword,0,REAL,FALSA
,,,,,,,,,5fb025d26f5aaa39152578fa,001,2024-06-30_05h57.22.928,empathy_intonation_perc,2024.1.4,Win32,120.4819277,,,,,,,,,,,,,,144,diroco,,,,,,119.8572,121.3508,0,1,0.9889,,0,29,29,143,1,pseudoword,0,REAL,FALSA
,,,,,,,,,5fb025d26f5aaa39152578fa,001,2024-06-30_05h57.22.928,empathy_intonation_perc,2024.1.4,Win32,120.4819277,,,,,,,,,,,,,,20,trauma,,,,,,121.351,122.6862,1,0,0.8288,,0,30,30,19,1,three_way_cognate,1,REAL,FALSA
,,,,,,,,,5fb025d26f5aaa39152578fa,001,2024-06-30_05h57.22.928,empathy_intonation_perc,2024.1.4,Win32,120.4819277,,,,,,,,,,,,,,126,tobre,,,,,,122.6864,124.3803,0,1,1.1892,,0,31,31,125,1,pseudoword,0,REAL,FALSA
,,,,,,,,,5fb025d26f5aaa39152578fa,001,2024-06-30_05h57.22.928,empathy_intonation_perc,2024.1.4,Win32,120.4819277,,,,,,,,,,,,,,87,muleta,,,,,,124.3805,125.8911,0,1,1.0039,,0,32,32,86,1,non_cognate,1,REAL,FALSA
,,,,,,,,,5fb025d26f5aaa39152578fa,001,2024-06-30_05h57.22.928,empathy_intonation_perc,2024.1.4,Win32,120.4819277,,,,,,,,,,,,,,22,mango,,,,,,125.8913,127.3096,1,0,0.909,,0,33,33,21,1,three_way_cognate,1,REAL,FALSA
,,,,,,,,,5fb025d26f5aaa39152578fa,001,2024-06-30_05h57.22.928,empathy_intonation_perc,2024.1.4,Win32,120.4819277,,,,,,,,,,,,,,84,aviso,,,,,,127.3099,128.5699,0,1,0.7525,,0,34,34,83,1,non_cognate,1,REAL,FALSA
,,,,,,,,,5fb025d26f5aaa39152578fa,001,2024-06-30_05h57.22.928,empathy_intonation_perc,2024.1.4,Win32,120.4819277,,,,,,,,,,,,,,102,coyo,,,,,,128.5701,130.5562,1,0,1.4785,,0,35,35,101,1,pseudoword,0,REAL,FALSA
,,,,,,,,,5fb025d26f5aaa39152578fa,001,2024-06-30_05h57.22.928,empathy_intonation_perc,2024.1.4,Win32,120.4819277,,,,,,,,,,,,,,91,equipo,,,,,,130.5564,132.4255,1,0,1.3591,,0,36,36,90,1,non_cognate,1,REAL,FALSA
,,,,,,,,,5fb025d26f5aaa39152578fa,001,2024-06-30_05h57.22.928,empathy_intonation_perc,2024.1.4,Win32,120.4819277,,,,,,,,,,,,,,85,enorme,,,,,,132.4257,133.6941,0,1,0.7597,,0,37,37,84,1,non_cognate,1,REAL,FALSA
,,,,,,,,,5fb025d26f5aaa39152578fa,001,2024-06-30_05h57.22.928,empathy_intonation_perc,2024.1.4,Win32,120.4819277,,,,,,,,,,,,,,36,viable,,,,,,133.6944,135.7222,1,0,1.5191,,0,38,38,35,1,two_way_cognate,1,REAL,FALSA
,,,,,,,,,5fb025d26f5aaa39152578fa,001,2024-06-30_05h57.22.928,empathy_intonation_perc,2024.1.4,Win32,120.4819277,,,,,,,,,,,,,,96,caro,,,,,,135.7224,137.9671,0,1,1.7354,,0,39,39,95,1,non_cognate,1,REAL,FALSA
,,,,,,,,,5fb025d26f5aaa39152578fa,001,2024-06-30_05h57.22.928,empathy_intonation_perc,2024.1.4,Win32,120.4819277,,,,,,,,,,,,,,182,desaro,,,,,,137.9719,139.5778,0,1,1.0944,,0,40,40,181,1,pseudoword,0,REAL,FALSA
,,,,,,,,,5fb025d26f5aaa39152578fa,001,2024-06-30_05h57.22.928,empathy_intonation_perc,2024.1.4,Win32,120.4819277,,,,,,,,,,,,,,4,flora,,,,,,139.5781,141.2052,0,1,1.1225,,0,41,41,3,1,three_way_cognate,1,REAL,FALSA
,,,,,,,,,5fb025d26f5aaa39152578fa,001,2024-06-30_05h57.22.928,empathy_intonation_perc,2024.1.4,Win32,120.4819277,,,,,,,,,,,,,,120,mauja,,,,,,141.2054,142.5907,0,1,0.8789,,0,42,42,119,1,pseudoword,0,REAL,FALSA
,,,,,,,,,5fb025d26f5aaa39152578fa,001,2024-06-30_05h57.22.928,empathy_intonation_perc,2024.1.4,Win32,120.4819277,,,,,,,,,,,,,,187,nomata,,,,,,142.5909,143.8007,0,1,0.7005,,0,43,43,186,1,pseudoword,0,REAL,FALSA
,,,,,,,,,5fb025d26f5aaa39152578fa,001,2024-06-30_05h57.22.928,empathy_intonation_perc,2024.1.4,Win32,120.4819277,,,,,,,,,,,,,,13,plan,,,,,,143.8008,145.0109,1,0,0.7035,,0,44,44,12,1,three_way_cognate,1,REAL,FALSA
,,,,,,,,,5fb025d26f5aaa39152578fa,001,2024-06-30_05h57.22.928,empathy_intonation_perc,2024.1.4,Win32,120.4819277,,,,,,,,,,,,,,183,edioso,,,,,,145.0112,146.3545,0,1,0.8369,,0,45,45,182,1,pseudoword,0,REAL,FALSA
,,,,,,,,,5fb025d26f5aaa39152578fa,001,2024-06-30_05h57.22.928,empathy_intonation_perc,2024.1.4,Win32,120.4819277,,,,,,,,,,,,,,32,animal,,,,,,146.3547,147.6148,1,0,0.7514,,0,46,46,31,1,two_way_cognate,1,REAL,FALSA
,,,,,,,,,5fb025d26f5aaa39152578fa,001,2024-06-30_05h57.22.928,empathy_intonation_perc,2024.1.4,Win32,120.4819277,,,,,,,,,,,,,,97,nocita,,,,,,147.6149,150.252,0,1,2.1311,,0,47,47,96,1,pseudoword,0,REAL,FALSA
,,,,,,,,,5fb025d26f5aaa39152578fa,001,2024-06-30_05h57.22.928,empathy_intonation_perc,2024.1.4,Win32,120.4819277,,,,,,,,,,,,,,37,torso,,,,,,150.2569,151.5623,1,0,0.7935,,0,48,48,36,1,two_way_cognate,1,REAL,FALSA
,,,,,,,,,5fb025d26f5aaa39152578fa,001,2024-06-30_05h57.22.928,empathy_intonation_perc,2024.1.4,Win32,120.4819277,,,,,,,,,,,,,,11,golf,,,,,,151.5625,152.8391,1,0,0.7718,,0,49,49,10,1,three_way_cognate,1,REAL,FALSA
,,,,,,,,,5fb025d26f5aaa39152578fa,001,2024-06-30_05h57.22.928,empathy_intonation_perc,2024.1.4,Win32,120.4819277,,,,,,,,,,,,,,9,portal,,,,,,152.8393,154.0242,1,0,0.6754,,0,50,50,8,1,three_way_cognate,1,REAL,FALSA
,,,,,,,,,5fb025d26f5aaa39152578fa,001,2024-06-30_05h57.22.928,empathy_intonation_perc,2024.1.4,Win32,120.4819277,,,,,,,,,,,,,,184,huenos,,,,,,154.0243,155.8853,1,0,1.3511,,0,51,51,183,1,pseudoword,0,REAL,FALSA
,,,,,,,,,5fb025d26f5aaa39152578fa,001,2024-06-30_05h57.22.928,empathy_intonation_perc,2024.1.4,Win32,120.4819277,,,,,,,,,,,,,,56,pico,,,,,,155.8855,157.663,1,0,1.2709,,0,52,52,55,1,non_cognate,1,REAL,FALSA
,,,,,,,,,5fb025d26f5aaa39152578fa,001,2024-06-30_05h57.22.928,empathy_intonation_perc,2024.1.4,Win32,120.4819277,,,,,,,,,,,,,,75,patada,,,,,,157.6632,159.0734,0,1,0.9026,,0,53,53,74,1,non_cognate,1,REAL,FALSA
,,,,,,,,,5fb025d26f5aaa39152578fa,001,2024-06-30_05h57.22.928,empathy_intonation_perc,2024.1.4,Win32,120.4819277,,,,,,,,,,,,,,122,boñaz,,,,,,159.0736,161.0012,1,0,1.4186,,0,54,54,121,1,pseudoword,0,REAL,FALSA
,,,,,,,,,5fb025d26f5aaa39152578fa,001,2024-06-30_05h57.22.928,empathy_intonation_perc,2024.1.4,Win32,120.4819277,,,,,,,,,,,,,,166,anfia,,,,,,161.0014,162.712,0,1,1.2068,,0,55,55,165,1,pseudoword,0,REAL,FALSA
,,,,,,,,,5fb025d26f5aaa39152578fa,001,2024-06-30_05h57.22.928,empathy_intonation_perc,2024.1.4,Win32,120.4819277,,,,,,,,,,,,,,64,rizado,,,,,,162.7123,164.8653,0,1,1.6456,,0,56,56,63,1,non_cognate,1,REAL,FALSA
,,,,,,,,,5fb025d26f5aaa39152578fa,001,2024-06-30_05h57.22.928,empathy_intonation_perc,2024.1.4,Win32,120.4819277,,,,,,,,,,,,,,76,chocar,,,,,,164.8654,167.9782,0,1,2.604,,0,57,57,75,1,non_cognate,1,REAL,FALSA
,,,,,,,,,5fb025d26f5aaa39152578fa,001,2024-06-30_05h57.22.928,empathy_intonation_perc,2024.1.4,Win32,120.4819277,,,,,,,,,,,,,,10,drama,,,,,,167.983,169.1717,1,0,0.6768,,0,58,58,9,1,three_way_cognate,1,REAL,FALSA
,,,,,,,,,5fb025d26f5aaa39152578fa,001,2024-06-30_05h57.22.928,empathy_intonation_perc,2024.1.4,Win32,120.4819277,,,,,,,,,,,,,,35,aurora,,,,,,169.172,170.7156,1,0,1.0384,,0,59,59,34,1,two_way_cognate,1,REAL,FALSA
,,,,,,,,,5fb025d26f5aaa39152578fa,001,2024-06-30_05h57.22.928,empathy_intonation_perc,2024.1.4,Win32,120.4819277,,,,,,,,,,,,,,44,editor,,,,,,170.7157,172.076,1,0,0.8523,,0,60,60,43,1,two_way_cognate,1,REAL,FALSA
,,,,,,,,,5fb025d26f5aaa39152578fa,001,2024-06-30_05h57.22.928,empathy_intonation_perc,2024.1.4,Win32,120.4819277,,,,,,,,,,,,,,7,albino,,,,,,172.076,173.4697,1,0,0.884,,0,61,61,6,1,three_way_cognate,1,REAL,FALSA
,,,,,,,,,5fb025d26f5aaa39152578fa,001,2024-06-30_05h57.22.928,empathy_intonation_perc,2024.1.4,Win32,120.4819277,,,,,,,,,,,,,,110,densó,,,,,,173.4698,174.9553,0,1,0.9787,,0,62,62,109,1,pseudoword,0,REAL,FALSA
,,,,,,,,,5fb025d26f5aaa39152578fa,001,2024-06-30_05h57.22.928,empathy_intonation_perc,2024.1.4,Win32,120.4819277,,,,,,,,,,,,,,172,dogue,,,,,,174.9554,176.6494,0,1,1.1845,,0,63,63,171,1,pseudoword,0,REAL,FALSA
,,,,,,,,,5fb025d26f5aaa39152578fa,001,2024-06-30_05h57.22.928,empathy_intonation_perc,2024.1.4,Win32,120.4819277,,,,,,,,,,,,,,156,ozoso,,,,,,176.6496,178.4103,0,1,1.2546,,0,64,64,155,1,pseudoword,0,REAL,FALSA
,,,,,,,,,5fb025d26f5aaa39152578fa,001,2024-06-30_05h57.22.928,empathy_intonation_perc,2024.1.4,Win32,120.4819277,,,,,,,,,,,,,,12,dogma,,,,,,178.4105,180.0545,0,1,1.1359,,0,65,65,11,1,three_way_cognate,1,REAL,FALSA
,,,,,,,,,5fb025d26f5aaa39152578fa,001,2024-06-30_05h57.22.928,empathy_intonation_perc,2024.1.4,Win32,120.4819277,,,,,,,,,,,,,,70,ánimo,,,,,,180.0547,182.5665,1,0,2.002,,0,66,66,69,1,non_cognate,1,REAL,FALSA
,,,,,,,,,5fb025d26f5aaa39152578fa,001,2024-06-30_05h57.22.928,empathy_intonation_perc,2024.1.4,Win32,120.4819277,,,,,,,,,,,,,,29,clamor,,,,,,182.5667,184.4192,1,0,1.3433,,0,67,67,28,1,two_way_cognate,1,REAL,FALSA
,,,,,,,,,5fb025d26f5aaa39152578fa,001,2024-06-30_05h57.22.928,empathy_intonation_perc,2024.1.4,Win32,120.4819277,,,,,,,,,,,,,,53,punta,,,,,,184.4194,186.1133,1,0,1.1844,,0,68,68,52,1,non_cognate,1,REAL,FALSA
,,,,,,,,,5fb025d26f5aaa39152578fa,001,2024-06-30_05h57.22.928,empathy_intonation_perc,2024.1.4,Win32,120.4819277,,,,,,,,,,,,,,82,brillo,,,,,,186.1135,188.0746,0,1,1.4541,,0,69,69,81,1,non_cognate,1,REAL,FALSA
,,,,,,,,,5fb025d26f5aaa39152578fa,001,2024-06-30_05h57.22.928,empathy_intonation_perc,2024.1.4,Win32,120.4819277,,,,,,,,,,,,,,41,pasta,,,,,,188.0748,189.3181,1,0,0.7372,,0,70,70,40,1,two_way_cognate,1,REAL,FALSA
,,,,,,,,,5fb025d26f5aaa39152578fa,001,2024-06-30_05h57.22.928,empathy_intonation_perc,2024.1.4,Win32,120.4819277,,,,,,,,,,,,,,83,hálito,,,,,,189.3183,190.6451,0,1,0.8175,,0,71,71,82,1,non_cognate,1,REAL,FALSA
,,,,,,,,,5fb025d26f5aaa39152578fa,001,2024-06-30_05h57.22.928,empathy_intonation_perc,2024.1.4,Win32,120.4819277,,,,,,,,,,,,,,127,vien,,,,,,190.6454,192.0554,0,1,0.9027,,0,72,72,126,1,pseudoword,0,REAL,FALSA
,,,,,,,,,5fb025d26f5aaa39152578fa,001,2024-06-30_05h57.22.928,empathy_intonation_perc,2024.1.4,Win32,120.4819277,,,,,,,,,,,,,,59,feo,,,,,,192.0558,193.1738,0,1,0.6127,,0,73,73,58,1,non_cognate,1,REAL,FALSA
,,,,,,,,,5fb025d26f5aaa39152578fa,001,2024-06-30_05h57.22.928,empathy_intonation_perc,2024.1.4,Win32,120.4819277,,,,,,,,,,,,,,94,forro,,,,,,193.174,194.4258,0,1,0.7423,,0,74,74,93,1,non_cognate,1,REAL,FALSA
,,,,,,,,,5fb025d26f5aaa39152578fa,001,2024-06-30_05h57.22.928,empathy_intonation_perc,2024.1.4,Win32,120.4819277,,,,,,,,,,,,,,192,próces,,,,,,194.426,196.4536,1,0,1.5202,,0,75,75,191,1,pseudoword,0,REAL,FALSA
,,,,,,,,,5fb025d26f5aaa39152578fa,001,2024-06-30_05h57.22.928,empathy_intonation_perc,2024.1.4,Win32,120.4819277,,,,,,,,,,,,,,191,frasis,,,,,,196.4538,197.7055,0,1,0.7422,,0,76,76,190,1,pseudoword,0,REAL,FALSA
,,,,,,,,,5fb025d26f5aaa39152578fa,001,2024-06-30_05h57.22.928,empathy_intonation_perc,2024.1.4,Win32,120.4819277,,,,,,,,,,,,,,135,panté,,,,,,197.7057,199.4665,1,0,1.252,,0,77,77,134,1,pseudoword,0,REAL,FALSA
,,,,,,,,,5fb025d26f5aaa39152578fa,001,2024-06-30_05h57.22.928,empathy_intonation_perc,2024.1.4,Win32,120.4819277,,,,,,,,,,,,,,189,medium,,,,,,199.4666,200.7517,1,0,0.7811,,0,78,78,188,1,pseudoword,0,REAL,FALSA
,,,,,,,,,5fb025d26f5aaa39152578fa,001,2024-06-30_05h57.22.928,empathy_intonation_perc,2024.1.4,Win32,120.4819277,,,,,,,,,,,,,,153,golla,,,,,,200.7519,201.9201,0,1,0.6592,,0,79,79,152,1,pseudoword,0,REAL,FALSA
,,,,,,,,,5fb025d26f5aaa39152578fa,001,2024-06-30_05h57.22.928,empathy_intonation_perc,2024.1.4,Win32,120.4819277,,,,,,,,,,,,,,190,asumie,,,,,,201.9203,203.3555,0,1,0.9307,,0,80,80,189,1,pseudoword,0,REAL,FALSA
,,,,,,,,,5fb025d26f5aaa39152578fa,001,2024-06-30_05h57.22.928,empathy_intonation_perc,2024.1.4,Win32,120.4819277,,,,,,,,,,,,,,72,rostro,,,,,,203.3557,204.9663,0,1,1.1011,,0,81,81,71,1,non_cognate,1,REAL,FALSA
,,,,,,,,,5fb025d26f5aaa39152578fa,001,2024-06-30_05h57.22.928,empathy_intonation_perc,2024.1.4,Win32,120.4819277,,,,,,,,,,,,,,106,diebro,,,,,,204.9665,206.168,0,1,0.6953,,0,82,82,105,1,pseudoword,0,REAL,FALSA
,,,,,,,,,5fb025d26f5aaa39152578fa,001,2024-06-30_05h57.22.928,empathy_intonation_perc,2024.1.4,Win32,120.4819277,,,,,,,,,,,,,,38,halo,,,,,,206.1681,207.5534,1,0,0.8762,,0,83,83,37,1,two_way_cognate,1,REAL,FALSA
,,,,,,,,,5fb025d26f5aaa39152578fa,001,2024-06-30_05h57.22.928,empathy_intonation_perc,2024.1.4,Win32,120.4819277,,,,,,,,,,,,,,3,disco,,,,,,207.5535,208.9053,1,0,0.8428,,0,84,84,2,1,three_way_cognate,1,REAL,FALSA
,,,,,,,,,5fb025d26f5aaa39152578fa,001,2024-06-30_05h57.22.928,empathy_intonation_perc,2024.1.4,Win32,120.4819277,,,,,,,,,,,,,,23,plural,,,,,,208.9055,210.3158,1,0,0.9015,,0,85,85,22,1,three_way_cognate,1,REAL,FALSA
,,,,,,,,,5fb025d26f5aaa39152578fa,001,2024-06-30_05h57.22.928,empathy_intonation_perc,2024.1.4,Win32,120.4819277,,,,,,,,,,,,,,28,ardor,,,,,,210.3161,211.8848,0,1,1.0638,,0,86,86,27,1,two_way_cognate,1,REAL,FALSA
,,,,,,,,,5fb025d26f5aaa39152578fa,001,2024-06-30_05h57.22.928,empathy_intonation_perc,2024.1.4,Win32,120.4819277,,,,,,,,,,,,,,118,bará,,,,,,211.8849,213.0783,0,1,0.6853,,0,87,87,117,1,pseudoword,0,REAL,FALSA
,,,,,,,,,5fb025d26f5aaa39152578fa,001,2024-06-30_05h57.22.928,empathy_intonation_perc,2024.1.4,Win32,120.4819277,,,,,,,,,,,,,,130,dubo,,,,,,213.0785,214.2717,0,1,0.6834,,0,88,88,129,1,pseudoword,0,REAL,FALSA
,,,,,,,,,5fb025d26f5aaa39152578fa,001,2024-06-30_05h57.22.928,empathy_intonation_perc,2024.1.4,Win32,120.4819277,,,,,,,,,,,,,,74,ala,,,,,,214.2719,215.9409,0,1,1.1611,,0,89,89,73,1,non_cognate,1,REAL,FALSA
,,,,,,,,,5fb025d26f5aaa39152578fa,001,2024-06-30_05h57.22.928,empathy_intonation_perc,2024.1.4,Win32,120.4819277,,,,,,,,,,,,,,132,nocó,,,,,,215.9411,217.4014,1,0,0.9528,,0,90,90,131,1,pseudoword,0,REAL,FALSA
,,,,,,,,,5fb025d26f5aaa39152578fa,001,2024-06-30_05h57.22.928,empathy_intonation_perc,2024.1.4,Win32,120.4819277,,,,,,,,,,,,,,141,virios,,,,,,217.4016,218.6114,0,1,0.7045,,0,91,91,140,1,pseudoword,0,REAL,FALSA
,,,,,,,,,5fb025d26f5aaa39152578fa,001,2024-06-30_05h57.22.928,empathy_intonation_perc,2024.1.4,Win32,120.4819277,,,,,,,,,,,,,,67,llamar,,,,,,218.6116,221.015,1,0,1.8949,,0,92,92,66,1,non_cognate,1,REAL,FALSA
,,,,,,,,,5fb025d26f5aaa39152578fa,001,2024-06-30_05h57.22.928,empathy_intonation_perc,2024.1.4,Win32,120.4819277,,,,,,,,,,,,,,92,flecha,,,,,,221.0151,222.6757,0,1,1.1512,,0,93,93,91,1,non_cognate,1,REAL,FALSA
,,,,,,,,,5fb025d26f5aaa39152578fa,001,2024-06-30_05h57.22.928,empathy_intonation_perc,2024.1.4,Win32,120.4819277,,,,,,,,,,,,,,39,casual,,,,,,222.6759,224.3199,1,0,1.1349,,0,94,94,38,1,two_way_cognate,1,REAL,FALSA
,,,,,,,,,5fb025d26f5aaa39152578fa,001,2024-06-30_05h57.22.928,empathy_intonation_perc,2024.1.4,Win32,120.4819277,,,,,,,,,,,,,,138,tator,,,,,,224.3201,227.1241,0,1,2.298,,0,95,95,137,1,pseudoword,0,REAL,FALSA
,,,,,,,,,5fb025d26f5aaa39152578fa,001,2024-06-30_05h57.22.928,empathy_intonation_perc,2024.1.4,Win32,120.4819277,,,,,,,,,,,,,,169,pitis,,,,,,227.1243,229.0519,0,1,1.4217,,0,96,96,168,1,pseudoword,0,REAL,FALSA
,,,,,,,,,5fb025d26f5aaa39152578fa,001,2024-06-30_05h57.22.928,empathy_intonation_perc,2024.1.4,Win32,120.4819277,,,,,,,,,,,,,,2,tumor,,,,,,229.0521,230.2954,1,0,0.7379,,0,97,97,1,1,three_way_cognate,1,REAL,FALSA
,,,,,,,,,5fb025d26f5aaa39152578fa,001,2024-06-30_05h57.22.928,empathy_intonation_perc,2024.1.4,Win32,120.4819277,,,,,,,,,,,,,,66,aleta,,,,,,230.2955,231.4971,0,1,0.6921,,0,98,98,65,1,non_cognate,1,REAL,FALSA
,,,,,,,,,5fb025d26f5aaa39152578fa,001,2024-06-30_05h57.22.928,empathy_intonation_perc,2024.1.4,Win32,120.4819277,,,,,,,,,,,,,,81,sacar,,,,,,231.4973,232.9743,0,1,0.9729,,0,99,99,80,1,non_cognate,1,REAL,FALSA
,,,,,,,,,5fb025d26f5aaa39152578fa,001,2024-06-30_05h57.22.928,empathy_intonation_perc,2024.1.4,Win32,120.4819277,,,,,,,,,,,,,,101,losco,,,,,,232.9745,234.5101,0,1,1.0277,,0,100,100,100,1,pseudoword,0,REAL,FALSA
,,,,,,,,,5fb025d26f5aaa39152578fa,001,2024-06-30_05h57.22.928,empathy_intonation_perc,2024.1.4,Win32,120.4819277,,,,,,,,,,,,,,179,suelet,,,,,,234.5103,236.0789,0,1,1.0592,,0,101,101,178,1,pseudoword,0,REAL,FALSA
,,,,,,,,,5fb025d26f5aaa39152578fa,001,2024-06-30_05h57.22.928,empathy_intonation_perc,2024.1.4,Win32,120.4819277,,,,,,,,,,,,,,21,hotel,,,,,,236.0791,237.3224,1,0,0.7394,,0,102,102,20,1,three_way_cognate,1,REAL,FALSA
,,,,,,,,,5fb025d26f5aaa39152578fa,001,2024-06-30_05h57.22.928,empathy_intonation_perc,2024.1.4,Win32,120.4819277,,,,,,,,,,,,,,42,rumor,,,,,,237.3226,238.6828,1,0,0.8506,,0,103,103,41,1,two_way_cognate,1,REAL,FALSA
,,,,,,,,,5fb025d26f5aaa39152578fa,001,2024-06-30_05h57.22.928,empathy_intonation_perc,2024.1.4,Win32,120.4819277,,,,,,,,,,,,,,65,guerra,,,,,,238.683,239.9347,0,1,0.7468,,0,104,104,64,1,non_cognate,1,REAL,FALSA
,,,,,,,,,5fb025d26f5aaa39152578fa,001,2024-06-30_05h57.22.928,empathy_intonation_perc,2024.1.4,Win32,120.4819277,,,,,,,,,,,,,,109,laras,,,,,,239.9348,241.2533,0,1,0.8143,,0,105,105,108,1,pseudoword,0,REAL,FALSA
,,,,,,,,,5fb025d26f5aaa39152578fa,001,2024-06-30_05h57.22.928,empathy_intonation_perc,2024.1.4,Win32,120.4819277,,,,,,,,,,,,,,129,vinzó,,,,,,241.2535,242.3717,0,1,0.6107,,0,106,106,128,1,pseudoword,0,REAL,FALSA
,,,,,,,,,5fb025d26f5aaa39152578fa,001,2024-06-30_05h57.22.928,empathy_intonation_perc,2024.1.4,Win32,120.4819277,,,,,,,,,,,,,,149,emén,,,,,,242.3718,243.5317,0,1,0.651,,0,107,107,148,1,pseudoword,0,REAL,FALSA
,,,,,,,,,5fb025d26f5aaa39152578fa,001,2024-06-30_05h57.22.928,empathy_intonation_perc,2024.1.4,Win32,120.4819277,,,,,,,,,,,,,,58,colcha,,,,,,243.5319,244.9003,0,1,0.8635,,0,108,108,57,1,non_cognate,1,REAL,FALSA
,,,,,,,,,5fb025d26f5aaa39152578fa,001,2024-06-30_05h57.22.928,empathy_intonation_perc,2024.1.4,Win32,120.4819277,,,,,,,,,,,,,,25,vigor,,,,,,244.9005,246.3942,1,0,0.9854,,0,109,109,24,1,two_way_cognate,1,REAL,FALSA
,,,,,,,,,5fb025d26f5aaa39152578fa,001,2024-06-30_05h57.22.928,empathy_intonation_perc,2024.1.4,Win32,120.4819277,,,,,,,,,,,,,,161,civas,,,,,,246.3943,247.6043,0,1,0.7056,,0,110,110,160,1,pseudoword,0,REAL,FALSA
,,,,,,,,,5fb025d26f5aaa39152578fa,001,2024-06-30_05h57.22.928,empathy_intonation_perc,2024.1.4,Win32,120.4819277,,,,,,,,,,,,,,100,épinas,,,,,,247.6045,248.8979,0,1,0.7899,,0,111,111,99,1,pseudoword,0,REAL,FALSA
,,,,,,,,,5fb025d26f5aaa39152578fa,001,2024-06-30_05h57.22.928,empathy_intonation_perc,2024.1.4,Win32,120.4819277,,,,,,,,,,,,,,98,martir,,,,,,248.8981,250.1165,0,1,0.7092,,0,112,112,97,1,pseudoword,0,REAL,FALSA
,,,,,,,,,5fb025d26f5aaa39152578fa,001,2024-06-30_05h57.22.928,empathy_intonation_perc,2024.1.4,Win32,120.4819277,,,,,,,,,,,,,,139,sasos,,,,,,250.1166,251.9524,1,0,1.331,,0,113,113,138,1,pseudoword,0,REAL,FALSA
,,,,,,,,,5fb025d26f5aaa39152578fa,001,2024-06-30_05h57.22.928,empathy_intonation_perc,2024.1.4,Win32,120.4819277,,,,,,,,,,,,,,8,kilo,,,,,,251.9526,253.1877,0,1,0.7254,,0,114,114,7,1,three_way_cognate,1,REAL,FALSA
,,,,,,,,,5fb025d26f5aaa39152578fa,001,2024-06-30_05h57.22.928,empathy_intonation_perc,2024.1.4,Win32,120.4819277,,,,,,,,,,,,,,163,olzan,,,,,,253.1878,254.4728,0,1,0.7756,,0,115,115,162,1,pseudoword,0,REAL,FALSA
,,,,,,,,,5fb025d26f5aaa39152578fa,001,2024-06-30_05h57.22.928,empathy_intonation_perc,2024.1.4,Win32,120.4819277,,,,,,,,,,,,,,108,jauda,,,,,,254.4732,255.7415,0,1,0.7591,,0,116,116,107,1,pseudoword,0,REAL,FALSA
,,,,,,,,,5fb025d26f5aaa39152578fa,001,2024-06-30_05h57.22.928,empathy_intonation_perc,2024.1.4,Win32,120.4819277,,,,,,,,,,,,,,43,honor,,,,,,255.7419,256.9932,1,0,0.7425,,0,117,117,42,1,two_way_cognate,1,REAL,FALSA
,,,,,,,,,5fb025d26f5aaa39152578fa,001,2024-06-30_05h57.22.928,empathy_intonation_perc,2024.1.4,Win32,120.4819277,,,,,,,,,,,,,,175,tradía,,,,,,256.9934,258.2868,0,1,0.7848,,0,118,118,174,1,pseudoword,0,REAL,FALSA
,,,,,,,,,5fb025d26f5aaa39152578fa,001,2024-06-30_05h57.22.928,empathy_intonation_perc,2024.1.4,Win32,120.4819277,,,,,,,,,,,,,,174,pabea,,,,,,258.2869,259.5971,0,1,0.8008,,0,119,119,173,1,pseudoword,0,REAL,FALSA
,,,,,,,,,5fb025d26f5aaa39152578fa,001,2024-06-30_05h57.22.928,empathy_intonation_perc,2024.1.4,Win32,120.4819277,,,,,,,,,,,,,,159,trcia,,,,,,259.5974,260.8908,0,1,0.7848,,0,120,120,158,1,pseudoword,0,REAL,FALSA
,,,,,,,,,5fb025d26f5aaa39152578fa,001,2024-06-30_05h57.22.928,empathy_intonation_perc,2024.1.4,Win32,120.4819277,,,,,,,,,,,,,,47,color,,,,,,260.8909,262.1676,1,0,0.7674,,0,121,121,46,1,two_way_cognate,1,REAL,FALSA
,,,,,,,,,5fb025d26f5aaa39152578fa,001,2024-06-30_05h57.22.928,empathy_intonation_perc,2024.1.4,Win32,120.4819277,,,,,,,,,,,,,,136,hueas,,,,,,262.1678,263.4778,0,1,0.8043,,0,122,122,135,1,pseudoword,0,REAL,FALSA
,,,,,,,,,5fb025d26f5aaa39152578fa,001,2024-06-30_05h57.22.928,empathy_intonation_perc,2024.1.4,Win32,120.4819277,,,,,,,,,,,,,,107,plago,,,,,,263.478,264.7298,1,0,0.7446,,0,123,123,106,1,pseudoword,0,REAL,FALSA
,,,,,,,,,5fb025d26f5aaa39152578fa,001,2024-06-30_05h57.22.928,empathy_intonation_perc,2024.1.4,Win32,120.4819277,,,,,,,,,,,,,,54,tapón,,,,,,264.73,266.2152,1,0,0.9783,,0,124,124,53,1,non_cognate,1,REAL,FALSA
,,,,,,,,,5fb025d26f5aaa39152578fa,001,2024-06-30_05h57.22.928,empathy_intonation_perc,2024.1.4,Win32,120.4819277,,,,,,,,,,,,,,113,nasce,,,,,,266.2154,267.3169,0,1,0.5923,,0,125,125,112,1,pseudoword,0,REAL,FALSA
,,,,,,,,,5fb025d26f5aaa39152578fa,001,2024-06-30_05h57.22.928,empathy_intonation_perc,2024.1.4,Win32,120.4819277,,,,,,,,,,,,,,114,dibrea,,,,,,267.3172,268.36,0,1,0.5336,,0,126,126,113,1,pseudoword,0,REAL,FALSA
,,,,,,,,,5fb025d26f5aaa39152578fa,001,2024-06-30_05h57.22.928,empathy_intonation_perc,2024.1.4,Win32,120.4819277,,,,,,,,,,,,,,45,total,,,,,,268.3602,269.6035,1,0,0.736,,0,127,127,44,1,two_way_cognate,1,REAL,FALSA
,,,,,,,,,5fb025d26f5aaa39152578fa,001,2024-06-30_05h57.22.928,empathy_intonation_perc,2024.1.4,Win32,120.4819277,,,,,,,,,,,,,,168,cobén,,,,,,269.6037,270.6968,0,1,0.5885,,0,128,128,167,1,pseudoword,0,REAL,FALSA
,,,,,,,,,5fb025d26f5aaa39152578fa,001,2024-06-30_05h57.22.928,empathy_intonation_perc,2024.1.4,Win32,120.4819277,,,,,,,,,,,,,,151,prías,,,,,,270.6969,271.9321,0,1,0.7308,,0,129,129,150,1,pseudoword,0,REAL,FALSA
,,,,,,,,,5fb025d26f5aaa39152578fa,001,2024-06-30_05h57.22.928,empathy_intonation_perc,2024.1.4,Win32,120.4819277,,,,,,,,,,,,,,173,mibro,,,,,,271.9323,273.1756,0,1,0.7356,,0,130,130,172,1,pseudoword,0,REAL,FALSA
,,,,,,,,,5fb025d26f5aaa39152578fa,001,2024-06-30_05h57.22.928,empathy_intonation_perc,2024.1.4,Win32,120.4819277,,,,,,,,,,,,,,50,sierra,,,,,,273.1757,274.4358,1,0,0.7506,,0,131,131,49,1,non_cognate,1,REAL,FALSA
,,,,,,,,,5fb025d26f5aaa39152578fa,001,2024-06-30_05h57.22.928,empathy_intonation_perc,2024.1.4,Win32,120.4819277,,,,,,,,,,,,,,155,kugis,,,,,,274.4359,275.6458,0,1,0.7022,,0,132,132,154,1,pseudoword,0,REAL,FALSA
,,,,,,,,,5fb025d26f5aaa39152578fa,001,2024-06-30_05h57.22.928,empathy_intonation_perc,2024.1.4,Win32,120.4819277,,,,,,,,,,,,,,89,muñeca,,,,,,275.6459,276.8477,0,1,0.6918,,0,133,133,88,1,non_cognate,1,REAL,FALSA
,,,,,,,,,5fb025d26f5aaa39152578fa,001,2024-06-30_05h57.22.928,empathy_intonation_perc,2024.1.4,Win32,120.4819277,,,,,,,,,,,,,,146,gió,,,,,,276.8479,278.0243,0,1,0.6724,,0,134,134,145,1,pseudoword,0,REAL,FALSA
,,,,,,,,,5fb025d26f5aaa39152578fa,001,2024-06-30_05h57.22.928,empathy_intonation_perc,2024.1.4,Win32,120.4819277,,,,,,,,,,,,,,152,prave,,,,,,278.0246,279.3096,0,1,0.7813,,0,135,135,151,1,pseudoword,0,REAL,FALSA
,,,,,,,,,5fb025d26f5aaa39152578fa,001,2024-06-30_05h57.22.928,empathy_intonation_perc,2024.1.4,Win32,120.4819277,,,,,,,,,,,,,,117,morrá,,,,,,279.3098,280.4529,0,1,0.636,,0,136,136,116,1,pseudoword,0,REAL,FALSA
,,,,,,,,,5fb025d26f5aaa39152578fa,001,2024-06-30_05h57.22.928,empathy_intonation_perc,2024.1.4,Win32,120.4819277,,,,,,,,,,,,,,19,mafia,,,,,,280.4531,281.6297,1,0,0.6731,,0,137,137,18,1,three_way_cognate,1,REAL,FALSA
,,,,,,,,,5fb025d26f5aaa39152578fa,001,2024-06-30_05h57.22.928,empathy_intonation_perc,2024.1.4,Win32,120.4819277,,,,,,,,,,,,,,99,bugor,,,,,,281.6298,282.8314,0,1,0.6923,,0,138,138,98,1,pseudoword,0,REAL,FALSA
,,,,,,,,,5fb025d26f5aaa39152578fa,001,2024-06-30_05h57.22.928,empathy_intonation_perc,2024.1.4,Win32,120.4819277,,,,,,,,,,,,,,154,harvé,,,,,,282.8317,284.0417,0,1,0.7004,,0,139,139,153,1,pseudoword,0,REAL,FALSA
,,,,,,,,,5fb025d26f5aaa39152578fa,001,2024-06-30_05h57.22.928,empathy_intonation_perc,2024.1.4,Win32,120.4819277,,,,,,,,,,,,,,34,actor,,,,,,284.042,285.185,1,0,0.638,,0,140,140,33,1,two_way_cognate,1,REAL,FALSA
,,,,,,,,,5fb025d26f5aaa39152578fa,001,2024-06-30_05h57.22.928,empathy_intonation_perc,2024.1.4,Win32,120.4819277,,,,,,,,,,,,,,123,arane,,,,,,285.1852,286.4369,0,1,0.7465,,0,141,141,122,1,pseudoword,0,REAL,FALSA
,,,,,,,,,5fb025d26f5aaa39152578fa,001,2024-06-30_05h57.22.928,empathy_intonation_perc,2024.1.4,Win32,120.4819277,,,,,,,,,,,,,,24,retina,,,,,,286.437,287.964,0,1,1.019,,0,142,142,23,1,three_way_cognate,1,REAL,FALSA
,,,,,,,,,5fb025d26f5aaa39152578fa,001,2024-06-30_05h57.22.928,empathy_intonation_perc,2024.1.4,Win32,120.4819277,,,,,,,,,,,,,,69,tiza,,,,,,287.9643,289.4831,0,1,1.0139,,0,143,143,68,1,non_cognate,1,REAL,FALSA
,,,,,,,,,5fb025d26f5aaa39152578fa,001,2024-06-30_05h57.22.928,empathy_intonation_perc,2024.1.4,Win32,120.4819277,,,,,,,,,,,,,,112,samón,,,,,,289.4832,291.0603,0,1,1.0676,,0,144,144,111,1,pseudoword,0,REAL,FALSA
,,,,,,,,,5fb025d26f5aaa39152578fa,001,2024-06-30_05h57.22.928,empathy_intonation_perc,2024.1.4,Win32,120.4819277,,,,,,,,,,,,,,86,cuenco,,,,,,291.0604,292.5208,0,1,0.951,,0,145,145,85,1,non_cognate,1,REAL,FALSA
,,,,,,,,,5fb025d26f5aaa39152578fa,001,2024-06-30_05h57.22.928,empathy_intonation_perc,2024.1.4,Win32,120.4819277,,,,,,,,,,,,,,145,rúo,,,,,,292.521,293.7893,0,1,0.7609,,0,146,146,144,1,pseudoword,0,REAL,FALSA
,,,,,,,,,5fb025d26f5aaa39152578fa,001,2024-06-30_05h57.22.928,empathy_intonation_perc,2024.1.4,Win32,120.4819277,,,,,,,,,,,,,,78,rendir,,,,,,293.7895,295.4085,1,0,1.1091,,0,147,147,77,1,non_cognate,1,REAL,FALSA
,,,,,,,,,5fb025d26f5aaa39152578fa,001,2024-06-30_05h57.22.928,empathy_intonation_perc,2024.1.4,Win32,120.4819277,,,,,,,,,,,,,,27,piano,,,,,,295.4087,296.5768,1,0,0.6591,,0,148,148,26,1,two_way_cognate,1,REAL,FALSA
,,,,,,,,,5fb025d26f5aaa39152578fa,001,2024-06-30_05h57.22.928,empathy_intonation_perc,2024.1.4,Win32,120.4819277,,,,,,,,,,,,,,73,llevar,,,,,,296.577,297.7286,0,1,0.6416,,0,149,149,72,1,non_cognate,1,REAL,FALSA
,,,,,,,,,5fb025d26f5aaa39152578fa,001,2024-06-30_05h57.22.928,empathy_intonation_perc,2024.1.4,Win32,120.4819277,,,,,,,,,,,,,,124,lobe,,,,,,297.7287,299.1973,0,1,0.9615,,0,150,150,123,1,pseudoword,0,REAL,FALSA
,,,,,,,,,5fb025d26f5aaa39152578fa,001,2024-06-30_05h57.22.928,empathy_intonation_perc,2024.1.4,Win32,120.4819277,,,,,,,,,,,,,,90,venado,,,,,,299.1976,300.5994,0,1,0.8965,,0,151,151,89,1,non_cognate,1,REAL,FALSA
,,,,,,,,,5fb025d26f5aaa39152578fa,001,2024-06-30_05h57.22.928,empathy_intonation_perc,2024.1.4,Win32,120.4819277,,,,,,,,,,,,,,17,clan,,,,,,300.5996,301.8263,1,0,0.7185,,0,152,152,16,1,three_way_cognate,1,REAL,FALSA
,,,,,,,,,5fb025d26f5aaa39152578fa,001,2024-06-30_05h57.22.928,empathy_intonation_perc,2024.1.4,Win32,120.4819277,,,,,,,,,,,,,,104,estulo,,,,,,301.8265,303.4621,0,1,1.1293,,0,153,153,103,1,pseudoword,0,REAL,FALSA
,,,,,,,,,5fb025d26f5aaa39152578fa,001,2024-06-30_05h57.22.928,empathy_intonation_perc,2024.1.4,Win32,120.4819277,,,,,,,,,,,,,,140,chorde,,,,,,303.4623,304.6387,0,1,0.6671,,0,154,154,139,1,pseudoword,0,REAL,FALSA
,,,,,,,,,5fb025d26f5aaa39152578fa,001,2024-06-30_05h57.22.928,empathy_intonation_perc,2024.1.4,Win32,120.4819277,,,,,,,,,,,,,,77,suave,,,,,,304.6389,306.3329,1,0,1.1852,,0,155,155,76,1,non_cognate,1,REAL,FALSA
,,,,,,,,,5fb025d26f5aaa39152578fa,001,2024-06-30_05h57.22.928,empathy_intonation_perc,2024.1.4,Win32,120.4819277,,,,,,,,,,,,,,5,extra,,,,,,306.3331,307.4848,1,0,0.6425,,0,156,156,4,1,three_way_cognate,1,REAL,FALSA
,,,,,,,,,5fb025d26f5aaa39152578fa,001,2024-06-30_05h57.22.928,empathy_intonation_perc,2024.1.4,Win32,120.4819277,,,,,,,,,,,,,,55,maldad,,,,,,307.485,308.87,0,1,0.8756,,0,157,157,54,1,non_cognate,1,REAL,FALSA
,,,,,,,,,5fb025d26f5aaa39152578fa,001,2024-06-30_05h57.22.928,empathy_intonation_perc,2024.1.4,Win32,120.4819277,,,,,,,,,,,,,,26,enigma,,,,,,308.8701,310.6226,1,0,1.246,,0,158,158,25,1,two_way_cognate,1,REAL,FALSA
,,,,,,,,,5fb025d26f5aaa39152578fa,001,2024-06-30_05h57.22.928,empathy_intonation_perc,2024.1.4,Win32,120.4819277,,,,,,,,,,,,,,171,gotro,,,,,,310.6229,311.7243,0,1,0.5951,,0,159,159,170,1,pseudoword,0,REAL,FALSA
,,,,,,,,,5fb025d26f5aaa39152578fa,001,2024-06-30_05h57.22.928,empathy_intonation_perc,2024.1.4,Win32,120.4819277,,,,,,,,,,,,,,52,blando,,,,,,311.7245,312.8425,0,1,0.6137,,0,160,160,51,1,non_cognate,1,REAL,FALSA
,,,,,,,,,5fb025d26f5aaa39152578fa,001,2024-06-30_05h57.22.928,empathy_intonation_perc,2024.1.4,Win32,120.4819277,,,,,,,,,,,,,,150,cricó,,,,,,312.8427,314.4617,0,1,1.1094,,0,161,161,149,1,pseudoword,0,REAL,FALSA
,,,,,,,,,5fb025d26f5aaa39152578fa,001,2024-06-30_05h57.22.928,empathy_intonation_perc,2024.1.4,Win32,120.4819277,,,,,,,,,,,,,,188,amplir,,,,,,314.4619,315.5883,0,1,0.6199,,0,162,162,187,1,pseudoword,0,REAL,FALSA
,,,,,,,,,5fb025d26f5aaa39152578fa,001,2024-06-30_05h57.22.928,empathy_intonation_perc,2024.1.4,Win32,120.4819277,,,,,,,,,,,,,,133,conso,,,,,,315.5885,316.8569,0,1,0.7614,,0,163,163,132,1,pseudoword,0,REAL,FALSA
,,,,,,,,,5fb025d26f5aaa39152578fa,001,2024-06-30_05h57.22.928,empathy_intonation_perc,2024.1.4,Win32,120.4819277,,,,,,,,,,,,,,31,civil,,,,,,316.8571,317.9503,1,0,0.5839,,0,164,164,30,1,two_way_cognate,1,REAL,FALSA
,,,,,,,,,5fb025d26f5aaa39152578fa,001,2024-06-30_05h57.22.928,empathy_intonation_perc,2024.1.4,Win32,120.4819277,,,,,,,,,,,,,,1,moral,,,,,,317.9505,319.0601,1,0,0.606,,0,165,165,0,1,three_way_cognate,1,REAL,FALSA
,,,,,,,,,5fb025d26f5aaa39152578fa,001,2024-06-30_05h57.22.928,empathy_intonation_perc,2024.1.4,Win32,120.4819277,,,,,,,,,,,,,,60,siglo,,,,,,319.0603,320.3036,0,1,0.7339,,0,166,166,59,1,non_cognate,1,REAL,FALSA
,,,,,,,,,5fb025d26f5aaa39152578fa,001,2024-06-30_05h57.22.928,empathy_intonation_perc,2024.1.4,Win32,120.4819277,,,,,,,,,,,,,,143,hurcos,,,,,,320.3038,321.4303,0,1,0.6223,,0,167,167,142,1,pseudoword,0,REAL,FALSA
,,,,,,,,,5fb025d26f5aaa39152578fa,001,2024-06-30_05h57.22.928,empathy_intonation_perc,2024.1.4,Win32,120.4819277,,,,,,,,,,,,,,165,chote,,,,,,321.4305,322.5818,0,1,0.6476,,0,168,168,164,1,pseudoword,0,REAL,FALSA
,,,,,,,,,5fb025d26f5aaa39152578fa,001,2024-06-30_05h57.22.928,empathy_intonation_perc,2024.1.4,Win32,120.4819277,,,,,,,,,,,,,,57,regalo,,,,,,322.5821,323.7838,0,1,0.6918,,0,169,169,56,1,non_cognate,1,REAL,FALSA
,,,,,,,,,5fb025d26f5aaa39152578fa,001,2024-06-30_05h57.22.928,empathy_intonation_perc,2024.1.4,Win32,120.4819277,,,,,,,,,,,,,,71,torta,,,,,,323.784,325.3526,0,1,1.0645,,0,170,170,70,1,non_cognate,1,REAL,FALSA
,,,,,,,,,5fb025d26f5aaa39152578fa,001,2024-06-30_05h57.22.928,empathy_intonation_perc,2024.1.4,Win32,120.4819277,,,,,,,,,,,,,,142,parre,,,,,,325.3529,326.6046,0,1,0.746,,0,171,171,141,1,pseudoword,0,REAL,FALSA
,,,,,,,,,5fb025d26f5aaa39152578fa,001,2024-06-30_05h57.22.928,empathy_intonation_perc,2024.1.4,Win32,120.4819277,,,,,,,,,,,,,,46,mortal,,,,,,326.6047,327.798,1,0,0.6867,,0,172,172,45,1,two_way_cognate,1,REAL,FALSA
,,,,,,,,,5fb025d26f5aaa39152578fa,001,2024-06-30_05h57.22.928,empathy_intonation_perc,2024.1.4,Win32,120.4819277,,,,,,,,,,,,,,115,lidena,,,,,,327.7981,329.15,0,1,0.848,,0,173,173,114,1,pseudoword,0,REAL,FALSA
,,,,,,,,,5fb025d26f5aaa39152578fa,001,2024-06-30_05h57.22.928,empathy_intonation_perc,2024.1.4,Win32,120.4819277,,,,,,,,,,,,,,63,hilo,,,,,,329.1502,330.2599,0,1,0.6035,,0,174,174,62,1,non_cognate,1,REAL,FALSA
,,,,,,,,,5fb025d26f5aaa39152578fa,001,2024-06-30_05h57.22.928,empathy_intonation_perc,2024.1.4,Win32,120.4819277,,,,,,,,,,,,,,62,pegar,,,,,,330.2601,331.4952,0,1,0.7259,,0,175,175,61,1,non_cognate,1,REAL,FALSA
,,,,,,,,,5fb025d26f5aaa39152578fa,001,2024-06-30_05h57.22.928,empathy_intonation_perc,2024.1.4,Win32,120.4819277,,,,,,,,,,,,,,170,diabo,,,,,,331.4954,333.0975,0,1,1.0947,,0,176,176,169,1,pseudoword,0,REAL,FALSA
,,,,,,,,,5fb025d26f5aaa39152578fa,001,2024-06-30_05h57.22.928,empathy_intonation_perc,2024.1.4,Win32,120.4819277,,,,,,,,,,,,,,137,trugo,,,,,,333.0977,334.4745,0,1,0.8683,,0,177,177,136,1,pseudoword,0,REAL,FALSA
,,,,,,,,,5fb025d26f5aaa39152578fa,001,2024-06-30_05h57.22.928,empathy_intonation_perc,2024.1.4,Win32,120.4819277,,,,,,,,,,,,,,181,gravés,,,,,,334.4747,335.8432,0,1,0.8591,,0,178,178,180,1,pseudoword,0,REAL,FALSA
,,,,,,,,,5fb025d26f5aaa39152578fa,001,2024-06-30_05h57.22.928,empathy_intonation_perc,2024.1.4,Win32,120.4819277,,,,,,,,,,,,,,186,rizate,,,,,,335.8434,337.4957,0,1,1.1477,,0,179,179,185,1,pseudoword,0,REAL,FALSA
,,,,,,,,,5fb025d26f5aaa39152578fa,001,2024-06-30_05h57.22.928,empathy_intonation_perc,2024.1.4,Win32,120.4819277,,,,,,,,,,,,,,79,suelo,,,,,,337.4959,338.6975,0,1,0.6911,,0,180,180,78,1,non_cognate,1,REAL,FALSA
,,,,,,,,,5fb025d26f5aaa39152578fa,001,2024-06-30_05h57.22.928,empathy_intonation_perc,2024.1.4,Win32,120.4819277,,,,,,,,,,,,,,14,aura,,,,,,338.6976,340.2164,1,0,1.014,,0,181,181,13,1,three_way_cognate,1,REAL,FALSA
,,,,,,,,,5fb025d26f5aaa39152578fa,001,2024-06-30_05h57.22.928,empathy_intonation_perc,2024.1.4,Win32,120.4819277,,,,,,,,,,,,,,30,fiscal,,,,,,340.2166,341.5099,1,0,0.7837,,0,182,182,29,1,two_way_cognate,1,REAL,FALSA
,,,,,,,,,5fb025d26f5aaa39152578fa,001,2024-06-30_05h57.22.928,empathy_intonation_perc,2024.1.4,Win32,120.4819277,,,,,,,,,,,,,,180,pupica,,,,,,341.5101,342.7034,0,1,0.6833,,0,183,183,179,1,pseudoword,0,REAL,FALSA
,,,,,,,,,5fb025d26f5aaa39152578fa,001,2024-06-30_05h57.22.928,empathy_intonation_perc,2024.1.4,Win32,120.4819277,,,,,,,,,,,,,,16,chat,,,,,,342.7037,343.8718,1,0,0.6587,,0,184,184,15,1,three_way_cognate,1,REAL,FALSA
,,,,,,,,,5fb025d26f5aaa39152578fa,001,2024-06-30_05h57.22.928,empathy_intonation_perc,2024.1.4,Win32,120.4819277,,,,,,,,,,,,,,121,barbs,,,,,,343.872,345.8914,1,0,1.5125,,0,185,185,120,1,pseudoword,0,REAL,FALSA
,,,,,,,,,5fb025d26f5aaa39152578fa,001,2024-06-30_05h57.22.928,empathy_intonation_perc,2024.1.4,Win32,120.4819277,,,,,,,,,,,,,,164,tecia,,,,,,345.8916,347.1433,0,1,0.7415,,0,186,186,163,1,pseudoword,0,REAL,FALSA
,,,,,,,,,5fb025d26f5aaa39152578fa,001,2024-06-30_05h57.22.928,empathy_intonation_perc,2024.1.4,Win32,120.4819277,,,,,,,,,,,,,,61,aduana,,,,,,347.1436,348.2782,0,1,0.6253,,0,187,187,60,1,non_cognate,1,REAL,FALSA
,,,,,,,,,5fb025d26f5aaa39152578fa,001,2024-06-30_05h57.22.928,empathy_intonation_perc,2024.1.4,Win32,120.4819277,,,,,,,,,,,,,,51,listo,,,,,,348.2784,349.522,0,1,0.7346,,0,188,188,50,1,non_cognate,1,REAL,FALSA
,,,,,,,,,5fb025d26f5aaa39152578fa,001,2024-06-30_05h57.22.928,empathy_intonation_perc,2024.1.4,Win32,120.4819277,,,,,,,,,,,,,,18,altar,,,,,,349.5222,350.9239,1,0,0.8961,,0,189,189,17,1,three_way_cognate,1,REAL,FALSA
,,,,,,,,,5fb025d26f5aaa39152578fa,001,2024-06-30_05h57.22.928,empathy_intonation_perc,2024.1.4,Win32,120.4819277,,,,,,,,,,,,,,49,teñir,,,,,,350.9241,352.2509,1,0,0.8179,,0,190,190,48,1,non_cognate,1,REAL,FALSA
,,,,,,,,,5fb025d26f5aaa39152578fa,001,2024-06-30_05h57.22.928,empathy_intonation_perc,2024.1.4,Win32,120.4819277,,,,,,,,,,,,,,131,fuar,,,,,,352.251,353.3609,0,1,0.6018,,0,191,191,130,1,pseudoword,0,REAL,FALSA
