lextale_instructions.started,lextale_instructions.stopped,lextale_instructions_loop.thisRepN,lextale_instructions_loop.thisTrialN,lextale_instructions_loop.thisN,lextale_instructions_loop.thisIndex,lextale_instructions_loop.ran,instructions_text,continue_text,participant,session,date,expName,psychopyVersion,OS,frameRate,lextale_practice.started,lextale_practice.stopped,key_resp_lextale_practice.keys,key_resp_lextale_practice.corr,key_resp_lextale_practice.rt,key_resp_lextale_practice.duration,lextale_practice_feedback.started,lextale_practice_feedback.stopped,lextale_practice_trials.thisRepN,lextale_practice_trials.thisTrialN,lextale_practice_trials.thisN,lextale_practice_trials.thisIndex,lextale_practice_trials.ran,stim,word,correct_response,prac_button_real,prac_button_false,lextale_check.started,lextale_check.stopped,lextale_trial.started,lextale_trial.stopped,key_resp_lextale_trial.keys,key_resp_lextale_trial.corr,key_resp_lextale_trial.rt,key_resp_lextale_trial.duration,lextail_trials.thisRepN,lextail_trials.thisTrialN,lextail_trials.thisN,lextail_trials.thisIndex,lextail_trials.ran,type,correct_reponse,button_real,button_false
0.0312,5.3711,0,0,0,0,1,"Este es un test de vocabulario en español. 
  
  A continuación vas a ver 90 secuencias de letras que parecen 'españolas'.
  
  Solo algunas de ellas son palabras de verdad.",(presiona la barra espaciadora para continuar),60fcd9699c3def3068403b90,001,2024-06-30_05h30.49.396,empathy_intonation_perc,2024.1.4,Linux x86_64,29.94011976,,,,,,,,,,,,,,,,,,,,,,,,,,,,,,,,,,,
5.3766,13.6123,0,1,1,1,1,"Por favor, señala las palabras que tú conoces (aquellas que estás convencido que son palabras españolas, incluso aunque no seas capaz de dar el significado preciso).",(presiona la barra espaciadora para continuar),60fcd9699c3def3068403b90,001,2024-06-30_05h30.49.396,empathy_intonation_perc,2024.1.4,Linux x86_64,29.94011976,,,,,,,,,,,,,,,,,,,,,,,,,,,,,,,,,,,
13.6131,23.1715,0,2,2,2,1,Pero cuidado: los errores se penalizan. Por eso no tiene sentido tratar de incrementar tu puntuación marcando como reales palabras que nunca has visto.,(presiona la barra espaciadora para continuar),60fcd9699c3def3068403b90,001,2024-06-30_05h30.49.396,empathy_intonation_perc,2024.1.4,Linux x86_64,29.94011976,,,,,,,,,,,,,,,,,,,,,,,,,,,,,,,,,,,
23.1767,40.3017,0,3,3,3,1,"Presiona la tecla 1 si piensas que es una palabra real y la tecla 
  0 si piensas que es una palabra falsa. 
  
  Vamos a practicar un poco...",(presiona la barra espaciadora para continuar),60fcd9699c3def3068403b90,001,2024-06-30_05h30.49.396,empathy_intonation_perc,2024.1.4,Linux x86_64,29.94011976,,,,,,,,,,,,,,,,,,,,,,,,,,,,,,,,,,,
,,,,,,,,,60fcd9699c3def3068403b90,001,2024-06-30_05h30.49.396,empathy_intonation_perc,2024.1.4,Linux x86_64,29.94011976,40.3425,42.3039,1,0,1.4257,,42.3044,43.2965,0,0,0,0,1,0,depiste,0,REAL,FALSA,,,,,,,,,,,,,,,,,
,,,,,,,,,60fcd9699c3def3068403b90,001,2024-06-30_05h30.49.396,empathy_intonation_perc,2024.1.4,Linux x86_64,29.94011976,43.2976,44.6672,1,1,0.8409,,44.6673,45.6614,0,1,1,1,1,0,sí,1,REAL,FALSA,,,,,,,,,,,,,,,,,
,,,,,,,,,60fcd9699c3def3068403b90,001,2024-06-30_05h30.49.396,empathy_intonation_perc,2024.1.4,Linux x86_64,29.94011976,45.6625,47.1278,0,1,0.9247,,47.1279,48.1256,0,2,2,2,1,0,coné,0,REAL,FALSA,,,,,,,,,,,,,,,,,
,,,,,,,,,60fcd9699c3def3068403b90,001,2024-06-30_05h30.49.396,empathy_intonation_perc,2024.1.4,Linux x86_64,29.94011976,48.1482,49.3689,1,0,0.6922,,49.369,50.3554,0,3,3,3,1,0,calpar,0,REAL,FALSA,,,,,,,,,,,,,,,,,
,,,,,,,,,60fcd9699c3def3068403b90,001,2024-06-30_05h30.49.396,empathy_intonation_perc,2024.1.4,Linux x86_64,29.94011976,50.356,52.4607,1,0,1.569,,52.4607,53.4642,0,4,4,4,1,0,joten,0,REAL,FALSA,,,,,,,,,,,,,,,,,
,,,,,,,,,60fcd9699c3def3068403b90,001,2024-06-30_05h30.49.396,empathy_intonation_perc,2024.1.4,Linux x86_64,29.94011976,53.4649,54.8356,1,1,0.8444,,54.8359,55.8343,0,5,5,5,1,0,sacapuntas,1,REAL,FALSA,,,,,,,,,,,,,,,,,
,,,,,,,,,60fcd9699c3def3068403b90,001,2024-06-30_05h30.49.396,empathy_intonation_perc,2024.1.4,Linux x86_64,29.94011976,55.8521,57.4261,1,0,1.0322,,57.4261,58.4337,0,6,6,6,1,0,priba,0,REAL,FALSA,,,,,,,,,,,,,,,,,
,,,,,,,,,60fcd9699c3def3068403b90,001,2024-06-30_05h30.49.396,empathy_intonation_perc,2024.1.4,Linux x86_64,29.94011976,58.4343,60.039,0,1,1.0887,,60.0391,61.0297,0,7,7,7,1,0,pelasula,0,REAL,FALSA,,,,,,,,,,,,,,,,,
,,,,,,,,,60fcd9699c3def3068403b90,001,2024-06-30_05h30.49.396,empathy_intonation_perc,2024.1.4,Linux x86_64,29.94011976,61.0304,62.2292,1,1,0.6685,,62.2293,63.2262,0,8,8,8,1,0,bien,1,REAL,FALSA,,,,,,,,,,,,,,,,,
,,,,,,,,,60fcd9699c3def3068403b90,001,2024-06-30_05h30.49.396,empathy_intonation_perc,2024.1.4,Linux x86_64,29.94011976,63.2271,64.3584,1,1,0.5989,,64.3584,65.3545,0,9,9,9,1,0,casa,1,REAL,FALSA,,,,,,,,,,,,,,,,,
,,,,,,,,,60fcd9699c3def3068403b90,001,2024-06-30_05h30.49.396,empathy_intonation_perc,2024.1.4,Linux x86_64,29.94011976,65.3556,66.9227,0,1,1.0294,,66.9231,67.9337,0,10,10,10,1,0,lejo,0,REAL,FALSA,,,,,,,,,,,,,,,,,
,,,,,,,,,60fcd9699c3def3068403b90,001,2024-06-30_05h30.49.396,empathy_intonation_perc,2024.1.4,Linux x86_64,29.94011976,67.9506,69.3869,0,1,0.8921,,69.387,70.3861,0,11,11,11,1,0,pretantas,0,REAL,FALSA,,,,,,,,,,,,,,,,,
,,,,,,,,,60fcd9699c3def3068403b90,001,2024-06-30_05h30.49.396,empathy_intonation_perc,2024.1.4,Linux x86_64,29.94011976,,,,,,,,,,,,,,,,,,,70.3868,72.4106,,,,,,,,,,,,,,,
,,,,,,,,,60fcd9699c3def3068403b90,001,2024-06-30_05h30.49.396,empathy_intonation_perc,2024.1.4,Linux x86_64,29.94011976,,,,,,,,,,,,,,145,rúo,,,,,,72.4612,74.2327,0,1,1.2447,,0,0,0,144,1,pseudoword,0,REAL,FALSA
,,,,,,,,,60fcd9699c3def3068403b90,001,2024-06-30_05h30.49.396,empathy_intonation_perc,2024.1.4,Linux x86_64,29.94011976,,,,,,,,,,,,,,22,mango,,,,,,74.2339,75.6983,1,0,0.9307,,0,1,1,21,1,three_way_cognate,1,REAL,FALSA
,,,,,,,,,60fcd9699c3def3068403b90,001,2024-06-30_05h30.49.396,empathy_intonation_perc,2024.1.4,Linux x86_64,29.94011976,,,,,,,,,,,,,,39,casual,,,,,,75.7,77.1627,1,0,0.9298,,0,2,2,38,1,two_way_cognate,1,REAL,FALSA
,,,,,,,,,60fcd9699c3def3068403b90,001,2024-06-30_05h30.49.396,empathy_intonation_perc,2024.1.4,Linux x86_64,29.94011976,,,,,,,,,,,,,,125,ceme,,,,,,77.1635,78.5445,0,1,0.8475,,0,3,3,124,1,pseudoword,0,REAL,FALSA
,,,,,,,,,60fcd9699c3def3068403b90,001,2024-06-30_05h30.49.396,empathy_intonation_perc,2024.1.4,Linux x86_64,29.94011976,,,,,,,,,,,,,,170,diabo,,,,,,78.5452,80.2609,0,1,1.1864,,0,4,4,169,1,pseudoword,0,REAL,FALSA
,,,,,,,,,60fcd9699c3def3068403b90,001,2024-06-30_05h30.49.396,empathy_intonation_perc,2024.1.4,Linux x86_64,29.94011976,,,,,,,,,,,,,,18,altar,,,,,,80.2615,81.591,1,0,0.7898,,0,5,5,17,1,three_way_cognate,1,REAL,FALSA
,,,,,,,,,60fcd9699c3def3068403b90,001,2024-06-30_05h30.49.396,empathy_intonation_perc,2024.1.4,Linux x86_64,29.94011976,,,,,,,,,,,,,,104,estulo,,,,,,81.5917,83.3815,1,0,1.26,,0,6,6,103,1,pseudoword,0,REAL,FALSA
,,,,,,,,,60fcd9699c3def3068403b90,001,2024-06-30_05h30.49.396,empathy_intonation_perc,2024.1.4,Linux x86_64,29.94011976,,,,,,,,,,,,,,25,vigor,,,,,,83.3821,84.9899,0,1,1.0687,,0,7,7,24,1,two_way_cognate,1,REAL,FALSA
,,,,,,,,,60fcd9699c3def3068403b90,001,2024-06-30_05h30.49.396,empathy_intonation_perc,2024.1.4,Linux x86_64,29.94011976,,,,,,,,,,,,,,162,cengo,,,,,,84.9931,86.7031,0,1,1.1701,,0,8,8,161,1,pseudoword,0,REAL,FALSA
,,,,,,,,,60fcd9699c3def3068403b90,001,2024-06-30_05h30.49.396,empathy_intonation_perc,2024.1.4,Linux x86_64,29.94011976,,,,,,,,,,,,,,76,chocar,,,,,,86.7038,88.0609,1,0,0.8184,,0,9,9,75,1,non_cognate,1,REAL,FALSA
,,,,,,,,,60fcd9699c3def3068403b90,001,2024-06-30_05h30.49.396,empathy_intonation_perc,2024.1.4,Linux x86_64,29.94011976,,,,,,,,,,,,,,5,extra,,,,,,88.0628,91.7332,1,0,3.1419,,0,10,10,4,1,three_way_cognate,1,REAL,FALSA
,,,,,,,,,60fcd9699c3def3068403b90,001,2024-06-30_05h30.49.396,empathy_intonation_perc,2024.1.4,Linux x86_64,29.94011976,,,,,,,,,,,,,,43,honor,,,,,,91.7342,93.8719,1,0,1.6001,,0,11,11,42,1,two_way_cognate,1,REAL,FALSA
,,,,,,,,,60fcd9699c3def3068403b90,001,2024-06-30_05h30.49.396,empathy_intonation_perc,2024.1.4,Linux x86_64,29.94011976,,,,,,,,,,,,,,95,listo,,,,,,93.8727,95.1617,1,0,0.7587,,0,12,12,94,1,non_cognate,1,REAL,FALSA
,,,,,,,,,60fcd9699c3def3068403b90,001,2024-06-30_05h30.49.396,empathy_intonation_perc,2024.1.4,Linux x86_64,29.94011976,,,,,,,,,,,,,,28,ardor,,,,,,95.1623,97.5388,0,1,1.8545,,0,13,13,27,1,two_way_cognate,1,REAL,FALSA
,,,,,,,,,60fcd9699c3def3068403b90,001,2024-06-30_05h30.49.396,empathy_intonation_perc,2024.1.4,Linux x86_64,29.94011976,,,,,,,,,,,,,,1,moral,,,,,,97.5395,99.267,1,0,1.1987,,0,14,14,0,1,three_way_cognate,1,REAL,FALSA
,,,,,,,,,60fcd9699c3def3068403b90,001,2024-06-30_05h30.49.396,empathy_intonation_perc,2024.1.4,Linux x86_64,29.94011976,,,,,,,,,,,,,,57,regalo,,,,,,99.2679,100.7888,1,0,0.9901,,0,15,15,56,1,non_cognate,1,REAL,FALSA
,,,,,,,,,60fcd9699c3def3068403b90,001,2024-06-30_05h30.49.396,empathy_intonation_perc,2024.1.4,Linux x86_64,29.94011976,,,,,,,,,,,,,,80,cuenco,,,,,,100.7899,102.3058,0,1,0.9835,,0,16,16,79,1,non_cognate,1,REAL,FALSA
,,,,,,,,,60fcd9699c3def3068403b90,001,2024-06-30_05h30.49.396,empathy_intonation_perc,2024.1.4,Linux x86_64,29.94011976,,,,,,,,,,,,,,77,suave,,,,,,102.3066,103.8693,1,0,1.0329,,0,17,17,76,1,non_cognate,1,REAL,FALSA
,,,,,,,,,60fcd9699c3def3068403b90,001,2024-06-30_05h30.49.396,empathy_intonation_perc,2024.1.4,Linux x86_64,29.94011976,,,,,,,,,,,,,,62,pegar,,,,,,103.8699,105.6362,1,0,1.2355,,0,18,18,61,1,non_cognate,1,REAL,FALSA
,,,,,,,,,60fcd9699c3def3068403b90,001,2024-06-30_05h30.49.396,empathy_intonation_perc,2024.1.4,Linux x86_64,29.94011976,,,,,,,,,,,,,,17,clan,,,,,,105.6368,108.0485,0,1,1.88,,0,19,19,16,1,three_way_cognate,1,REAL,FALSA
,,,,,,,,,60fcd9699c3def3068403b90,001,2024-06-30_05h30.49.396,empathy_intonation_perc,2024.1.4,Linux x86_64,29.94011976,,,,,,,,,,,,,,49,teñir,,,,,,108.0491,109.9299,0,1,1.3462,,0,20,20,48,1,non_cognate,1,REAL,FALSA
,,,,,,,,,60fcd9699c3def3068403b90,001,2024-06-30_05h30.49.396,empathy_intonation_perc,2024.1.4,Linux x86_64,29.94011976,,,,,,,,,,,,,,63,hilo,,,,,,109.9305,111.4453,0,1,0.9808,,0,21,21,62,1,non_cognate,1,REAL,FALSA
,,,,,,,,,60fcd9699c3def3068403b90,001,2024-06-30_05h30.49.396,empathy_intonation_perc,2024.1.4,Linux x86_64,29.94011976,,,,,,,,,,,,,,44,editor,,,,,,111.4459,113.1765,1,0,1.2006,,0,22,22,43,1,two_way_cognate,1,REAL,FALSA
,,,,,,,,,60fcd9699c3def3068403b90,001,2024-06-30_05h30.49.396,empathy_intonation_perc,2024.1.4,Linux x86_64,29.94011976,,,,,,,,,,,,,,131,fuar,,,,,,113.1773,114.6754,0,1,0.9611,,0,23,23,130,1,pseudoword,0,REAL,FALSA
,,,,,,,,,60fcd9699c3def3068403b90,001,2024-06-30_05h30.49.396,empathy_intonation_perc,2024.1.4,Linux x86_64,29.94011976,,,,,,,,,,,,,,16,chat,,,,,,114.6782,116.5241,0,1,1.3147,,0,24,24,15,1,three_way_cognate,1,REAL,FALSA
,,,,,,,,,60fcd9699c3def3068403b90,001,2024-06-30_05h30.49.396,empathy_intonation_perc,2024.1.4,Linux x86_64,29.94011976,,,,,,,,,,,,,,118,bará,,,,,,116.5247,120.2364,0,1,3.1776,,0,25,25,117,1,pseudoword,0,REAL,FALSA
,,,,,,,,,60fcd9699c3def3068403b90,001,2024-06-30_05h30.49.396,empathy_intonation_perc,2024.1.4,Linux x86_64,29.94011976,,,,,,,,,,,,,,92,flecha,,,,,,120.2504,121.7357,1,0,0.9678,,0,26,26,91,1,non_cognate,1,REAL,FALSA
,,,,,,,,,60fcd9699c3def3068403b90,001,2024-06-30_05h30.49.396,empathy_intonation_perc,2024.1.4,Linux x86_64,29.94011976,,,,,,,,,,,,,,116,grigir,,,,,,121.7367,123.7997,0,1,1.5304,,0,27,27,115,1,pseudoword,0,REAL,FALSA
,,,,,,,,,60fcd9699c3def3068403b90,001,2024-06-30_05h30.49.396,empathy_intonation_perc,2024.1.4,Linux x86_64,29.94011976,,,,,,,,,,,,,,24,retina,,,,,,123.8018,126.4023,1,0,2.0613,,0,28,28,23,1,three_way_cognate,1,REAL,FALSA
,,,,,,,,,60fcd9699c3def3068403b90,001,2024-06-30_05h30.49.396,empathy_intonation_perc,2024.1.4,Linux x86_64,29.94011976,,,,,,,,,,,,,,180,pupica,,,,,,126.4164,127.9131,0,1,0.9636,,0,29,29,179,1,pseudoword,0,REAL,FALSA
,,,,,,,,,60fcd9699c3def3068403b90,001,2024-06-30_05h30.49.396,empathy_intonation_perc,2024.1.4,Linux x86_64,29.94011976,,,,,,,,,,,,,,89,muñeca,,,,,,127.9138,129.8278,1,0,1.3812,,0,30,30,88,1,non_cognate,1,REAL,FALSA
,,,,,,,,,60fcd9699c3def3068403b90,001,2024-06-30_05h30.49.396,empathy_intonation_perc,2024.1.4,Linux x86_64,29.94011976,,,,,,,,,,,,,,159,trcia,,,,,,129.8284,131.4926,0,1,1.1304,,0,31,31,158,1,pseudoword,0,REAL,FALSA
,,,,,,,,,60fcd9699c3def3068403b90,001,2024-06-30_05h30.49.396,empathy_intonation_perc,2024.1.4,Linux x86_64,29.94011976,,,,,,,,,,,,,,4,flora,,,,,,131.4935,132.9122,1,0,0.8872,,0,32,32,3,1,three_way_cognate,1,REAL,FALSA
,,,,,,,,,60fcd9699c3def3068403b90,001,2024-06-30_05h30.49.396,empathy_intonation_perc,2024.1.4,Linux x86_64,29.94011976,,,,,,,,,,,,,,3,disco,,,,,,132.9128,134.4232,1,0,0.9796,,0,33,33,2,1,three_way_cognate,1,REAL,FALSA
,,,,,,,,,60fcd9699c3def3068403b90,001,2024-06-30_05h30.49.396,empathy_intonation_perc,2024.1.4,Linux x86_64,29.94011976,,,,,,,,,,,,,,147,alla,,,,,,134.424,136.4875,1,0,1.5304,,0,34,34,146,1,pseudoword,0,REAL,FALSA
,,,,,,,,,60fcd9699c3def3068403b90,001,2024-06-30_05h30.49.396,empathy_intonation_perc,2024.1.4,Linux x86_64,29.94011976,,,,,,,,,,,,,,6,horror,,,,,,136.4881,138.3856,1,0,1.361,,0,35,35,5,1,three_way_cognate,1,REAL,FALSA
,,,,,,,,,60fcd9699c3def3068403b90,001,2024-06-30_05h30.49.396,empathy_intonation_perc,2024.1.4,Linux x86_64,29.94011976,,,,,,,,,,,,,,106,diebro,,,,,,138.3861,140.1171,0,1,1.201,,0,36,36,105,1,pseudoword,0,REAL,FALSA
,,,,,,,,,60fcd9699c3def3068403b90,001,2024-06-30_05h30.49.396,empathy_intonation_perc,2024.1.4,Linux x86_64,29.94011976,,,,,,,,,,,,,,165,chote,,,,,,140.1178,141.7654,0,1,1.1154,,0,37,37,164,1,pseudoword,0,REAL,FALSA
,,,,,,,,,60fcd9699c3def3068403b90,001,2024-06-30_05h30.49.396,empathy_intonation_perc,2024.1.4,Linux x86_64,29.94011976,,,,,,,,,,,,,,87,muleta,,,,,,141.7662,143.0642,0,1,0.7623,,0,38,38,86,1,non_cognate,1,REAL,FALSA
,,,,,,,,,60fcd9699c3def3068403b90,001,2024-06-30_05h30.49.396,empathy_intonation_perc,2024.1.4,Linux x86_64,29.94011976,,,,,,,,,,,,,,56,pico,,,,,,143.0649,144.2299,1,0,0.6298,,0,39,39,55,1,non_cognate,1,REAL,FALSA
,,,,,,,,,60fcd9699c3def3068403b90,001,2024-06-30_05h30.49.396,empathy_intonation_perc,2024.1.4,Linux x86_64,29.94011976,,,,,,,,,,,,,,53,punta,,,,,,144.2307,145.5297,1,0,0.7694,,0,40,40,52,1,non_cognate,1,REAL,FALSA
,,,,,,,,,60fcd9699c3def3068403b90,001,2024-06-30_05h30.49.396,empathy_intonation_perc,2024.1.4,Linux x86_64,29.94011976,,,,,,,,,,,,,,67,llamar,,,,,,145.5304,146.9604,1,0,0.8928,,0,41,41,66,1,non_cognate,1,REAL,FALSA
,,,,,,,,,60fcd9699c3def3068403b90,001,2024-06-30_05h30.49.396,empathy_intonation_perc,2024.1.4,Linux x86_64,29.94011976,,,,,,,,,,,,,,99,bugor,,,,,,146.9615,148.2259,0,1,0.73,,0,42,42,98,1,pseudoword,0,REAL,FALSA
,,,,,,,,,60fcd9699c3def3068403b90,001,2024-06-30_05h30.49.396,empathy_intonation_perc,2024.1.4,Linux x86_64,29.94011976,,,,,,,,,,,,,,160,fomeó,,,,,,148.2267,149.575,0,1,0.8134,,0,43,43,159,1,pseudoword,0,REAL,FALSA
,,,,,,,,,60fcd9699c3def3068403b90,001,2024-06-30_05h30.49.396,empathy_intonation_perc,2024.1.4,Linux x86_64,29.94011976,,,,,,,,,,,,,,70,ánimo,,,,,,149.5765,150.9232,1,0,0.8135,,0,44,44,69,1,non_cognate,1,REAL,FALSA
,,,,,,,,,60fcd9699c3def3068403b90,001,2024-06-30_05h30.49.396,empathy_intonation_perc,2024.1.4,Linux x86_64,29.94011976,,,,,,,,,,,,,,169,pitis,,,,,,150.924,152.2884,0,1,0.8305,,0,45,45,168,1,pseudoword,0,REAL,FALSA
,,,,,,,,,60fcd9699c3def3068403b90,001,2024-06-30_05h30.49.396,empathy_intonation_perc,2024.1.4,Linux x86_64,29.94011976,,,,,,,,,,,,,,177,entodo,,,,,,152.291,153.9039,0,1,1.078,,0,46,46,176,1,pseudoword,0,REAL,FALSA
,,,,,,,,,60fcd9699c3def3068403b90,001,2024-06-30_05h30.49.396,empathy_intonation_perc,2024.1.4,Linux x86_64,29.94011976,,,,,,,,,,,,,,166,anfia,,,,,,153.9047,155.2522,0,1,0.8183,,0,47,47,165,1,pseudoword,0,REAL,FALSA
,,,,,,,,,60fcd9699c3def3068403b90,001,2024-06-30_05h30.49.396,empathy_intonation_perc,2024.1.4,Linux x86_64,29.94011976,,,,,,,,,,,,,,168,cobén,,,,,,155.253,156.5688,0,1,0.7855,,0,48,48,167,1,pseudoword,0,REAL,FALSA
,,,,,,,,,60fcd9699c3def3068403b90,001,2024-06-30_05h30.49.396,empathy_intonation_perc,2024.1.4,Linux x86_64,29.94011976,,,,,,,,,,,,,,61,aduana,,,,,,156.5694,157.9832,0,1,0.8814,,0,49,49,60,1,non_cognate,1,REAL,FALSA
,,,,,,,,,60fcd9699c3def3068403b90,001,2024-06-30_05h30.49.396,empathy_intonation_perc,2024.1.4,Linux x86_64,29.94011976,,,,,,,,,,,,,,189,medium,,,,,,157.9837,159.6816,0,1,1.1615,,0,50,50,188,1,pseudoword,0,REAL,FALSA
,,,,,,,,,60fcd9699c3def3068403b90,001,2024-06-30_05h30.49.396,empathy_intonation_perc,2024.1.4,Linux x86_64,29.94011976,,,,,,,,,,,,,,182,desaro,,,,,,159.6823,160.8472,1,0,0.6306,,0,51,51,181,1,pseudoword,0,REAL,FALSA
,,,,,,,,,60fcd9699c3def3068403b90,001,2024-06-30_05h30.49.396,empathy_intonation_perc,2024.1.4,Linux x86_64,29.94011976,,,,,,,,,,,,,,58,colcha,,,,,,160.8481,163.2443,0,1,1.8663,,0,52,52,57,1,non_cognate,1,REAL,FALSA
,,,,,,,,,60fcd9699c3def3068403b90,001,2024-06-30_05h30.49.396,empathy_intonation_perc,2024.1.4,Linux x86_64,29.94011976,,,,,,,,,,,,,,105,leniz,,,,,,163.2451,165.1094,1,0,1.3295,,0,53,53,104,1,pseudoword,0,REAL,FALSA
,,,,,,,,,60fcd9699c3def3068403b90,001,2024-06-30_05h30.49.396,empathy_intonation_perc,2024.1.4,Linux x86_64,29.94011976,,,,,,,,,,,,,,26,enigma,,,,,,165.1105,167.3245,0,1,1.6814,,0,54,54,25,1,two_way_cognate,1,REAL,FALSA
,,,,,,,,,60fcd9699c3def3068403b90,001,2024-06-30_05h30.49.396,empathy_intonation_perc,2024.1.4,Linux x86_64,29.94011976,,,,,,,,,,,,,,9,portal,,,,,,167.3256,168.7893,1,0,0.9319,,0,55,55,8,1,three_way_cognate,1,REAL,FALSA
,,,,,,,,,60fcd9699c3def3068403b90,001,2024-06-30_05h30.49.396,empathy_intonation_perc,2024.1.4,Linux x86_64,29.94011976,,,,,,,,,,,,,,157,seled,,,,,,168.7902,170.3378,0,1,1.0155,,0,56,56,156,1,pseudoword,0,REAL,FALSA
,,,,,,,,,60fcd9699c3def3068403b90,001,2024-06-30_05h30.49.396,empathy_intonation_perc,2024.1.4,Linux x86_64,29.94011976,,,,,,,,,,,,,,13,plan,,,,,,170.3386,173.5845,1,0,2.7096,,0,57,57,12,1,three_way_cognate,1,REAL,FALSA
,,,,,,,,,60fcd9699c3def3068403b90,001,2024-06-30_05h30.49.396,empathy_intonation_perc,2024.1.4,Linux x86_64,29.94011976,,,,,,,,,,,,,,37,torso,,,,,,173.5852,175.1328,1,0,1.009,,0,58,58,36,1,two_way_cognate,1,REAL,FALSA
,,,,,,,,,60fcd9699c3def3068403b90,001,2024-06-30_05h30.49.396,empathy_intonation_perc,2024.1.4,Linux x86_64,29.94011976,,,,,,,,,,,,,,36,viable,,,,,,175.1335,177.1481,0,1,1.4838,,0,59,59,35,1,two_way_cognate,1,REAL,FALSA
,,,,,,,,,60fcd9699c3def3068403b90,001,2024-06-30_05h30.49.396,empathy_intonation_perc,2024.1.4,Linux x86_64,29.94011976,,,,,,,,,,,,,,186,rizate,,,,,,177.1491,178.5129,0,1,0.8323,,0,60,60,185,1,pseudoword,0,REAL,FALSA
,,,,,,,,,60fcd9699c3def3068403b90,001,2024-06-30_05h30.49.396,empathy_intonation_perc,2024.1.4,Linux x86_64,29.94011976,,,,,,,,,,,,,,151,prías,,,,,,178.5139,179.8292,0,1,0.7847,,0,61,61,150,1,pseudoword,0,REAL,FALSA
,,,,,,,,,60fcd9699c3def3068403b90,001,2024-06-30_05h30.49.396,empathy_intonation_perc,2024.1.4,Linux x86_64,29.94011976,,,,,,,,,,,,,,15,test,,,,,,179.8299,181.0603,0,1,0.6961,,0,62,62,14,1,three_way_cognate,1,REAL,FALSA
,,,,,,,,,60fcd9699c3def3068403b90,001,2024-06-30_05h30.49.396,empathy_intonation_perc,2024.1.4,Linux x86_64,29.94011976,,,,,,,,,,,,,,21,hotel,,,,,,181.0609,182.6587,1,0,1.0632,,0,63,63,20,1,three_way_cognate,1,REAL,FALSA
,,,,,,,,,60fcd9699c3def3068403b90,001,2024-06-30_05h30.49.396,empathy_intonation_perc,2024.1.4,Linux x86_64,29.94011976,,,,,,,,,,,,,,50,sierra,,,,,,182.6594,185.8725,1,0,2.6767,,0,64,64,49,1,non_cognate,1,REAL,FALSA
,,,,,,,,,60fcd9699c3def3068403b90,001,2024-06-30_05h30.49.396,empathy_intonation_perc,2024.1.4,Linux x86_64,29.94011976,,,,,,,,,,,,,,59,feo,,,,,,185.8731,187.5044,1,0,1.0887,,0,65,65,58,1,non_cognate,1,REAL,FALSA
,,,,,,,,,60fcd9699c3def3068403b90,001,2024-06-30_05h30.49.396,empathy_intonation_perc,2024.1.4,Linux x86_64,29.94011976,,,,,,,,,,,,,,35,aurora,,,,,,187.5051,189.2023,1,0,1.1658,,0,66,66,34,1,two_way_cognate,1,REAL,FALSA
,,,,,,,,,60fcd9699c3def3068403b90,001,2024-06-30_05h30.49.396,empathy_intonation_perc,2024.1.4,Linux x86_64,29.94011976,,,,,,,,,,,,,,173,mibro,,,,,,189.2028,190.5844,0,1,0.8468,,0,67,67,172,1,pseudoword,0,REAL,FALSA
,,,,,,,,,60fcd9699c3def3068403b90,001,2024-06-30_05h30.49.396,empathy_intonation_perc,2024.1.4,Linux x86_64,29.94011976,,,,,,,,,,,,,,31,civil,,,,,,190.5856,192.1664,1,0,1.0456,,0,68,68,30,1,two_way_cognate,1,REAL,FALSA
,,,,,,,,,60fcd9699c3def3068403b90,001,2024-06-30_05h30.49.396,empathy_intonation_perc,2024.1.4,Linux x86_64,29.94011976,,,,,,,,,,,,,,11,golf,,,,,,192.1669,193.9809,1,0,1.2773,,0,69,69,10,1,three_way_cognate,1,REAL,FALSA
,,,,,,,,,60fcd9699c3def3068403b90,001,2024-06-30_05h30.49.396,empathy_intonation_perc,2024.1.4,Linux x86_64,29.94011976,,,,,,,,,,,,,,101,losco,,,,,,193.9817,195.4296,0,1,0.918,,0,70,70,100,1,pseudoword,0,REAL,FALSA
,,,,,,,,,60fcd9699c3def3068403b90,001,2024-06-30_05h30.49.396,empathy_intonation_perc,2024.1.4,Linux x86_64,29.94011976,,,,,,,,,,,,,,119,esís,,,,,,195.4304,197.2781,0,1,1.3181,,0,71,71,118,1,pseudoword,0,REAL,FALSA
,,,,,,,,,60fcd9699c3def3068403b90,001,2024-06-30_05h30.49.396,empathy_intonation_perc,2024.1.4,Linux x86_64,29.94011976,,,,,,,,,,,,,,32,animal,,,,,,197.2788,199.1106,1,0,1.3024,,0,72,72,31,1,two_way_cognate,1,REAL,FALSA
,,,,,,,,,60fcd9699c3def3068403b90,001,2024-06-30_05h30.49.396,empathy_intonation_perc,2024.1.4,Linux x86_64,29.94011976,,,,,,,,,,,,,,183,edioso,,,,,,199.1113,200.5247,0,1,0.8761,,0,73,73,182,1,pseudoword,0,REAL,FALSA
,,,,,,,,,60fcd9699c3def3068403b90,001,2024-06-30_05h30.49.396,empathy_intonation_perc,2024.1.4,Linux x86_64,29.94011976,,,,,,,,,,,,,,60,siglo,,,,,,200.5256,202.5229,1,0,1.4583,,0,74,74,59,1,non_cognate,1,REAL,FALSA
,,,,,,,,,60fcd9699c3def3068403b90,001,2024-06-30_05h30.49.396,empathy_intonation_perc,2024.1.4,Linux x86_64,29.94011976,,,,,,,,,,,,,,42,rumor,,,,,,202.5234,205.4365,0,1,2.377,,0,75,75,41,1,two_way_cognate,1,REAL,FALSA
,,,,,,,,,60fcd9699c3def3068403b90,001,2024-06-30_05h30.49.396,empathy_intonation_perc,2024.1.4,Linux x86_64,29.94011976,,,,,,,,,,,,,,12,dogma,,,,,,205.4371,207.5177,0,1,1.5491,,0,76,76,11,1,three_way_cognate,1,REAL,FALSA
,,,,,,,,,60fcd9699c3def3068403b90,001,2024-06-30_05h30.49.396,empathy_intonation_perc,2024.1.4,Linux x86_64,29.94011976,,,,,,,,,,,,,,47,color,,,,,,207.5183,209.1665,1,0,1.1135,,0,77,77,46,1,two_way_cognate,1,REAL,FALSA
,,,,,,,,,60fcd9699c3def3068403b90,001,2024-06-30_05h30.49.396,empathy_intonation_perc,2024.1.4,Linux x86_64,29.94011976,,,,,,,,,,,,,,150,cricó,,,,,,209.1678,211.8808,0,1,2.18,,0,78,78,149,1,pseudoword,0,REAL,FALSA
,,,,,,,,,60fcd9699c3def3068403b90,001,2024-06-30_05h30.49.396,empathy_intonation_perc,2024.1.4,Linux x86_64,29.94011976,,,,,,,,,,,,,,158,babrá,,,,,,211.8816,214.1126,0,1,1.6976,,0,79,79,157,1,pseudoword,0,REAL,FALSA
,,,,,,,,,60fcd9699c3def3068403b90,001,2024-06-30_05h30.49.396,empathy_intonation_perc,2024.1.4,Linux x86_64,29.94011976,,,,,,,,,,,,,,135,panté,,,,,,214.1134,215.9777,1,0,1.3284,,0,80,80,134,1,pseudoword,0,REAL,FALSA
,,,,,,,,,60fcd9699c3def3068403b90,001,2024-06-30_05h30.49.396,empathy_intonation_perc,2024.1.4,Linux x86_64,29.94011976,,,,,,,,,,,,,,27,piano,,,,,,215.9785,218.6736,1,0,2.1661,,0,81,81,26,1,two_way_cognate,1,REAL,FALSA
,,,,,,,,,60fcd9699c3def3068403b90,001,2024-06-30_05h30.49.396,empathy_intonation_perc,2024.1.4,Linux x86_64,29.94011976,,,,,,,,,,,,,,23,plural,,,,,,218.6875,220.7215,1,0,1.5136,,0,82,82,22,1,three_way_cognate,1,REAL,FALSA
,,,,,,,,,60fcd9699c3def3068403b90,001,2024-06-30_05h30.49.396,empathy_intonation_perc,2024.1.4,Linux x86_64,29.94011976,,,,,,,,,,,,,,29,clamor,,,,,,220.7223,222.3703,1,0,1.1121,,0,83,83,28,1,two_way_cognate,1,REAL,FALSA
,,,,,,,,,60fcd9699c3def3068403b90,001,2024-06-30_05h30.49.396,empathy_intonation_perc,2024.1.4,Linux x86_64,29.94011976,,,,,,,,,,,,,,48,pelvis,,,,,,222.3713,224.9339,1,0,2.0306,,0,84,84,47,1,two_way_cognate,1,REAL,FALSA
,,,,,,,,,60fcd9699c3def3068403b90,001,2024-06-30_05h30.49.396,empathy_intonation_perc,2024.1.4,Linux x86_64,29.94011976,,,,,,,,,,,,,,178,inichó,,,,,,224.9473,226.6324,0,1,1.1651,,0,85,85,177,1,pseudoword,0,REAL,FALSA
,,,,,,,,,60fcd9699c3def3068403b90,001,2024-06-30_05h30.49.396,empathy_intonation_perc,2024.1.4,Linux x86_64,29.94011976,,,,,,,,,,,,,,108,jauda,,,,,,226.6331,228.3639,0,1,1.1958,,0,86,86,107,1,pseudoword,0,REAL,FALSA
,,,,,,,,,60fcd9699c3def3068403b90,001,2024-06-30_05h30.49.396,empathy_intonation_perc,2024.1.4,Linux x86_64,29.94011976,,,,,,,,,,,,,,85,enorme,,,,,,228.3651,230.7784,1,0,1.8774,,0,87,87,84,1,non_cognate,1,REAL,FALSA
,,,,,,,,,60fcd9699c3def3068403b90,001,2024-06-30_05h30.49.396,empathy_intonation_perc,2024.1.4,Linux x86_64,29.94011976,,,,,,,,,,,,,,107,plago,,,,,,230.7924,232.0941,0,1,0.7838,,0,88,88,106,1,pseudoword,0,REAL,FALSA
,,,,,,,,,60fcd9699c3def3068403b90,001,2024-06-30_05h30.49.396,empathy_intonation_perc,2024.1.4,Linux x86_64,29.94011976,,,,,,,,,,,,,,144,diroco,,,,,,232.0947,233.8091,0,1,1.1788,,0,89,89,143,1,pseudoword,0,REAL,FALSA
,,,,,,,,,60fcd9699c3def3068403b90,001,2024-06-30_05h30.49.396,empathy_intonation_perc,2024.1.4,Linux x86_64,29.94011976,,,,,,,,,,,,,,142,parre,,,,,,233.8099,235.4239,0,1,1.0782,,0,90,90,141,1,pseudoword,0,REAL,FALSA
,,,,,,,,,60fcd9699c3def3068403b90,001,2024-06-30_05h30.49.396,empathy_intonation_perc,2024.1.4,Linux x86_64,29.94011976,,,,,,,,,,,,,,72,rostro,,,,,,235.4248,236.7557,0,1,0.7989,,0,91,91,71,1,non_cognate,1,REAL,FALSA
,,,,,,,,,60fcd9699c3def3068403b90,001,2024-06-30_05h30.49.396,empathy_intonation_perc,2024.1.4,Linux x86_64,29.94011976,,,,,,,,,,,,,,191,frasis,,,,,,236.7563,238.4378,0,1,1.1494,,0,92,92,190,1,pseudoword,0,REAL,FALSA
,,,,,,,,,60fcd9699c3def3068403b90,001,2024-06-30_05h30.49.396,empathy_intonation_perc,2024.1.4,Linux x86_64,29.94011976,,,,,,,,,,,,,,94,forro,,,,,,238.4387,240.0205,1,0,1.0524,,0,93,93,93,1,non_cognate,1,REAL,FALSA
,,,,,,,,,60fcd9699c3def3068403b90,001,2024-06-30_05h30.49.396,empathy_intonation_perc,2024.1.4,Linux x86_64,29.94011976,,,,,,,,,,,,,,179,suelet,,,,,,240.0213,241.5184,0,1,0.9649,,0,94,94,178,1,pseudoword,0,REAL,FALSA
,,,,,,,,,60fcd9699c3def3068403b90,001,2024-06-30_05h30.49.396,empathy_intonation_perc,2024.1.4,Linux x86_64,29.94011976,,,,,,,,,,,,,,175,tradía,,,,,,241.5194,243.2337,0,1,1.1844,,0,95,95,174,1,pseudoword,0,REAL,FALSA
,,,,,,,,,60fcd9699c3def3068403b90,001,2024-06-30_05h30.49.396,empathy_intonation_perc,2024.1.4,Linux x86_64,29.94011976,,,,,,,,,,,,,,134,molor,,,,,,243.2343,244.7316,0,1,0.9631,,0,96,96,133,1,pseudoword,0,REAL,FALSA
,,,,,,,,,60fcd9699c3def3068403b90,001,2024-06-30_05h30.49.396,empathy_intonation_perc,2024.1.4,Linux x86_64,29.94011976,,,,,,,,,,,,,,54,tapón,,,,,,244.7323,246.6132,0,1,1.3467,,0,97,97,53,1,non_cognate,1,REAL,FALSA
,,,,,,,,,60fcd9699c3def3068403b90,001,2024-06-30_05h30.49.396,empathy_intonation_perc,2024.1.4,Linux x86_64,29.94011976,,,,,,,,,,,,,,75,patada,,,,,,246.614,248.1777,0,1,1.034,,0,98,98,74,1,non_cognate,1,REAL,FALSA
,,,,,,,,,60fcd9699c3def3068403b90,001,2024-06-30_05h30.49.396,empathy_intonation_perc,2024.1.4,Linux x86_64,29.94011976,,,,,,,,,,,,,,33,collar,,,,,,248.1785,250.4422,1,0,1.7264,,0,99,99,32,1,two_way_cognate,1,REAL,FALSA
,,,,,,,,,60fcd9699c3def3068403b90,001,2024-06-30_05h30.49.396,empathy_intonation_perc,2024.1.4,Linux x86_64,29.94011976,,,,,,,,,,,,,,181,gravés,,,,,,250.4432,251.9577,1,0,0.9819,,0,100,100,180,1,pseudoword,0,REAL,FALSA
,,,,,,,,,60fcd9699c3def3068403b90,001,2024-06-30_05h30.49.396,empathy_intonation_perc,2024.1.4,Linux x86_64,29.94011976,,,,,,,,,,,,,,164,tecia,,,,,,251.9586,253.2736,0,1,0.7846,,0,101,101,163,1,pseudoword,0,REAL,FALSA
,,,,,,,,,60fcd9699c3def3068403b90,001,2024-06-30_05h30.49.396,empathy_intonation_perc,2024.1.4,Linux x86_64,29.94011976,,,,,,,,,,,,,,184,huenos,,,,,,253.2745,254.9217,1,0,1.1142,,0,102,102,183,1,pseudoword,0,REAL,FALSA
,,,,,,,,,60fcd9699c3def3068403b90,001,2024-06-30_05h30.49.396,empathy_intonation_perc,2024.1.4,Linux x86_64,29.94011976,,,,,,,,,,,,,,45,total,,,,,,254.9224,256.4368,1,0,0.9816,,0,103,103,44,1,two_way_cognate,1,REAL,FALSA
,,,,,,,,,60fcd9699c3def3068403b90,001,2024-06-30_05h30.49.396,empathy_intonation_perc,2024.1.4,Linux x86_64,29.94011976,,,,,,,,,,,,,,81,sacar,,,,,,256.4375,257.9683,1,0,0.9994,,0,104,104,80,1,non_cognate,1,REAL,FALSA
,,,,,,,,,60fcd9699c3def3068403b90,001,2024-06-30_05h30.49.396,empathy_intonation_perc,2024.1.4,Linux x86_64,29.94011976,,,,,,,,,,,,,,66,aleta,,,,,,257.9689,259.367,0,1,0.865,,0,105,105,65,1,non_cognate,1,REAL,FALSA
,,,,,,,,,60fcd9699c3def3068403b90,001,2024-06-30_05h30.49.396,empathy_intonation_perc,2024.1.4,Linux x86_64,29.94011976,,,,,,,,,,,,,,93,tapa,,,,,,259.3676,260.8489,1,0,0.9473,,0,106,106,92,1,non_cognate,1,REAL,FALSA
,,,,,,,,,60fcd9699c3def3068403b90,001,2024-06-30_05h30.49.396,empathy_intonation_perc,2024.1.4,Linux x86_64,29.94011976,,,,,,,,,,,,,,40,pelvis,,,,,,260.8497,263.3467,1,0,1.967,,0,107,107,39,1,two_way_cognate,1,REAL,FALSA
,,,,,,,,,60fcd9699c3def3068403b90,001,2024-06-30_05h30.49.396,empathy_intonation_perc,2024.1.4,Linux x86_64,29.94011976,,,,,,,,,,,,,,129,vinzó,,,,,,263.3476,264.7287,0,1,0.8444,,0,108,108,128,1,pseudoword,0,REAL,FALSA
,,,,,,,,,60fcd9699c3def3068403b90,001,2024-06-30_05h30.49.396,empathy_intonation_perc,2024.1.4,Linux x86_64,29.94011976,,,,,,,,,,,,,,7,albino,,,,,,264.7295,266.6431,0,1,1.383,,0,109,109,6,1,three_way_cognate,1,REAL,FALSA
,,,,,,,,,60fcd9699c3def3068403b90,001,2024-06-30_05h30.49.396,empathy_intonation_perc,2024.1.4,Linux x86_64,29.94011976,,,,,,,,,,,,,,143,hurcos,,,,,,266.6438,268.2422,0,1,1.0618,,0,110,110,142,1,pseudoword,0,REAL,FALSA
,,,,,,,,,60fcd9699c3def3068403b90,001,2024-06-30_05h30.49.396,empathy_intonation_perc,2024.1.4,Linux x86_64,29.94011976,,,,,,,,,,,,,,64,rizado,,,,,,268.2432,269.6075,0,1,0.8283,,0,111,111,63,1,non_cognate,1,REAL,FALSA
,,,,,,,,,60fcd9699c3def3068403b90,001,2024-06-30_05h30.49.396,empathy_intonation_perc,2024.1.4,Linux x86_64,29.94011976,,,,,,,,,,,,,,110,densó,,,,,,269.6083,271.4553,1,0,1.3173,,0,112,112,109,1,pseudoword,0,REAL,FALSA
,,,,,,,,,60fcd9699c3def3068403b90,001,2024-06-30_05h30.49.396,empathy_intonation_perc,2024.1.4,Linux x86_64,29.94011976,,,,,,,,,,,,,,152,prave,,,,,,271.4562,272.8553,0,1,0.8695,,0,113,113,151,1,pseudoword,0,REAL,FALSA
,,,,,,,,,60fcd9699c3def3068403b90,001,2024-06-30_05h30.49.396,empathy_intonation_perc,2024.1.4,Linux x86_64,29.94011976,,,,,,,,,,,,,,130,dubo,,,,,,272.8562,274.2048,0,1,0.8201,,0,114,114,129,1,pseudoword,0,REAL,FALSA
,,,,,,,,,60fcd9699c3def3068403b90,001,2024-06-30_05h30.49.396,empathy_intonation_perc,2024.1.4,Linux x86_64,29.94011976,,,,,,,,,,,,,,112,samón,,,,,,274.2055,276.0511,0,1,1.3141,,0,115,115,111,1,pseudoword,0,REAL,FALSA
,,,,,,,,,60fcd9699c3def3068403b90,001,2024-06-30_05h30.49.396,empathy_intonation_perc,2024.1.4,Linux x86_64,29.94011976,,,,,,,,,,,,,,55,maldad,,,,,,276.0519,277.5004,0,1,0.9192,,0,116,116,54,1,non_cognate,1,REAL,FALSA
,,,,,,,,,60fcd9699c3def3068403b90,001,2024-06-30_05h30.49.396,empathy_intonation_perc,2024.1.4,Linux x86_64,29.94011976,,,,,,,,,,,,,,34,actor,,,,,,277.5011,279.6475,1,0,1.6142,,0,117,117,33,1,two_way_cognate,1,REAL,FALSA
,,,,,,,,,60fcd9699c3def3068403b90,001,2024-06-30_05h30.49.396,empathy_intonation_perc,2024.1.4,Linux x86_64,29.94011976,,,,,,,,,,,,,,171,gotro,,,,,,279.6485,280.9019,0,1,0.7218,,0,118,118,170,1,pseudoword,0,REAL,FALSA
,,,,,,,,,60fcd9699c3def3068403b90,001,2024-06-30_05h30.49.396,empathy_intonation_perc,2024.1.4,Linux x86_64,29.94011976,,,,,,,,,,,,,,109,laras,,,,,,280.9038,282.5455,0,1,1.1132,,0,119,119,108,1,pseudoword,0,REAL,FALSA
,,,,,,,,,60fcd9699c3def3068403b90,001,2024-06-30_05h30.49.396,empathy_intonation_perc,2024.1.4,Linux x86_64,29.94011976,,,,,,,,,,,,,,73,llevar,,,,,,282.5464,284.1268,1,0,1.0478,,0,120,120,72,1,non_cognate,1,REAL,FALSA
,,,,,,,,,60fcd9699c3def3068403b90,001,2024-06-30_05h30.49.396,empathy_intonation_perc,2024.1.4,Linux x86_64,29.94011976,,,,,,,,,,,,,,71,torta,,,,,,284.128,285.7705,1,0,1.1132,,0,121,121,70,1,non_cognate,1,REAL,FALSA
,,,,,,,,,60fcd9699c3def3068403b90,001,2024-06-30_05h30.49.396,empathy_intonation_perc,2024.1.4,Linux x86_64,29.94011976,,,,,,,,,,,,,,88,percha,,,,,,285.7713,287.2068,0,1,0.914,,0,122,122,87,1,non_cognate,1,REAL,FALSA
,,,,,,,,,60fcd9699c3def3068403b90,001,2024-06-30_05h30.49.396,empathy_intonation_perc,2024.1.4,Linux x86_64,29.94011976,,,,,,,,,,,,,,20,trauma,,,,,,287.2078,288.9385,0,1,1.1931,,0,123,123,19,1,three_way_cognate,1,REAL,FALSA
,,,,,,,,,60fcd9699c3def3068403b90,001,2024-06-30_05h30.49.396,empathy_intonation_perc,2024.1.4,Linux x86_64,29.94011976,,,,,,,,,,,,,,65,guerra,,,,,,288.9393,290.4535,1,0,0.9796,,0,124,124,64,1,non_cognate,1,REAL,FALSA
,,,,,,,,,60fcd9699c3def3068403b90,001,2024-06-30_05h30.49.396,empathy_intonation_perc,2024.1.4,Linux x86_64,29.94011976,,,,,,,,,,,,,,156,ozoso,,,,,,290.4541,292.1521,0,1,1.1608,,0,125,125,155,1,pseudoword,0,REAL,FALSA
,,,,,,,,,60fcd9699c3def3068403b90,001,2024-06-30_05h30.49.396,empathy_intonation_perc,2024.1.4,Linux x86_64,29.94011976,,,,,,,,,,,,,,14,aura,,,,,,292.1529,293.4842,1,0,0.7975,,0,126,126,13,1,three_way_cognate,1,REAL,FALSA
,,,,,,,,,60fcd9699c3def3068403b90,001,2024-06-30_05h30.49.396,empathy_intonation_perc,2024.1.4,Linux x86_64,29.94011976,,,,,,,,,,,,,,148,gino,,,,,,293.4848,295.7339,0,1,1.7189,,0,127,127,147,1,pseudoword,0,REAL,FALSA
,,,,,,,,,60fcd9699c3def3068403b90,001,2024-06-30_05h30.49.396,empathy_intonation_perc,2024.1.4,Linux x86_64,29.94011976,,,,,,,,,,,,,,10,drama,,,,,,295.7347,297.2319,1,0,0.9646,,0,128,128,9,1,three_way_cognate,1,REAL,FALSA
,,,,,,,,,60fcd9699c3def3068403b90,001,2024-06-30_05h30.49.396,empathy_intonation_perc,2024.1.4,Linux x86_64,29.94011976,,,,,,,,,,,,,,100,épinas,,,,,,297.2328,298.4955,0,1,0.7322,,0,129,129,99,1,pseudoword,0,REAL,FALSA
,,,,,,,,,60fcd9699c3def3068403b90,001,2024-06-30_05h30.49.396,empathy_intonation_perc,2024.1.4,Linux x86_64,29.94011976,,,,,,,,,,,,,,102,coyo,,,,,,298.4961,299.7944,0,1,0.7697,,0,130,130,101,1,pseudoword,0,REAL,FALSA
,,,,,,,,,60fcd9699c3def3068403b90,001,2024-06-30_05h30.49.396,empathy_intonation_perc,2024.1.4,Linux x86_64,29.94011976,,,,,,,,,,,,,,161,civas,,,,,,299.7952,301.2094,0,1,0.8835,,0,131,131,160,1,pseudoword,0,REAL,FALSA
,,,,,,,,,60fcd9699c3def3068403b90,001,2024-06-30_05h30.49.396,empathy_intonation_perc,2024.1.4,Linux x86_64,29.94011976,,,,,,,,,,,,,,97,nocita,,,,,,301.2101,302.4756,1,0,0.7303,,0,132,132,96,1,pseudoword,0,REAL,FALSA
,,,,,,,,,60fcd9699c3def3068403b90,001,2024-06-30_05h30.49.396,empathy_intonation_perc,2024.1.4,Linux x86_64,29.94011976,,,,,,,,,,,,,,91,equipo,,,,,,302.4766,303.8571,1,0,0.8421,,0,133,133,90,1,non_cognate,1,REAL,FALSA
,,,,,,,,,60fcd9699c3def3068403b90,001,2024-06-30_05h30.49.396,empathy_intonation_perc,2024.1.4,Linux x86_64,29.94011976,,,,,,,,,,,,,,167,dobbo,,,,,,303.8579,305.0394,0,1,0.6615,,0,134,134,166,1,pseudoword,0,REAL,FALSA
,,,,,,,,,60fcd9699c3def3068403b90,001,2024-06-30_05h30.49.396,empathy_intonation_perc,2024.1.4,Linux x86_64,29.94011976,,,,,,,,,,,,,,78,rendir,,,,,,305.04,306.2888,1,0,0.7163,,0,135,135,77,1,non_cognate,1,REAL,FALSA
,,,,,,,,,60fcd9699c3def3068403b90,001,2024-06-30_05h30.49.396,empathy_intonation_perc,2024.1.4,Linux x86_64,29.94011976,,,,,,,,,,,,,,139,sasos,,,,,,306.2897,307.4894,0,1,0.6661,,0,136,136,138,1,pseudoword,0,REAL,FALSA
,,,,,,,,,60fcd9699c3def3068403b90,001,2024-06-30_05h30.49.396,empathy_intonation_perc,2024.1.4,Linux x86_64,29.94011976,,,,,,,,,,,,,,83,hálito,,,,,,307.4904,308.7861,0,1,0.7634,,0,137,137,82,1,non_cognate,1,REAL,FALSA
,,,,,,,,,60fcd9699c3def3068403b90,001,2024-06-30_05h30.49.396,empathy_intonation_perc,2024.1.4,Linux x86_64,29.94011976,,,,,,,,,,,,,,117,morrá,,,,,,308.787,310.6178,0,1,1.2987,,0,138,138,116,1,pseudoword,0,REAL,FALSA
,,,,,,,,,60fcd9699c3def3068403b90,001,2024-06-30_05h30.49.396,empathy_intonation_perc,2024.1.4,Linux x86_64,29.94011976,,,,,,,,,,,,,,172,dogue,,,,,,310.6188,311.8826,0,1,0.7307,,0,139,139,171,1,pseudoword,0,REAL,FALSA
,,,,,,,,,60fcd9699c3def3068403b90,001,2024-06-30_05h30.49.396,empathy_intonation_perc,2024.1.4,Linux x86_64,29.94011976,,,,,,,,,,,,,,124,lobe,,,,,,311.8837,313.3316,1,0,0.898,,0,140,140,123,1,pseudoword,0,REAL,FALSA
,,,,,,,,,60fcd9699c3def3068403b90,001,2024-06-30_05h30.49.396,empathy_intonation_perc,2024.1.4,Linux x86_64,29.94011976,,,,,,,,,,,,,,8,kilo,,,,,,313.3329,314.7966,1,0,0.9304,,0,141,141,7,1,three_way_cognate,1,REAL,FALSA
,,,,,,,,,60fcd9699c3def3068403b90,001,2024-06-30_05h30.49.396,empathy_intonation_perc,2024.1.4,Linux x86_64,29.94011976,,,,,,,,,,,,,,176,gripar,,,,,,314.7973,316.2123,1,0,0.8819,,0,142,142,175,1,pseudoword,0,REAL,FALSA
,,,,,,,,,60fcd9699c3def3068403b90,001,2024-06-30_05h30.49.396,empathy_intonation_perc,2024.1.4,Linux x86_64,29.94011976,,,,,,,,,,,,,,115,lidena,,,,,,316.2129,317.4442,0,1,0.6972,,0,143,143,114,1,pseudoword,0,REAL,FALSA
,,,,,,,,,60fcd9699c3def3068403b90,001,2024-06-30_05h30.49.396,empathy_intonation_perc,2024.1.4,Linux x86_64,29.94011976,,,,,,,,,,,,,,154,harvé,,,,,,317.4451,318.9093,0,1,0.9275,,0,144,144,153,1,pseudoword,0,REAL,FALSA
,,,,,,,,,60fcd9699c3def3068403b90,001,2024-06-30_05h30.49.396,empathy_intonation_perc,2024.1.4,Linux x86_64,29.94011976,,,,,,,,,,,,,,103,vueras,,,,,,318.91,321.1909,0,1,1.7494,,0,145,145,102,1,pseudoword,0,REAL,FALSA
,,,,,,,,,60fcd9699c3def3068403b90,001,2024-06-30_05h30.49.396,empathy_intonation_perc,2024.1.4,Linux x86_64,29.94011976,,,,,,,,,,,,,,187,nomata,,,,,,321.1918,322.6056,0,1,0.8772,,0,146,146,186,1,pseudoword,0,REAL,FALSA
,,,,,,,,,60fcd9699c3def3068403b90,001,2024-06-30_05h30.49.396,empathy_intonation_perc,2024.1.4,Linux x86_64,29.94011976,,,,,,,,,,,,,,82,brillo,,,,,,322.6064,323.9051,1,0,0.7633,,0,147,147,81,1,non_cognate,1,REAL,FALSA
,,,,,,,,,60fcd9699c3def3068403b90,001,2024-06-30_05h30.49.396,empathy_intonation_perc,2024.1.4,Linux x86_64,29.94011976,,,,,,,,,,,,,,69,tiza,,,,,,323.9058,325.4864,1,0,1.0452,,0,148,148,68,1,non_cognate,1,REAL,FALSA
,,,,,,,,,60fcd9699c3def3068403b90,001,2024-06-30_05h30.49.396,empathy_intonation_perc,2024.1.4,Linux x86_64,29.94011976,,,,,,,,,,,,,,84,aviso,,,,,,325.4873,326.6846,1,0,0.6645,,0,149,149,83,1,non_cognate,1,REAL,FALSA
,,,,,,,,,60fcd9699c3def3068403b90,001,2024-06-30_05h30.49.396,empathy_intonation_perc,2024.1.4,Linux x86_64,29.94011976,,,,,,,,,,,,,,114,dibrea,,,,,,326.6853,328.2167,0,1,0.9967,,0,150,150,113,1,pseudoword,0,REAL,FALSA
,,,,,,,,,60fcd9699c3def3068403b90,001,2024-06-30_05h30.49.396,empathy_intonation_perc,2024.1.4,Linux x86_64,29.94011976,,,,,,,,,,,,,,133,conso,,,,,,328.2175,329.8497,0,1,1.0994,,0,151,151,132,1,pseudoword,0,REAL,FALSA
,,,,,,,,,60fcd9699c3def3068403b90,001,2024-06-30_05h30.49.396,empathy_intonation_perc,2024.1.4,Linux x86_64,29.94011976,,,,,,,,,,,,,,52,blando,,,,,,329.8508,331.1638,1,0,0.7791,,0,152,152,51,1,non_cognate,1,REAL,FALSA
,,,,,,,,,60fcd9699c3def3068403b90,001,2024-06-30_05h30.49.396,empathy_intonation_perc,2024.1.4,Linux x86_64,29.94011976,,,,,,,,,,,,,,120,mauja,,,,,,331.1646,332.4984,0,1,0.8035,,0,153,153,119,1,pseudoword,0,REAL,FALSA
,,,,,,,,,60fcd9699c3def3068403b90,001,2024-06-30_05h30.49.396,empathy_intonation_perc,2024.1.4,Linux x86_64,29.94011976,,,,,,,,,,,,,,149,emén,,,,,,332.4991,333.7282,0,1,0.7,,0,154,154,148,1,pseudoword,0,REAL,FALSA
,,,,,,,,,60fcd9699c3def3068403b90,001,2024-06-30_05h30.49.396,empathy_intonation_perc,2024.1.4,Linux x86_64,29.94011976,,,,,,,,,,,,,,136,hueas,,,,,,333.7288,335.0105,0,1,0.7488,,0,155,155,135,1,pseudoword,0,REAL,FALSA
,,,,,,,,,60fcd9699c3def3068403b90,001,2024-06-30_05h30.49.396,empathy_intonation_perc,2024.1.4,Linux x86_64,29.94011976,,,,,,,,,,,,,,146,gió,,,,,,335.0113,339.7731,0,1,4.2263,,0,156,156,145,1,pseudoword,0,REAL,FALSA
,,,,,,,,,60fcd9699c3def3068403b90,001,2024-06-30_05h30.49.396,empathy_intonation_perc,2024.1.4,Linux x86_64,29.94011976,,,,,,,,,,,,,,126,tobre,,,,,,339.7882,341.3205,0,1,1.0135,,0,157,157,125,1,pseudoword,0,REAL,FALSA
,,,,,,,,,60fcd9699c3def3068403b90,001,2024-06-30_05h30.49.396,empathy_intonation_perc,2024.1.4,Linux x86_64,29.94011976,,,,,,,,,,,,,,30,fiscal,,,,,,341.3212,342.536,1,0,0.6823,,0,158,158,29,1,two_way_cognate,1,REAL,FALSA
,,,,,,,,,60fcd9699c3def3068403b90,001,2024-06-30_05h30.49.396,empathy_intonation_perc,2024.1.4,Linux x86_64,29.94011976,,,,,,,,,,,,,,192,próces,,,,,,342.5368,344.0511,1,0,0.9792,,0,159,159,191,1,pseudoword,0,REAL,FALSA
,,,,,,,,,60fcd9699c3def3068403b90,001,2024-06-30_05h30.49.396,empathy_intonation_perc,2024.1.4,Linux x86_64,29.94011976,,,,,,,,,,,,,,141,virios,,,,,,344.0519,345.3001,0,1,0.7135,,0,160,160,140,1,pseudoword,0,REAL,FALSA
,,,,,,,,,60fcd9699c3def3068403b90,001,2024-06-30_05h30.49.396,empathy_intonation_perc,2024.1.4,Linux x86_64,29.94011976,,,,,,,,,,,,,,185,aljizo,,,,,,345.301,346.5163,0,1,0.6813,,0,161,161,184,1,pseudoword,0,REAL,FALSA
,,,,,,,,,60fcd9699c3def3068403b90,001,2024-06-30_05h30.49.396,empathy_intonation_perc,2024.1.4,Linux x86_64,29.94011976,,,,,,,,,,,,,,68,puñal,,,,,,346.5171,349.4294,0,1,2.3792,,0,162,162,67,1,non_cognate,1,REAL,FALSA
,,,,,,,,,60fcd9699c3def3068403b90,001,2024-06-30_05h30.49.396,empathy_intonation_perc,2024.1.4,Linux x86_64,29.94011976,,,,,,,,,,,,,,113,nasce,,,,,,349.4438,350.6957,0,1,0.7307,,0,163,163,112,1,pseudoword,0,REAL,FALSA
,,,,,,,,,60fcd9699c3def3068403b90,001,2024-06-30_05h30.49.396,empathy_intonation_perc,2024.1.4,Linux x86_64,29.94011976,,,,,,,,,,,,,,132,nocó,,,,,,350.6965,351.9946,0,1,0.7672,,0,164,164,131,1,pseudoword,0,REAL,FALSA
,,,,,,,,,60fcd9699c3def3068403b90,001,2024-06-30_05h30.49.396,empathy_intonation_perc,2024.1.4,Linux x86_64,29.94011976,,,,,,,,,,,,,,122,boñaz,,,,,,351.9953,353.3427,0,1,0.8167,,0,165,165,121,1,pseudoword,0,REAL,FALSA
,,,,,,,,,60fcd9699c3def3068403b90,001,2024-06-30_05h30.49.396,empathy_intonation_perc,2024.1.4,Linux x86_64,29.94011976,,,,,,,,,,,,,,188,amplir,,,,,,353.3437,354.9903,1,0,1.114,,0,166,166,187,1,pseudoword,0,REAL,FALSA
,,,,,,,,,60fcd9699c3def3068403b90,001,2024-06-30_05h30.49.396,empathy_intonation_perc,2024.1.4,Linux x86_64,29.94011976,,,,,,,,,,,,,,140,chorde,,,,,,354.9911,356.3558,0,1,0.8478,,0,167,167,139,1,pseudoword,0,REAL,FALSA
,,,,,,,,,60fcd9699c3def3068403b90,001,2024-06-30_05h30.49.396,empathy_intonation_perc,2024.1.4,Linux x86_64,29.94011976,,,,,,,,,,,,,,96,caro,,,,,,356.3564,357.6879,1,0,0.8001,,0,168,168,95,1,non_cognate,1,REAL,FALSA
,,,,,,,,,60fcd9699c3def3068403b90,001,2024-06-30_05h30.49.396,empathy_intonation_perc,2024.1.4,Linux x86_64,29.94011976,,,,,,,,,,,,,,98,martir,,,,,,357.6884,359.6858,0,1,1.4636,,0,169,169,97,1,pseudoword,0,REAL,FALSA
,,,,,,,,,60fcd9699c3def3068403b90,001,2024-06-30_05h30.49.396,empathy_intonation_perc,2024.1.4,Linux x86_64,29.94011976,,,,,,,,,,,,,,128,pelí,,,,,,359.6866,361.1025,0,1,0.88,,0,170,170,127,1,pseudoword,0,REAL,FALSA
,,,,,,,,,60fcd9699c3def3068403b90,001,2024-06-30_05h30.49.396,empathy_intonation_perc,2024.1.4,Linux x86_64,29.94011976,,,,,,,,,,,,,,2,tumor,,,,,,361.1031,362.7169,0,1,1.0805,,0,171,171,1,1,three_way_cognate,1,REAL,FALSA
,,,,,,,,,60fcd9699c3def3068403b90,001,2024-06-30_05h30.49.396,empathy_intonation_perc,2024.1.4,Linux x86_64,29.94011976,,,,,,,,,,,,,,121,barbs,,,,,,362.7181,364.0482,0,1,0.796,,0,172,172,120,1,pseudoword,0,REAL,FALSA
,,,,,,,,,60fcd9699c3def3068403b90,001,2024-06-30_05h30.49.396,empathy_intonation_perc,2024.1.4,Linux x86_64,29.94011976,,,,,,,,,,,,,,51,listo,,,,,,364.0489,365.3474,1,0,0.7632,,0,173,173,50,1,non_cognate,1,REAL,FALSA
,,,,,,,,,60fcd9699c3def3068403b90,001,2024-06-30_05h30.49.396,empathy_intonation_perc,2024.1.4,Linux x86_64,29.94011976,,,,,,,,,,,,,,138,tator,,,,,,365.348,366.6846,0,1,0.8076,,0,174,174,137,1,pseudoword,0,REAL,FALSA
,,,,,,,,,60fcd9699c3def3068403b90,001,2024-06-30_05h30.49.396,empathy_intonation_perc,2024.1.4,Linux x86_64,29.94011976,,,,,,,,,,,,,,163,olzan,,,,,,366.6854,368.977,0,1,1.762,,0,175,175,162,1,pseudoword,0,REAL,FALSA
,,,,,,,,,60fcd9699c3def3068403b90,001,2024-06-30_05h30.49.396,empathy_intonation_perc,2024.1.4,Linux x86_64,29.94011976,,,,,,,,,,,,,,155,kugis,,,,,,368.9918,370.1106,0,1,0.5978,,0,176,176,154,1,pseudoword,0,REAL,FALSA
,,,,,,,,,60fcd9699c3def3068403b90,001,2024-06-30_05h30.49.396,empathy_intonation_perc,2024.1.4,Linux x86_64,29.94011976,,,,,,,,,,,,,,79,suelo,,,,,,370.1116,371.4579,1,0,0.8163,,0,177,177,78,1,non_cognate,1,REAL,FALSA
,,,,,,,,,60fcd9699c3def3068403b90,001,2024-06-30_05h30.49.396,empathy_intonation_perc,2024.1.4,Linux x86_64,29.94011976,,,,,,,,,,,,,,86,cuenco,,,,,,371.4594,372.8567,1,0,0.8655,,0,178,178,85,1,non_cognate,1,REAL,FALSA
,,,,,,,,,60fcd9699c3def3068403b90,001,2024-06-30_05h30.49.396,empathy_intonation_perc,2024.1.4,Linux x86_64,29.94011976,,,,,,,,,,,,,,123,arane,,,,,,372.8576,374.3547,0,1,0.9636,,0,179,179,122,1,pseudoword,0,REAL,FALSA
,,,,,,,,,60fcd9699c3def3068403b90,001,2024-06-30_05h30.49.396,empathy_intonation_perc,2024.1.4,Linux x86_64,29.94011976,,,,,,,,,,,,,,90,venado,,,,,,374.3556,375.6207,1,0,0.7314,,0,180,180,89,1,non_cognate,1,REAL,FALSA
,,,,,,,,,60fcd9699c3def3068403b90,001,2024-06-30_05h30.49.396,empathy_intonation_perc,2024.1.4,Linux x86_64,29.94011976,,,,,,,,,,,,,,46,mortal,,,,,,375.6215,377.0854,1,0,0.9289,,0,181,181,45,1,two_way_cognate,1,REAL,FALSA
,,,,,,,,,60fcd9699c3def3068403b90,001,2024-06-30_05h30.49.396,empathy_intonation_perc,2024.1.4,Linux x86_64,29.94011976,,,,,,,,,,,,,,137,trugo,,,,,,377.0862,378.3347,0,1,0.7179,,0,182,182,136,1,pseudoword,0,REAL,FALSA
,,,,,,,,,60fcd9699c3def3068403b90,001,2024-06-30_05h30.49.396,empathy_intonation_perc,2024.1.4,Linux x86_64,29.94011976,,,,,,,,,,,,,,127,vien,,,,,,378.3356,379.5829,1,0,0.7157,,0,183,183,126,1,pseudoword,0,REAL,FALSA
,,,,,,,,,60fcd9699c3def3068403b90,001,2024-06-30_05h30.49.396,empathy_intonation_perc,2024.1.4,Linux x86_64,29.94011976,,,,,,,,,,,,,,190,asumie,,,,,,379.5838,381.3144,0,1,1.1979,,0,184,184,189,1,pseudoword,0,REAL,FALSA
,,,,,,,,,60fcd9699c3def3068403b90,001,2024-06-30_05h30.49.396,empathy_intonation_perc,2024.1.4,Linux x86_64,29.94011976,,,,,,,,,,,,,,38,halo,,,,,,381.3149,382.9294,0,1,1.0785,,0,185,185,37,1,two_way_cognate,1,REAL,FALSA
,,,,,,,,,60fcd9699c3def3068403b90,001,2024-06-30_05h30.49.396,empathy_intonation_perc,2024.1.4,Linux x86_64,29.94011976,,,,,,,,,,,,,,74,ala,,,,,,382.9301,384.3282,1,0,0.8635,,0,186,186,73,1,non_cognate,1,REAL,FALSA
,,,,,,,,,60fcd9699c3def3068403b90,001,2024-06-30_05h30.49.396,empathy_intonation_perc,2024.1.4,Linux x86_64,29.94011976,,,,,,,,,,,,,,41,pasta,,,,,,384.329,386.8758,1,0,2.0117,,0,187,187,40,1,two_way_cognate,1,REAL,FALSA
,,,,,,,,,60fcd9699c3def3068403b90,001,2024-06-30_05h30.49.396,empathy_intonation_perc,2024.1.4,Linux x86_64,29.94011976,,,,,,,,,,,,,,111,monue,,,,,,386.8905,388.1749,0,1,0.7626,,0,188,188,110,1,pseudoword,0,REAL,FALSA
,,,,,,,,,60fcd9699c3def3068403b90,001,2024-06-30_05h30.49.396,empathy_intonation_perc,2024.1.4,Linux x86_64,29.94011976,,,,,,,,,,,,,,19,mafia,,,,,,388.1758,390.6223,0,1,1.9153,,0,189,189,18,1,three_way_cognate,1,REAL,FALSA
,,,,,,,,,60fcd9699c3def3068403b90,001,2024-06-30_05h30.49.396,empathy_intonation_perc,2024.1.4,Linux x86_64,29.94011976,,,,,,,,,,,,,,174,pabea,,,,,,390.6232,391.9047,0,1,0.7474,,0,190,190,173,1,pseudoword,0,REAL,FALSA
,,,,,,,,,60fcd9699c3def3068403b90,001,2024-06-30_05h30.49.396,empathy_intonation_perc,2024.1.4,Linux x86_64,29.94011976,,,,,,,,,,,,,,153,golla,,,,,,391.9055,393.4524,0,1,1.0161,,0,191,191,152,1,pseudoword,0,REAL,FALSA
