lextale_instructions.started,lextale_instructions.stopped,lextale_instructions_loop.thisRepN,lextale_instructions_loop.thisTrialN,lextale_instructions_loop.thisN,lextale_instructions_loop.thisIndex,lextale_instructions_loop.ran,instructions_text,continue_text,participant,session,date,expName,psychopyVersion,OS,frameRate,lextale_practice.started,lextale_practice.stopped,key_resp_lextale_practice.keys,key_resp_lextale_practice.corr,key_resp_lextale_practice.rt,key_resp_lextale_practice.duration,lextale_practice_feedback.started,lextale_practice_feedback.stopped,lextale_practice_trials.thisRepN,lextale_practice_trials.thisTrialN,lextale_practice_trials.thisN,lextale_practice_trials.thisIndex,lextale_practice_trials.ran,stim,word,correct_response,prac_button_real,prac_button_false,lextale_check.started,lextale_check.stopped,lextale_trial.started,lextale_trial.stopped,key_resp_lextale_trial.keys,key_resp_lextale_trial.corr,key_resp_lextale_trial.rt,key_resp_lextale_trial.duration,lextail_trials.thisRepN,lextail_trials.thisTrialN,lextail_trials.thisN,lextail_trials.thisIndex,lextail_trials.ran,type,correct_reponse,button_real,button_false
0.0091,27.9083,0,0,0,0,1,"Este es un test de vocabulario en español. 
  
  A continuación vas a ver 90 secuencias de letras que parecen 'españolas'.
  
  Solo algunas de ellas son palabras de verdad.",(presiona la barra espaciadora para continuar),613929236e3092c6bad219ab,001,2024-06-30_04h36.55.913,empathy_intonation_perc,2024.1.4,Win32,30.03003003,,,,,,,,,,,,,,,,,,,,,,,,,,,,,,,,,,,
27.909,33.1685,0,1,1,1,1,"Por favor, señala las palabras que tú conoces (aquellas que estás convencido que son palabras españolas, incluso aunque no seas capaz de dar el significado preciso).",(presiona la barra espaciadora para continuar),613929236e3092c6bad219ab,001,2024-06-30_04h36.55.913,empathy_intonation_perc,2024.1.4,Win32,30.03003003,,,,,,,,,,,,,,,,,,,,,,,,,,,,,,,,,,,
33.1829,40.0838,0,2,2,2,1,Pero cuidado: los errores se penalizan. Por eso no tiene sentido tratar de incrementar tu puntuación marcando como reales palabras que nunca has visto.,(presiona la barra espaciadora para continuar),613929236e3092c6bad219ab,001,2024-06-30_04h36.55.913,empathy_intonation_perc,2024.1.4,Win32,30.03003003,,,,,,,,,,,,,,,,,,,,,,,,,,,,,,,,,,,
40.1109,57.6822,0,3,3,3,1,"Presiona la tecla 1 si piensas que es una palabra real y la tecla 
  0 si piensas que es una palabra falsa. 
  
  Vamos a practicar un poco...",(presiona la barra espaciadora para continuar),613929236e3092c6bad219ab,001,2024-06-30_04h36.55.913,empathy_intonation_perc,2024.1.4,Win32,30.03003003,,,,,,,,,,,,,,,,,,,,,,,,,,,,,,,,,,,
,,,,,,,,,613929236e3092c6bad219ab,001,2024-06-30_04h36.55.913,empathy_intonation_perc,2024.1.4,Win32,30.03003003,57.7037,60.3645,0,1,2.1374,,60.3646,61.3648,0,0,0,0,1,0,depiste,0,REAL,FALSA,,,,,,,,,,,,,,,,,
,,,,,,,,,613929236e3092c6bad219ab,001,2024-06-30_04h36.55.913,empathy_intonation_perc,2024.1.4,Win32,30.03003003,61.3653,62.6331,1,1,0.7354,,62.6332,63.6309,0,1,1,1,1,0,sí,1,REAL,FALSA,,,,,,,,,,,,,,,,,
,,,,,,,,,613929236e3092c6bad219ab,001,2024-06-30_04h36.55.913,empathy_intonation_perc,2024.1.4,Win32,30.03003003,63.6313,65.0643,0,1,0.9036,,65.0643,66.0627,0,2,2,2,1,0,coné,0,REAL,FALSA,,,,,,,,,,,,,,,,,
,,,,,,,,,613929236e3092c6bad219ab,001,2024-06-30_04h36.55.913,empathy_intonation_perc,2024.1.4,Win32,30.03003003,66.0899,67.2156,0,1,0.6018,,67.2157,68.2138,0,3,3,3,1,0,calpar,0,REAL,FALSA,,,,,,,,,,,,,,,,,
,,,,,,,,,613929236e3092c6bad219ab,001,2024-06-30_04h36.55.913,empathy_intonation_perc,2024.1.4,Win32,30.03003003,68.2141,69.514,0,1,0.7664,,69.5141,70.5139,0,4,4,4,1,0,joten,0,REAL,FALSA,,,,,,,,,,,,,,,,,
,,,,,,,,,613929236e3092c6bad219ab,001,2024-06-30_04h36.55.913,empathy_intonation_perc,2024.1.4,Win32,30.03003003,70.5144,71.7655,1,1,0.7277,,71.7656,72.7655,0,5,5,5,1,0,sacapuntas,1,REAL,FALSA,,,,,,,,,,,,,,,,,
,,,,,,,,,613929236e3092c6bad219ab,001,2024-06-30_04h36.55.913,empathy_intonation_perc,2024.1.4,Win32,30.03003003,72.7662,73.9661,0,1,0.669,,73.9663,74.9655,0,6,6,6,1,0,priba,0,REAL,FALSA,,,,,,,,,,,,,,,,,
,,,,,,,,,613929236e3092c6bad219ab,001,2024-06-30_04h36.55.913,empathy_intonation_perc,2024.1.4,Win32,30.03003003,74.9662,76.382,0,1,0.8812,,76.3821,77.3828,0,7,7,7,1,0,pelasula,0,REAL,FALSA,,,,,,,,,,,,,,,,,
,,,,,,,,,613929236e3092c6bad219ab,001,2024-06-30_04h36.55.913,empathy_intonation_perc,2024.1.4,Win32,30.03003003,77.3838,78.5001,1,1,0.5884,,78.5003,79.4985,0,8,8,8,1,0,bien,1,REAL,FALSA,,,,,,,,,,,,,,,,,
,,,,,,,,,613929236e3092c6bad219ab,001,2024-06-30_04h36.55.913,empathy_intonation_perc,2024.1.4,Win32,30.03003003,79.4991,80.5817,1,1,0.5471,,80.5818,81.5818,0,9,9,9,1,0,casa,1,REAL,FALSA,,,,,,,,,,,,,,,,,
,,,,,,,,,613929236e3092c6bad219ab,001,2024-06-30_04h36.55.913,empathy_intonation_perc,2024.1.4,Win32,30.03003003,81.5824,82.7985,0,1,0.6801,,82.7986,83.7961,0,10,10,10,1,0,lejo,0,REAL,FALSA,,,,,,,,,,,,,,,,,
,,,,,,,,,613929236e3092c6bad219ab,001,2024-06-30_04h36.55.913,empathy_intonation_perc,2024.1.4,Win32,30.03003003,83.7976,85.3646,0,1,1.0462,,85.3646,86.3651,0,11,11,11,1,0,pretantas,0,REAL,FALSA,,,,,,,,,,,,,,,,,
,,,,,,,,,613929236e3092c6bad219ab,001,2024-06-30_04h36.55.913,empathy_intonation_perc,2024.1.4,Win32,30.03003003,,,,,,,,,,,,,,,,,,,86.366,103.6162,,,,,,,,,,,,,,,
,,,,,,,,,613929236e3092c6bad219ab,001,2024-06-30_04h36.55.913,empathy_intonation_perc,2024.1.4,Win32,30.03003003,,,,,,,,,,,,,,5,extra,,,,,,103.6806,105.1978,1,0,0.981,,0,0,0,4,1,three_way_cognate,1,REAL,FALSA
,,,,,,,,,613929236e3092c6bad219ab,001,2024-06-30_04h36.55.913,empathy_intonation_perc,2024.1.4,Win32,30.03003003,,,,,,,,,,,,,,20,trauma,,,,,,105.1988,106.4634,1,0,0.7342,,0,1,1,19,1,three_way_cognate,1,REAL,FALSA
,,,,,,,,,613929236e3092c6bad219ab,001,2024-06-30_04h36.55.913,empathy_intonation_perc,2024.1.4,Win32,30.03003003,,,,,,,,,,,,,,174,pabea,,,,,,106.4641,107.6473,0,1,0.6452,,0,2,2,173,1,pseudoword,0,REAL,FALSA
,,,,,,,,,613929236e3092c6bad219ab,001,2024-06-30_04h36.55.913,empathy_intonation_perc,2024.1.4,Win32,30.03003003,,,,,,,,,,,,,,114,dibrea,,,,,,107.6481,108.8469,0,1,0.6663,,0,3,3,113,1,pseudoword,0,REAL,FALSA
,,,,,,,,,613929236e3092c6bad219ab,001,2024-06-30_04h36.55.913,empathy_intonation_perc,2024.1.4,Win32,30.03003003,,,,,,,,,,,,,,103,vueras,,,,,,108.8475,110.1802,0,1,0.7989,,0,4,4,102,1,pseudoword,0,REAL,FALSA
,,,,,,,,,613929236e3092c6bad219ab,001,2024-06-30_04h36.55.913,empathy_intonation_perc,2024.1.4,Win32,30.03003003,,,,,,,,,,,,,,142,parre,,,,,,110.1808,111.6969,0,1,0.9824,,0,5,5,141,1,pseudoword,0,REAL,FALSA
,,,,,,,,,613929236e3092c6bad219ab,001,2024-06-30_04h36.55.913,empathy_intonation_perc,2024.1.4,Win32,30.03003003,,,,,,,,,,,,,,149,emén,,,,,,111.6976,112.8452,0,1,0.6127,,0,6,6,148,1,pseudoword,0,REAL,FALSA
,,,,,,,,,613929236e3092c6bad219ab,001,2024-06-30_04h36.55.913,empathy_intonation_perc,2024.1.4,Win32,30.03003003,,,,,,,,,,,,,,38,halo,,,,,,112.8456,114.1621,1,0,0.784,,0,7,7,37,1,two_way_cognate,1,REAL,FALSA
,,,,,,,,,613929236e3092c6bad219ab,001,2024-06-30_04h36.55.913,empathy_intonation_perc,2024.1.4,Win32,30.03003003,,,,,,,,,,,,,,61,aduana,,,,,,114.1625,115.3279,1,0,0.6336,,0,8,8,60,1,non_cognate,1,REAL,FALSA
,,,,,,,,,613929236e3092c6bad219ab,001,2024-06-30_04h36.55.913,empathy_intonation_perc,2024.1.4,Win32,30.03003003,,,,,,,,,,,,,,183,edioso,,,,,,115.3283,116.8445,0,1,0.9834,,0,9,9,182,1,pseudoword,0,REAL,FALSA
,,,,,,,,,613929236e3092c6bad219ab,001,2024-06-30_04h36.55.913,empathy_intonation_perc,2024.1.4,Win32,30.03003003,,,,,,,,,,,,,,55,maldad,,,,,,116.8448,118.0111,1,0,0.6338,,0,10,10,54,1,non_cognate,1,REAL,FALSA
,,,,,,,,,613929236e3092c6bad219ab,001,2024-06-30_04h36.55.913,empathy_intonation_perc,2024.1.4,Win32,30.03003003,,,,,,,,,,,,,,116,grigir,,,,,,118.0115,119.7611,0,1,1.2183,,0,11,11,115,1,pseudoword,0,REAL,FALSA
,,,,,,,,,613929236e3092c6bad219ab,001,2024-06-30_04h36.55.913,empathy_intonation_perc,2024.1.4,Win32,30.03003003,,,,,,,,,,,,,,135,panté,,,,,,119.7615,121.0276,0,1,0.734,,0,12,12,134,1,pseudoword,0,REAL,FALSA
,,,,,,,,,613929236e3092c6bad219ab,001,2024-06-30_04h36.55.913,empathy_intonation_perc,2024.1.4,Win32,30.03003003,,,,,,,,,,,,,,9,portal,,,,,,121.0281,122.2609,1,0,0.7005,,0,13,13,8,1,three_way_cognate,1,REAL,FALSA
,,,,,,,,,613929236e3092c6bad219ab,001,2024-06-30_04h36.55.913,empathy_intonation_perc,2024.1.4,Win32,30.03003003,,,,,,,,,,,,,,97,nocita,,,,,,122.2613,123.5942,0,1,0.8005,,0,14,14,96,1,pseudoword,0,REAL,FALSA
,,,,,,,,,613929236e3092c6bad219ab,001,2024-06-30_04h36.55.913,empathy_intonation_perc,2024.1.4,Win32,30.03003003,,,,,,,,,,,,,,129,vinzó,,,,,,123.5946,124.7278,0,1,0.6043,,0,15,15,128,1,pseudoword,0,REAL,FALSA
,,,,,,,,,613929236e3092c6bad219ab,001,2024-06-30_04h36.55.913,empathy_intonation_perc,2024.1.4,Win32,30.03003003,,,,,,,,,,,,,,101,losco,,,,,,124.7283,125.7856,1,0,0.5257,,0,16,16,100,1,pseudoword,0,REAL,FALSA
,,,,,,,,,613929236e3092c6bad219ab,001,2024-06-30_04h36.55.913,empathy_intonation_perc,2024.1.4,Win32,30.03003003,,,,,,,,,,,,,,54,tapón,,,,,,125.7865,127.1744,1,0,0.854,,0,17,17,53,1,non_cognate,1,REAL,FALSA
,,,,,,,,,613929236e3092c6bad219ab,001,2024-06-30_04h36.55.913,empathy_intonation_perc,2024.1.4,Win32,30.03003003,,,,,,,,,,,,,,141,virios,,,,,,127.1756,128.4284,0,1,0.7246,,0,18,18,140,1,pseudoword,0,REAL,FALSA
,,,,,,,,,613929236e3092c6bad219ab,001,2024-06-30_04h36.55.913,empathy_intonation_perc,2024.1.4,Win32,30.03003003,,,,,,,,,,,,,,104,estulo,,,,,,128.4293,129.8376,0,1,0.8763,,0,19,19,103,1,pseudoword,0,REAL,FALSA
,,,,,,,,,613929236e3092c6bad219ab,001,2024-06-30_04h36.55.913,empathy_intonation_perc,2024.1.4,Win32,30.03003003,,,,,,,,,,,,,,105,leniz,,,,,,129.8385,130.8773,0,1,0.5034,,0,20,20,104,1,pseudoword,0,REAL,FALSA
,,,,,,,,,613929236e3092c6bad219ab,001,2024-06-30_04h36.55.913,empathy_intonation_perc,2024.1.4,Win32,30.03003003,,,,,,,,,,,,,,167,dobbo,,,,,,130.8782,131.8966,0,1,0.4862,,0,21,21,166,1,pseudoword,0,REAL,FALSA
,,,,,,,,,613929236e3092c6bad219ab,001,2024-06-30_04h36.55.913,empathy_intonation_perc,2024.1.4,Win32,30.03003003,,,,,,,,,,,,,,27,piano,,,,,,131.8975,132.9588,1,0,0.5255,,0,22,22,26,1,two_way_cognate,1,REAL,FALSA
,,,,,,,,,613929236e3092c6bad219ab,001,2024-06-30_04h36.55.913,empathy_intonation_perc,2024.1.4,Win32,30.03003003,,,,,,,,,,,,,,64,rizado,,,,,,132.9596,134.161,1,0,0.6728,,0,23,23,63,1,non_cognate,1,REAL,FALSA
,,,,,,,,,613929236e3092c6bad219ab,001,2024-06-30_04h36.55.913,empathy_intonation_perc,2024.1.4,Win32,30.03003003,,,,,,,,,,,,,,79,suelo,,,,,,134.1619,135.1908,1,0,0.4877,,0,24,24,78,1,non_cognate,1,REAL,FALSA
,,,,,,,,,613929236e3092c6bad219ab,001,2024-06-30_04h36.55.913,empathy_intonation_perc,2024.1.4,Win32,30.03003003,,,,,,,,,,,,,,17,clan,,,,,,135.1922,136.3218,1,0,0.6041,,0,25,25,16,1,three_way_cognate,1,REAL,FALSA
,,,,,,,,,613929236e3092c6bad219ab,001,2024-06-30_04h36.55.913,empathy_intonation_perc,2024.1.4,Win32,30.03003003,,,,,,,,,,,,,,158,babrá,,,,,,136.3224,137.6269,0,1,0.7685,,0,26,26,157,1,pseudoword,0,REAL,FALSA
,,,,,,,,,613929236e3092c6bad219ab,001,2024-06-30_04h36.55.913,empathy_intonation_perc,2024.1.4,Win32,30.03003003,,,,,,,,,,,,,,184,huenos,,,,,,137.6273,138.9446,0,1,0.7841,,0,27,27,183,1,pseudoword,0,REAL,FALSA
,,,,,,,,,613929236e3092c6bad219ab,001,2024-06-30_04h36.55.913,empathy_intonation_perc,2024.1.4,Win32,30.03003003,,,,,,,,,,,,,,32,animal,,,,,,138.9453,140.1057,1,0,0.6299,,0,28,28,31,1,two_way_cognate,1,REAL,FALSA
,,,,,,,,,613929236e3092c6bad219ab,001,2024-06-30_04h36.55.913,empathy_intonation_perc,2024.1.4,Win32,30.03003003,,,,,,,,,,,,,,65,guerra,,,,,,140.1067,141.1439,1,0,0.5074,,0,29,29,64,1,non_cognate,1,REAL,FALSA
,,,,,,,,,613929236e3092c6bad219ab,001,2024-06-30_04h36.55.913,empathy_intonation_perc,2024.1.4,Win32,30.03003003,,,,,,,,,,,,,,161,civas,,,,,,141.1449,142.3181,0,1,0.6464,,0,30,30,160,1,pseudoword,0,REAL,FALSA
,,,,,,,,,613929236e3092c6bad219ab,001,2024-06-30_04h36.55.913,empathy_intonation_perc,2024.1.4,Win32,30.03003003,,,,,,,,,,,,,,92,flecha,,,,,,142.3189,143.4028,1,0,0.563,,0,31,31,91,1,non_cognate,1,REAL,FALSA
,,,,,,,,,613929236e3092c6bad219ab,001,2024-06-30_04h36.55.913,empathy_intonation_perc,2024.1.4,Win32,30.03003003,,,,,,,,,,,,,,123,arane,,,,,,143.4037,144.5403,0,1,0.6143,,0,32,32,122,1,pseudoword,0,REAL,FALSA
,,,,,,,,,613929236e3092c6bad219ab,001,2024-06-30_04h36.55.913,empathy_intonation_perc,2024.1.4,Win32,30.03003003,,,,,,,,,,,,,,175,tradía,,,,,,144.5413,145.8271,0,1,0.7608,,0,33,33,174,1,pseudoword,0,REAL,FALSA
,,,,,,,,,613929236e3092c6bad219ab,001,2024-06-30_04h36.55.913,empathy_intonation_perc,2024.1.4,Win32,30.03003003,,,,,,,,,,,,,,171,gotro,,,,,,145.828,146.9201,0,1,0.5604,,0,34,34,170,1,pseudoword,0,REAL,FALSA
,,,,,,,,,613929236e3092c6bad219ab,001,2024-06-30_04h36.55.913,empathy_intonation_perc,2024.1.4,Win32,30.03003003,,,,,,,,,,,,,,109,laras,,,,,,146.9208,148.0165,0,1,0.5599,,0,35,35,108,1,pseudoword,0,REAL,FALSA
,,,,,,,,,613929236e3092c6bad219ab,001,2024-06-30_04h36.55.913,empathy_intonation_perc,2024.1.4,Win32,30.03003003,,,,,,,,,,,,,,139,sasos,,,,,,148.0174,149.3379,0,1,0.7842,,0,36,36,138,1,pseudoword,0,REAL,FALSA
,,,,,,,,,613929236e3092c6bad219ab,001,2024-06-30_04h36.55.913,empathy_intonation_perc,2024.1.4,Win32,30.03003003,,,,,,,,,,,,,,37,torso,,,,,,149.3388,150.3515,0,1,0.4924,,0,37,37,36,1,two_way_cognate,1,REAL,FALSA
,,,,,,,,,613929236e3092c6bad219ab,001,2024-06-30_04h36.55.913,empathy_intonation_perc,2024.1.4,Win32,30.03003003,,,,,,,,,,,,,,96,caro,,,,,,150.3524,151.491,1,0,0.6078,,0,38,38,95,1,non_cognate,1,REAL,FALSA
,,,,,,,,,613929236e3092c6bad219ab,001,2024-06-30_04h36.55.913,empathy_intonation_perc,2024.1.4,Win32,30.03003003,,,,,,,,,,,,,,28,ardor,,,,,,151.4916,152.6596,1,0,0.635,,0,39,39,27,1,two_way_cognate,1,REAL,FALSA
,,,,,,,,,613929236e3092c6bad219ab,001,2024-06-30_04h36.55.913,empathy_intonation_perc,2024.1.4,Win32,30.03003003,,,,,,,,,,,,,,77,suave,,,,,,152.6607,153.681,1,0,0.4882,,0,40,40,76,1,non_cognate,1,REAL,FALSA
,,,,,,,,,613929236e3092c6bad219ab,001,2024-06-30_04h36.55.913,empathy_intonation_perc,2024.1.4,Win32,30.03003003,,,,,,,,,,,,,,11,golf,,,,,,153.6818,154.7429,1,0,0.5263,,0,41,41,10,1,three_way_cognate,1,REAL,FALSA
,,,,,,,,,613929236e3092c6bad219ab,001,2024-06-30_04h36.55.913,empathy_intonation_perc,2024.1.4,Win32,30.03003003,,,,,,,,,,,,,,81,sacar,,,,,,154.7437,155.8462,1,0,0.5627,,0,42,42,80,1,non_cognate,1,REAL,FALSA
,,,,,,,,,613929236e3092c6bad219ab,001,2024-06-30_04h36.55.913,empathy_intonation_perc,2024.1.4,Win32,30.03003003,,,,,,,,,,,,,,177,entodo,,,,,,155.847,157.4241,0,1,1.0422,,0,43,43,176,1,pseudoword,0,REAL,FALSA
,,,,,,,,,613929236e3092c6bad219ab,001,2024-06-30_04h36.55.913,empathy_intonation_perc,2024.1.4,Win32,30.03003003,,,,,,,,,,,,,,25,vigor,,,,,,157.4252,158.5894,0,1,0.6238,,0,44,44,24,1,two_way_cognate,1,REAL,FALSA
,,,,,,,,,613929236e3092c6bad219ab,001,2024-06-30_04h36.55.913,empathy_intonation_perc,2024.1.4,Win32,30.03003003,,,,,,,,,,,,,,26,enigma,,,,,,158.5903,159.8764,1,0,0.7652,,0,45,45,25,1,two_way_cognate,1,REAL,FALSA
,,,,,,,,,613929236e3092c6bad219ab,001,2024-06-30_04h36.55.913,empathy_intonation_perc,2024.1.4,Win32,30.03003003,,,,,,,,,,,,,,145,rúo,,,,,,159.8776,161.2417,0,1,0.8314,,0,46,46,144,1,pseudoword,0,REAL,FALSA
,,,,,,,,,613929236e3092c6bad219ab,001,2024-06-30_04h36.55.913,empathy_intonation_perc,2024.1.4,Win32,30.03003003,,,,,,,,,,,,,,147,alla,,,,,,161.2429,162.621,1,0,0.8434,,0,47,47,146,1,pseudoword,0,REAL,FALSA
,,,,,,,,,613929236e3092c6bad219ab,001,2024-06-30_04h36.55.913,empathy_intonation_perc,2024.1.4,Win32,30.03003003,,,,,,,,,,,,,,131,fuar,,,,,,162.6219,164.4322,0,1,1.2777,,0,48,48,130,1,pseudoword,0,REAL,FALSA
,,,,,,,,,613929236e3092c6bad219ab,001,2024-06-30_04h36.55.913,empathy_intonation_perc,2024.1.4,Win32,30.03003003,,,,,,,,,,,,,,106,diebro,,,,,,164.4329,165.569,0,1,0.61,,0,49,49,105,1,pseudoword,0,REAL,FALSA
,,,,,,,,,613929236e3092c6bad219ab,001,2024-06-30_04h36.55.913,empathy_intonation_perc,2024.1.4,Win32,30.03003003,,,,,,,,,,,,,,117,morrá,,,,,,165.5699,167.1925,0,1,1.093,,0,50,50,116,1,pseudoword,0,REAL,FALSA
,,,,,,,,,613929236e3092c6bad219ab,001,2024-06-30_04h36.55.913,empathy_intonation_perc,2024.1.4,Win32,30.03003003,,,,,,,,,,,,,,10,drama,,,,,,167.1938,168.4,1,0,0.6781,,0,51,51,9,1,three_way_cognate,1,REAL,FALSA
,,,,,,,,,613929236e3092c6bad219ab,001,2024-06-30_04h36.55.913,empathy_intonation_perc,2024.1.4,Win32,30.03003003,,,,,,,,,,,,,,190,asumie,,,,,,168.4006,169.6501,0,1,0.7297,,0,52,52,189,1,pseudoword,0,REAL,FALSA
,,,,,,,,,613929236e3092c6bad219ab,001,2024-06-30_04h36.55.913,empathy_intonation_perc,2024.1.4,Win32,30.03003003,,,,,,,,,,,,,,1,moral,,,,,,169.6509,170.7441,1,0,0.5683,,0,53,53,0,1,three_way_cognate,1,REAL,FALSA
,,,,,,,,,613929236e3092c6bad219ab,001,2024-06-30_04h36.55.913,empathy_intonation_perc,2024.1.4,Win32,30.03003003,,,,,,,,,,,,,,40,pelvis,,,,,,170.7448,171.8237,1,0,0.5426,,0,54,54,39,1,two_way_cognate,1,REAL,FALSA
,,,,,,,,,613929236e3092c6bad219ab,001,2024-06-30_04h36.55.913,empathy_intonation_perc,2024.1.4,Win32,30.03003003,,,,,,,,,,,,,,13,plan,,,,,,171.8242,172.876,1,0,0.5253,,0,55,55,12,1,three_way_cognate,1,REAL,FALSA
,,,,,,,,,613929236e3092c6bad219ab,001,2024-06-30_04h36.55.913,empathy_intonation_perc,2024.1.4,Win32,30.03003003,,,,,,,,,,,,,,67,llamar,,,,,,172.8769,173.8877,1,0,0.4787,,0,56,56,66,1,non_cognate,1,REAL,FALSA
,,,,,,,,,613929236e3092c6bad219ab,001,2024-06-30_04h36.55.913,empathy_intonation_perc,2024.1.4,Win32,30.03003003,,,,,,,,,,,,,,153,golla,,,,,,173.8886,174.985,0,1,0.5763,,0,57,57,152,1,pseudoword,0,REAL,FALSA
,,,,,,,,,613929236e3092c6bad219ab,001,2024-06-30_04h36.55.913,empathy_intonation_perc,2024.1.4,Win32,30.03003003,,,,,,,,,,,,,,126,tobre,,,,,,174.986,176.1122,0,1,0.6026,,0,58,58,125,1,pseudoword,0,REAL,FALSA
,,,,,,,,,613929236e3092c6bad219ab,001,2024-06-30_04h36.55.913,empathy_intonation_perc,2024.1.4,Win32,30.03003003,,,,,,,,,,,,,,154,harvé,,,,,,176.113,177.1605,0,1,0.5196,,0,59,59,153,1,pseudoword,0,REAL,FALSA
,,,,,,,,,613929236e3092c6bad219ab,001,2024-06-30_04h36.55.913,empathy_intonation_perc,2024.1.4,Win32,30.03003003,,,,,,,,,,,,,,120,mauja,,,,,,177.1613,178.1564,0,1,0.4525,,0,60,60,119,1,pseudoword,0,REAL,FALSA
,,,,,,,,,613929236e3092c6bad219ab,001,2024-06-30_04h36.55.913,empathy_intonation_perc,2024.1.4,Win32,30.03003003,,,,,,,,,,,,,,172,dogue,,,,,,178.1586,179.3094,0,1,0.6147,,0,61,61,171,1,pseudoword,0,REAL,FALSA
,,,,,,,,,613929236e3092c6bad219ab,001,2024-06-30_04h36.55.913,empathy_intonation_perc,2024.1.4,Win32,30.03003003,,,,,,,,,,,,,,8,kilo,,,,,,179.3099,180.4498,1,0,0.6024,,0,62,62,7,1,three_way_cognate,1,REAL,FALSA
,,,,,,,,,613929236e3092c6bad219ab,001,2024-06-30_04h36.55.913,empathy_intonation_perc,2024.1.4,Win32,30.03003003,,,,,,,,,,,,,,53,punta,,,,,,180.451,181.6538,1,0,0.6781,,0,63,63,52,1,non_cognate,1,REAL,FALSA
,,,,,,,,,613929236e3092c6bad219ab,001,2024-06-30_04h36.55.913,empathy_intonation_perc,2024.1.4,Win32,30.03003003,,,,,,,,,,,,,,98,martir,,,,,,181.6545,182.7606,1,0,0.5851,,0,64,64,97,1,pseudoword,0,REAL,FALSA
,,,,,,,,,613929236e3092c6bad219ab,001,2024-06-30_04h36.55.913,empathy_intonation_perc,2024.1.4,Win32,30.03003003,,,,,,,,,,,,,,118,bará,,,,,,182.7615,183.8836,0,1,0.5907,,0,65,65,117,1,pseudoword,0,REAL,FALSA
,,,,,,,,,613929236e3092c6bad219ab,001,2024-06-30_04h36.55.913,empathy_intonation_perc,2024.1.4,Win32,30.03003003,,,,,,,,,,,,,,159,trcia,,,,,,183.8844,185.0986,0,1,0.679,,0,66,66,158,1,pseudoword,0,REAL,FALSA
,,,,,,,,,613929236e3092c6bad219ab,001,2024-06-30_04h36.55.913,empathy_intonation_perc,2024.1.4,Win32,30.03003003,,,,,,,,,,,,,,43,honor,,,,,,185.0992,186.1588,1,0,0.5254,,0,67,67,42,1,two_way_cognate,1,REAL,FALSA
,,,,,,,,,613929236e3092c6bad219ab,001,2024-06-30_04h36.55.913,empathy_intonation_perc,2024.1.4,Win32,30.03003003,,,,,,,,,,,,,,74,ala,,,,,,186.16,187.6251,0,1,0.9252,,0,68,68,73,1,non_cognate,1,REAL,FALSA
,,,,,,,,,613929236e3092c6bad219ab,001,2024-06-30_04h36.55.913,empathy_intonation_perc,2024.1.4,Win32,30.03003003,,,,,,,,,,,,,,6,horror,,,,,,187.6259,189.1249,1,0,0.9699,,0,69,69,5,1,three_way_cognate,1,REAL,FALSA
,,,,,,,,,613929236e3092c6bad219ab,001,2024-06-30_04h36.55.913,empathy_intonation_perc,2024.1.4,Win32,30.03003003,,,,,,,,,,,,,,176,gripar,,,,,,189.1258,190.453,1,0,0.8018,,0,70,70,175,1,pseudoword,0,REAL,FALSA
,,,,,,,,,613929236e3092c6bad219ab,001,2024-06-30_04h36.55.913,empathy_intonation_perc,2024.1.4,Win32,30.03003003,,,,,,,,,,,,,,156,ozoso,,,,,,190.4538,191.821,0,1,0.8396,,0,71,71,155,1,pseudoword,0,REAL,FALSA
,,,,,,,,,613929236e3092c6bad219ab,001,2024-06-30_04h36.55.913,empathy_intonation_perc,2024.1.4,Win32,30.03003003,,,,,,,,,,,,,,137,trugo,,,,,,191.8219,192.9941,0,1,0.6523,,0,72,72,136,1,pseudoword,0,REAL,FALSA
,,,,,,,,,613929236e3092c6bad219ab,001,2024-06-30_04h36.55.913,empathy_intonation_perc,2024.1.4,Win32,30.03003003,,,,,,,,,,,,,,41,pasta,,,,,,192.9949,194.1505,1,0,0.6276,,0,73,73,40,1,two_way_cognate,1,REAL,FALSA
,,,,,,,,,613929236e3092c6bad219ab,001,2024-06-30_04h36.55.913,empathy_intonation_perc,2024.1.4,Win32,30.03003003,,,,,,,,,,,,,,49,teñir,,,,,,194.1517,196.2282,1,0,1.5413,,0,74,74,48,1,non_cognate,1,REAL,FALSA
,,,,,,,,,613929236e3092c6bad219ab,001,2024-06-30_04h36.55.913,empathy_intonation_perc,2024.1.4,Win32,30.03003003,,,,,,,,,,,,,,42,rumor,,,,,,196.2292,197.2491,1,0,0.4917,,0,75,75,41,1,two_way_cognate,1,REAL,FALSA
,,,,,,,,,613929236e3092c6bad219ab,001,2024-06-30_04h36.55.913,empathy_intonation_perc,2024.1.4,Win32,30.03003003,,,,,,,,,,,,,,68,puñal,,,,,,197.2495,198.4428,1,0,0.6605,,0,76,76,67,1,non_cognate,1,REAL,FALSA
,,,,,,,,,613929236e3092c6bad219ab,001,2024-06-30_04h36.55.913,empathy_intonation_perc,2024.1.4,Win32,30.03003003,,,,,,,,,,,,,,46,mortal,,,,,,198.4436,199.4878,1,0,0.5192,,0,77,77,45,1,two_way_cognate,1,REAL,FALSA
,,,,,,,,,613929236e3092c6bad219ab,001,2024-06-30_04h36.55.913,empathy_intonation_perc,2024.1.4,Win32,30.03003003,,,,,,,,,,,,,,50,sierra,,,,,,199.4891,200.532,1,0,0.5145,,0,78,78,49,1,non_cognate,1,REAL,FALSA
,,,,,,,,,613929236e3092c6bad219ab,001,2024-06-30_04h36.55.913,empathy_intonation_perc,2024.1.4,Win32,30.03003003,,,,,,,,,,,,,,133,conso,,,,,,200.5328,201.7697,0,1,0.7124,,0,79,79,132,1,pseudoword,0,REAL,FALSA
,,,,,,,,,613929236e3092c6bad219ab,001,2024-06-30_04h36.55.913,empathy_intonation_perc,2024.1.4,Win32,30.03003003,,,,,,,,,,,,,,63,hilo,,,,,,201.7706,202.8353,1,0,0.5361,,0,80,80,62,1,non_cognate,1,REAL,FALSA
,,,,,,,,,613929236e3092c6bad219ab,001,2024-06-30_04h36.55.913,empathy_intonation_perc,2024.1.4,Win32,30.03003003,,,,,,,,,,,,,,99,bugor,,,,,,202.8358,203.9009,0,1,0.5276,,0,81,81,98,1,pseudoword,0,REAL,FALSA
,,,,,,,,,613929236e3092c6bad219ab,001,2024-06-30_04h36.55.913,empathy_intonation_perc,2024.1.4,Win32,30.03003003,,,,,,,,,,,,,,75,patada,,,,,,203.9016,205.2072,1,0,0.769,,0,82,82,74,1,non_cognate,1,REAL,FALSA
,,,,,,,,,613929236e3092c6bad219ab,001,2024-06-30_04h36.55.913,empathy_intonation_perc,2024.1.4,Win32,30.03003003,,,,,,,,,,,,,,162,cengo,,,,,,205.2079,206.3582,0,1,0.6163,,0,83,83,161,1,pseudoword,0,REAL,FALSA
,,,,,,,,,613929236e3092c6bad219ab,001,2024-06-30_04h36.55.913,empathy_intonation_perc,2024.1.4,Win32,30.03003003,,,,,,,,,,,,,,73,llevar,,,,,,206.3591,207.4734,1,0,0.5833,,0,84,84,72,1,non_cognate,1,REAL,FALSA
,,,,,,,,,613929236e3092c6bad219ab,001,2024-06-30_04h36.55.913,empathy_intonation_perc,2024.1.4,Win32,30.03003003,,,,,,,,,,,,,,22,mango,,,,,,207.474,208.5046,1,0,0.4984,,0,85,85,21,1,three_way_cognate,1,REAL,FALSA
,,,,,,,,,613929236e3092c6bad219ab,001,2024-06-30_04h36.55.913,empathy_intonation_perc,2024.1.4,Win32,30.03003003,,,,,,,,,,,,,,58,colcha,,,,,,208.5056,209.5586,1,0,0.5352,,0,86,86,57,1,non_cognate,1,REAL,FALSA
,,,,,,,,,613929236e3092c6bad219ab,001,2024-06-30_04h36.55.913,empathy_intonation_perc,2024.1.4,Win32,30.03003003,,,,,,,,,,,,,,130,dubo,,,,,,209.5594,210.7965,0,1,0.7057,,0,87,87,129,1,pseudoword,0,REAL,FALSA
,,,,,,,,,613929236e3092c6bad219ab,001,2024-06-30_04h36.55.913,empathy_intonation_perc,2024.1.4,Win32,30.03003003,,,,,,,,,,,,,,164,tecia,,,,,,210.7975,211.8915,0,1,0.5612,,0,88,88,163,1,pseudoword,0,REAL,FALSA
,,,,,,,,,613929236e3092c6bad219ab,001,2024-06-30_04h36.55.913,empathy_intonation_perc,2024.1.4,Win32,30.03003003,,,,,,,,,,,,,,148,gino,,,,,,211.8923,212.9069,0,1,0.4835,,0,89,89,147,1,pseudoword,0,REAL,FALSA
,,,,,,,,,613929236e3092c6bad219ab,001,2024-06-30_04h36.55.913,empathy_intonation_perc,2024.1.4,Win32,30.03003003,,,,,,,,,,,,,,110,densó,,,,,,212.9077,214.0166,0,1,0.5695,,0,90,90,109,1,pseudoword,0,REAL,FALSA
,,,,,,,,,613929236e3092c6bad219ab,001,2024-06-30_04h36.55.913,empathy_intonation_perc,2024.1.4,Win32,30.03003003,,,,,,,,,,,,,,88,percha,,,,,,214.0176,215.9581,1,0,1.4088,0.0002,0,91,91,87,1,non_cognate,1,REAL,FALSA
,,,,,,,,,613929236e3092c6bad219ab,001,2024-06-30_04h36.55.913,empathy_intonation_perc,2024.1.4,Win32,30.03003003,,,,,,,,,,,,,,185,aljizo,,,,,,215.9589,217.5466,0,1,1.0503,,0,92,92,184,1,pseudoword,0,REAL,FALSA
,,,,,,,,,613929236e3092c6bad219ab,001,2024-06-30_04h36.55.913,empathy_intonation_perc,2024.1.4,Win32,30.03003003,,,,,,,,,,,,,,86,cuenco,,,,,,217.5475,218.9598,1,0,0.8781,,0,93,93,85,1,non_cognate,1,REAL,FALSA
,,,,,,,,,613929236e3092c6bad219ab,001,2024-06-30_04h36.55.913,empathy_intonation_perc,2024.1.4,Win32,30.03003003,,,,,,,,,,,,,,12,dogma,,,,,,218.9607,220.5685,1,0,1.071,,0,94,94,11,1,three_way_cognate,1,REAL,FALSA
,,,,,,,,,613929236e3092c6bad219ab,001,2024-06-30_04h36.55.913,empathy_intonation_perc,2024.1.4,Win32,30.03003003,,,,,,,,,,,,,,94,forro,,,,,,220.5694,221.7159,1,0,0.6094,,0,95,95,93,1,non_cognate,1,REAL,FALSA
,,,,,,,,,613929236e3092c6bad219ab,001,2024-06-30_04h36.55.913,empathy_intonation_perc,2024.1.4,Win32,30.03003003,,,,,,,,,,,,,,128,pelí,,,,,,221.7168,224.3905,0,1,2.1357,,0,96,96,127,1,pseudoword,0,REAL,FALSA
,,,,,,,,,613929236e3092c6bad219ab,001,2024-06-30_04h36.55.913,empathy_intonation_perc,2024.1.4,Win32,30.03003003,,,,,,,,,,,,,,163,olzan,,,,,,224.3916,225.5349,0,1,0.6179,,0,97,97,162,1,pseudoword,0,REAL,FALSA
,,,,,,,,,613929236e3092c6bad219ab,001,2024-06-30_04h36.55.913,empathy_intonation_perc,2024.1.4,Win32,30.03003003,,,,,,,,,,,,,,155,kugis,,,,,,225.5372,226.6315,0,1,0.5682,,0,98,98,154,1,pseudoword,0,REAL,FALSA
,,,,,,,,,613929236e3092c6bad219ab,001,2024-06-30_04h36.55.913,empathy_intonation_perc,2024.1.4,Win32,30.03003003,,,,,,,,,,,,,,111,monue,,,,,,226.6325,227.7372,0,1,0.5716,,0,99,99,110,1,pseudoword,0,REAL,FALSA
,,,,,,,,,613929236e3092c6bad219ab,001,2024-06-30_04h36.55.913,empathy_intonation_perc,2024.1.4,Win32,30.03003003,,,,,,,,,,,,,,107,plago,,,,,,227.738,229.2335,0,1,0.9696,,0,100,100,106,1,pseudoword,0,REAL,FALSA
,,,,,,,,,613929236e3092c6bad219ab,001,2024-06-30_04h36.55.913,empathy_intonation_perc,2024.1.4,Win32,30.03003003,,,,,,,,,,,,,,84,aviso,,,,,,229.2343,230.3256,1,0,0.5676,,0,101,101,83,1,non_cognate,1,REAL,FALSA
,,,,,,,,,613929236e3092c6bad219ab,001,2024-06-30_04h36.55.913,empathy_intonation_perc,2024.1.4,Win32,30.03003003,,,,,,,,,,,,,,62,pegar,,,,,,230.3266,231.3144,1,0,0.4506,,0,102,102,61,1,non_cognate,1,REAL,FALSA
,,,,,,,,,613929236e3092c6bad219ab,001,2024-06-30_04h36.55.913,empathy_intonation_perc,2024.1.4,Win32,30.03003003,,,,,,,,,,,,,,170,diabo,,,,,,231.3153,232.5716,0,1,0.7264,,0,103,103,169,1,pseudoword,0,REAL,FALSA
,,,,,,,,,613929236e3092c6bad219ab,001,2024-06-30_04h36.55.913,empathy_intonation_perc,2024.1.4,Win32,30.03003003,,,,,,,,,,,,,,157,seled,,,,,,232.5725,233.7695,0,1,0.6661,,0,104,104,156,1,pseudoword,0,REAL,FALSA
,,,,,,,,,613929236e3092c6bad219ab,001,2024-06-30_04h36.55.913,empathy_intonation_perc,2024.1.4,Win32,30.03003003,,,,,,,,,,,,,,187,nomata,,,,,,233.7707,234.8977,0,1,0.6041,,0,105,105,186,1,pseudoword,0,REAL,FALSA
,,,,,,,,,613929236e3092c6bad219ab,001,2024-06-30_04h36.55.913,empathy_intonation_perc,2024.1.4,Win32,30.03003003,,,,,,,,,,,,,,182,desaro,,,,,,234.8985,236.3648,0,1,0.9398,,0,106,106,181,1,pseudoword,0,REAL,FALSA
,,,,,,,,,613929236e3092c6bad219ab,001,2024-06-30_04h36.55.913,empathy_intonation_perc,2024.1.4,Win32,30.03003003,,,,,,,,,,,,,,83,hálito,,,,,,236.3655,237.5281,0,1,0.6322,,0,107,107,82,1,non_cognate,1,REAL,FALSA
,,,,,,,,,613929236e3092c6bad219ab,001,2024-06-30_04h36.55.913,empathy_intonation_perc,2024.1.4,Win32,30.03003003,,,,,,,,,,,,,,44,editor,,,,,,237.5289,238.6388,1,0,0.5816,,0,108,108,43,1,two_way_cognate,1,REAL,FALSA
,,,,,,,,,613929236e3092c6bad219ab,001,2024-06-30_04h36.55.913,empathy_intonation_perc,2024.1.4,Win32,30.03003003,,,,,,,,,,,,,,71,torta,,,,,,238.6394,239.6908,1,0,0.5374,,0,109,109,70,1,non_cognate,1,REAL,FALSA
,,,,,,,,,613929236e3092c6bad219ab,001,2024-06-30_04h36.55.913,empathy_intonation_perc,2024.1.4,Win32,30.03003003,,,,,,,,,,,,,,119,esís,,,,,,239.6922,240.8075,0,1,0.5808,,0,110,110,118,1,pseudoword,0,REAL,FALSA
,,,,,,,,,613929236e3092c6bad219ab,001,2024-06-30_04h36.55.913,empathy_intonation_perc,2024.1.4,Win32,30.03003003,,,,,,,,,,,,,,144,diroco,,,,,,240.8087,241.9909,0,1,0.6475,,0,111,111,143,1,pseudoword,0,REAL,FALSA
,,,,,,,,,613929236e3092c6bad219ab,001,2024-06-30_04h36.55.913,empathy_intonation_perc,2024.1.4,Win32,30.03003003,,,,,,,,,,,,,,191,frasis,,,,,,241.9919,243.0554,0,1,0.5341,,0,112,112,190,1,pseudoword,0,REAL,FALSA
,,,,,,,,,613929236e3092c6bad219ab,001,2024-06-30_04h36.55.913,empathy_intonation_perc,2024.1.4,Win32,30.03003003,,,,,,,,,,,,,,134,molor,,,,,,243.0559,244.3221,0,1,0.7341,,0,113,113,133,1,pseudoword,0,REAL,FALSA
,,,,,,,,,613929236e3092c6bad219ab,001,2024-06-30_04h36.55.913,empathy_intonation_perc,2024.1.4,Win32,30.03003003,,,,,,,,,,,,,,192,próces,,,,,,244.3226,245.3728,0,1,0.5247,,0,114,114,191,1,pseudoword,0,REAL,FALSA
,,,,,,,,,613929236e3092c6bad219ab,001,2024-06-30_04h36.55.913,empathy_intonation_perc,2024.1.4,Win32,30.03003003,,,,,,,,,,,,,,181,gravés,,,,,,245.3731,246.4388,0,1,0.5349,,0,115,115,180,1,pseudoword,0,REAL,FALSA
,,,,,,,,,613929236e3092c6bad219ab,001,2024-06-30_04h36.55.913,empathy_intonation_perc,2024.1.4,Win32,30.03003003,,,,,,,,,,,,,,7,albino,,,,,,246.4393,249.5719,1,0,2.6037,0.0002,0,116,116,6,1,three_way_cognate,1,REAL,FALSA
,,,,,,,,,613929236e3092c6bad219ab,001,2024-06-30_04h36.55.913,empathy_intonation_perc,2024.1.4,Win32,30.03003003,,,,,,,,,,,,,,59,feo,,,,,,249.5929,250.6549,1,0,0.5289,,0,117,117,58,1,non_cognate,1,REAL,FALSA
,,,,,,,,,613929236e3092c6bad219ab,001,2024-06-30_04h36.55.913,empathy_intonation_perc,2024.1.4,Win32,30.03003003,,,,,,,,,,,,,,19,mafia,,,,,,250.6554,251.9056,1,0,0.7264,,0,118,118,18,1,three_way_cognate,1,REAL,FALSA
,,,,,,,,,613929236e3092c6bad219ab,001,2024-06-30_04h36.55.913,empathy_intonation_perc,2024.1.4,Win32,30.03003003,,,,,,,,,,,,,,132,nocó,,,,,,251.9064,253.1212,0,1,0.7008,,0,119,119,131,1,pseudoword,0,REAL,FALSA
,,,,,,,,,613929236e3092c6bad219ab,001,2024-06-30_04h36.55.913,empathy_intonation_perc,2024.1.4,Win32,30.03003003,,,,,,,,,,,,,,125,ceme,,,,,,253.1216,254.5575,0,1,0.9035,,0,120,120,124,1,pseudoword,0,REAL,FALSA
,,,,,,,,,613929236e3092c6bad219ab,001,2024-06-30_04h36.55.913,empathy_intonation_perc,2024.1.4,Win32,30.03003003,,,,,,,,,,,,,,3,disco,,,,,,254.559,255.7658,1,0,0.6784,,0,121,121,2,1,three_way_cognate,1,REAL,FALSA
,,,,,,,,,613929236e3092c6bad219ab,001,2024-06-30_04h36.55.913,empathy_intonation_perc,2024.1.4,Win32,30.03003003,,,,,,,,,,,,,,29,clamor,,,,,,255.7667,257.1088,1,0,0.7944,,0,122,122,28,1,two_way_cognate,1,REAL,FALSA
,,,,,,,,,613929236e3092c6bad219ab,001,2024-06-30_04h36.55.913,empathy_intonation_perc,2024.1.4,Win32,30.03003003,,,,,,,,,,,,,,186,rizate,,,,,,257.1097,258.2733,1,0,0.6019,,0,123,123,185,1,pseudoword,0,REAL,FALSA
,,,,,,,,,613929236e3092c6bad219ab,001,2024-06-30_04h36.55.913,empathy_intonation_perc,2024.1.4,Win32,30.03003003,,,,,,,,,,,,,,47,color,,,,,,258.2741,259.6242,1,0,0.8348,,0,124,124,46,1,two_way_cognate,1,REAL,FALSA
,,,,,,,,,613929236e3092c6bad219ab,001,2024-06-30_04h36.55.913,empathy_intonation_perc,2024.1.4,Win32,30.03003003,,,,,,,,,,,,,,31,civil,,,,,,259.6252,260.6914,1,0,0.5156,,0,125,125,30,1,two_way_cognate,1,REAL,FALSA
,,,,,,,,,613929236e3092c6bad219ab,001,2024-06-30_04h36.55.913,empathy_intonation_perc,2024.1.4,Win32,30.03003003,,,,,,,,,,,,,,82,brillo,,,,,,260.6922,261.7704,1,0,0.5419,,0,126,126,81,1,non_cognate,1,REAL,FALSA
,,,,,,,,,613929236e3092c6bad219ab,001,2024-06-30_04h36.55.913,empathy_intonation_perc,2024.1.4,Win32,30.03003003,,,,,,,,,,,,,,124,lobe,,,,,,261.7712,262.9576,0,1,0.6486,,0,127,127,123,1,pseudoword,0,REAL,FALSA
,,,,,,,,,613929236e3092c6bad219ab,001,2024-06-30_04h36.55.913,empathy_intonation_perc,2024.1.4,Win32,30.03003003,,,,,,,,,,,,,,33,collar,,,,,,262.9584,264.0859,1,0,0.5763,,0,128,128,32,1,two_way_cognate,1,REAL,FALSA
,,,,,,,,,613929236e3092c6bad219ab,001,2024-06-30_04h36.55.913,empathy_intonation_perc,2024.1.4,Win32,30.03003003,,,,,,,,,,,,,,178,inichó,,,,,,264.0864,266.235,0,1,1.6147,,0,129,129,177,1,pseudoword,0,REAL,FALSA
,,,,,,,,,613929236e3092c6bad219ab,001,2024-06-30_04h36.55.913,empathy_intonation_perc,2024.1.4,Win32,30.03003003,,,,,,,,,,,,,,146,gió,,,,,,266.236,267.2963,0,1,0.5263,,0,130,130,145,1,pseudoword,0,REAL,FALSA
,,,,,,,,,613929236e3092c6bad219ab,001,2024-06-30_04h36.55.913,empathy_intonation_perc,2024.1.4,Win32,30.03003003,,,,,,,,,,,,,,91,equipo,,,,,,267.2973,268.5758,1,0,0.7244,,0,131,131,90,1,non_cognate,1,REAL,FALSA
,,,,,,,,,613929236e3092c6bad219ab,001,2024-06-30_04h36.55.913,empathy_intonation_perc,2024.1.4,Win32,30.03003003,,,,,,,,,,,,,,108,jauda,,,,,,268.5767,269.8132,0,1,0.7095,,0,132,132,107,1,pseudoword,0,REAL,FALSA
,,,,,,,,,613929236e3092c6bad219ab,001,2024-06-30_04h36.55.913,empathy_intonation_perc,2024.1.4,Win32,30.03003003,,,,,,,,,,,,,,56,pico,,,,,,269.814,271.026,1,0,0.6689,,0,133,133,55,1,non_cognate,1,REAL,FALSA
,,,,,,,,,613929236e3092c6bad219ab,001,2024-06-30_04h36.55.913,empathy_intonation_perc,2024.1.4,Win32,30.03003003,,,,,,,,,,,,,,115,lidena,,,,,,271.0268,272.2045,0,1,0.656,,0,134,134,114,1,pseudoword,0,REAL,FALSA
,,,,,,,,,613929236e3092c6bad219ab,001,2024-06-30_04h36.55.913,empathy_intonation_perc,2024.1.4,Win32,30.03003003,,,,,,,,,,,,,,151,prías,,,,,,272.2053,273.4041,0,1,0.6854,,0,135,135,150,1,pseudoword,0,REAL,FALSA
,,,,,,,,,613929236e3092c6bad219ab,001,2024-06-30_04h36.55.913,empathy_intonation_perc,2024.1.4,Win32,30.03003003,,,,,,,,,,,,,,138,tator,,,,,,273.4049,274.6037,0,1,0.6608,,0,136,136,137,1,pseudoword,0,REAL,FALSA
,,,,,,,,,613929236e3092c6bad219ab,001,2024-06-30_04h36.55.913,empathy_intonation_perc,2024.1.4,Win32,30.03003003,,,,,,,,,,,,,,113,nasce,,,,,,274.6041,275.6375,0,1,0.5034,,0,137,137,112,1,pseudoword,0,REAL,FALSA
,,,,,,,,,613929236e3092c6bad219ab,001,2024-06-30_04h36.55.913,empathy_intonation_perc,2024.1.4,Win32,30.03003003,,,,,,,,,,,,,,18,altar,,,,,,275.6385,276.8019,1,0,0.6299,,0,138,138,17,1,three_way_cognate,1,REAL,FALSA
,,,,,,,,,613929236e3092c6bad219ab,001,2024-06-30_04h36.55.913,empathy_intonation_perc,2024.1.4,Win32,30.03003003,,,,,,,,,,,,,,165,chote,,,,,,276.803,278.299,0,1,0.9438,,0,139,139,164,1,pseudoword,0,REAL,FALSA
,,,,,,,,,613929236e3092c6bad219ab,001,2024-06-30_04h36.55.913,empathy_intonation_perc,2024.1.4,Win32,30.03003003,,,,,,,,,,,,,,152,prave,,,,,,278.2995,279.4502,0,1,0.6218,,0,140,140,151,1,pseudoword,0,REAL,FALSA
,,,,,,,,,613929236e3092c6bad219ab,001,2024-06-30_04h36.55.913,empathy_intonation_perc,2024.1.4,Win32,30.03003003,,,,,,,,,,,,,,122,boñaz,,,,,,279.4515,280.5266,0,1,0.5353,,0,141,141,121,1,pseudoword,0,REAL,FALSA
,,,,,,,,,613929236e3092c6bad219ab,001,2024-06-30_04h36.55.913,empathy_intonation_perc,2024.1.4,Win32,30.03003003,,,,,,,,,,,,,,21,hotel,,,,,,280.5274,281.7295,1,0,0.6665,,0,142,142,20,1,three_way_cognate,1,REAL,FALSA
,,,,,,,,,613929236e3092c6bad219ab,001,2024-06-30_04h36.55.913,empathy_intonation_perc,2024.1.4,Win32,30.03003003,,,,,,,,,,,,,,2,tumor,,,,,,281.7305,283.1486,1,0,0.8845,,0,143,143,1,1,three_way_cognate,1,REAL,FALSA
,,,,,,,,,613929236e3092c6bad219ab,001,2024-06-30_04h36.55.913,empathy_intonation_perc,2024.1.4,Win32,30.03003003,,,,,,,,,,,,,,16,chat,,,,,,283.1498,284.2876,1,0,0.6105,,0,144,144,15,1,three_way_cognate,1,REAL,FALSA
,,,,,,,,,613929236e3092c6bad219ab,001,2024-06-30_04h36.55.913,empathy_intonation_perc,2024.1.4,Win32,30.03003003,,,,,,,,,,,,,,87,muleta,,,,,,284.2885,285.3365,1,0,0.5145,,0,145,145,86,1,non_cognate,1,REAL,FALSA
,,,,,,,,,613929236e3092c6bad219ab,001,2024-06-30_04h36.55.913,empathy_intonation_perc,2024.1.4,Win32,30.03003003,,,,,,,,,,,,,,93,tapa,,,,,,285.3369,286.3531,1,0,0.4812,,0,146,146,92,1,non_cognate,1,REAL,FALSA
,,,,,,,,,613929236e3092c6bad219ab,001,2024-06-30_04h36.55.913,empathy_intonation_perc,2024.1.4,Win32,30.03003003,,,,,,,,,,,,,,60,siglo,,,,,,286.3535,287.4046,1,0,0.5354,,0,147,147,59,1,non_cognate,1,REAL,FALSA
,,,,,,,,,613929236e3092c6bad219ab,001,2024-06-30_04h36.55.913,empathy_intonation_perc,2024.1.4,Win32,30.03003003,,,,,,,,,,,,,,188,amplir,,,,,,287.4057,288.4883,1,0,0.5484,,0,148,148,187,1,pseudoword,0,REAL,FALSA
,,,,,,,,,613929236e3092c6bad219ab,001,2024-06-30_04h36.55.913,empathy_intonation_perc,2024.1.4,Win32,30.03003003,,,,,,,,,,,,,,36,viable,,,,,,288.4889,289.6215,1,0,0.5987,,0,149,149,35,1,two_way_cognate,1,REAL,FALSA
,,,,,,,,,613929236e3092c6bad219ab,001,2024-06-30_04h36.55.913,empathy_intonation_perc,2024.1.4,Win32,30.03003003,,,,,,,,,,,,,,30,fiscal,,,,,,289.6221,290.6882,1,0,0.5415,,0,150,150,29,1,two_way_cognate,1,REAL,FALSA
,,,,,,,,,613929236e3092c6bad219ab,001,2024-06-30_04h36.55.913,empathy_intonation_perc,2024.1.4,Win32,30.03003003,,,,,,,,,,,,,,100,épinas,,,,,,290.6888,291.988,0,1,0.7603,,0,151,151,99,1,pseudoword,0,REAL,FALSA
,,,,,,,,,613929236e3092c6bad219ab,001,2024-06-30_04h36.55.913,empathy_intonation_perc,2024.1.4,Win32,30.03003003,,,,,,,,,,,,,,35,aurora,,,,,,291.9888,293.2882,1,0,0.7655,,0,152,152,34,1,two_way_cognate,1,REAL,FALSA
,,,,,,,,,613929236e3092c6bad219ab,001,2024-06-30_04h36.55.913,empathy_intonation_perc,2024.1.4,Win32,30.03003003,,,,,,,,,,,,,,143,hurcos,,,,,,293.2888,294.8196,0,1,0.9966,,0,153,153,142,1,pseudoword,0,REAL,FALSA
,,,,,,,,,613929236e3092c6bad219ab,001,2024-06-30_04h36.55.913,empathy_intonation_perc,2024.1.4,Win32,30.03003003,,,,,,,,,,,,,,189,medium,,,,,,294.8201,295.9883,0,1,0.6371,,0,154,154,188,1,pseudoword,0,REAL,FALSA
,,,,,,,,,613929236e3092c6bad219ab,001,2024-06-30_04h36.55.913,empathy_intonation_perc,2024.1.4,Win32,30.03003003,,,,,,,,,,,,,,166,anfia,,,,,,295.9889,298.5054,0,1,1.9806,,0,155,155,165,1,pseudoword,0,REAL,FALSA
,,,,,,,,,613929236e3092c6bad219ab,001,2024-06-30_04h36.55.913,empathy_intonation_perc,2024.1.4,Win32,30.03003003,,,,,,,,,,,,,,70,ánimo,,,,,,298.5061,299.5388,1,0,0.4984,,0,156,156,69,1,non_cognate,1,REAL,FALSA
,,,,,,,,,613929236e3092c6bad219ab,001,2024-06-30_04h36.55.913,empathy_intonation_perc,2024.1.4,Win32,30.03003003,,,,,,,,,,,,,,136,hueas,,,,,,299.5397,300.821,0,1,0.7493,,0,157,157,135,1,pseudoword,0,REAL,FALSA
,,,,,,,,,613929236e3092c6bad219ab,001,2024-06-30_04h36.55.913,empathy_intonation_perc,2024.1.4,Win32,30.03003003,,,,,,,,,,,,,,95,listo,,,,,,300.8219,302.1381,1,0,0.782,,0,158,158,94,1,non_cognate,1,REAL,FALSA
,,,,,,,,,613929236e3092c6bad219ab,001,2024-06-30_04h36.55.913,empathy_intonation_perc,2024.1.4,Win32,30.03003003,,,,,,,,,,,,,,173,mibro,,,,,,302.1391,303.5378,0,1,0.863,,0,159,159,172,1,pseudoword,0,REAL,FALSA
,,,,,,,,,613929236e3092c6bad219ab,001,2024-06-30_04h36.55.913,empathy_intonation_perc,2024.1.4,Win32,30.03003003,,,,,,,,,,,,,,4,flora,,,,,,303.5384,304.6692,1,0,0.6011,,0,160,160,3,1,three_way_cognate,1,REAL,FALSA
,,,,,,,,,613929236e3092c6bad219ab,001,2024-06-30_04h36.55.913,empathy_intonation_perc,2024.1.4,Win32,30.03003003,,,,,,,,,,,,,,150,cricó,,,,,,304.6696,305.9872,0,1,0.7994,,0,161,161,149,1,pseudoword,0,REAL,FALSA
,,,,,,,,,613929236e3092c6bad219ab,001,2024-06-30_04h36.55.913,empathy_intonation_perc,2024.1.4,Win32,30.03003003,,,,,,,,,,,,,,34,actor,,,,,,305.9878,307.102,0,1,0.5808,,0,162,162,33,1,two_way_cognate,1,REAL,FALSA
,,,,,,,,,613929236e3092c6bad219ab,001,2024-06-30_04h36.55.913,empathy_intonation_perc,2024.1.4,Win32,30.03003003,,,,,,,,,,,,,,52,blando,,,,,,307.1024,308.4855,1,0,0.8704,,0,163,163,51,1,non_cognate,1,REAL,FALSA
,,,,,,,,,613929236e3092c6bad219ab,001,2024-06-30_04h36.55.913,empathy_intonation_perc,2024.1.4,Win32,30.03003003,,,,,,,,,,,,,,168,cobén,,,,,,308.4859,309.8185,0,1,0.8005,,0,164,164,167,1,pseudoword,0,REAL,FALSA
,,,,,,,,,613929236e3092c6bad219ab,001,2024-06-30_04h36.55.913,empathy_intonation_perc,2024.1.4,Win32,30.03003003,,,,,,,,,,,,,,90,venado,,,,,,309.819,310.9018,1,0,0.5495,,0,165,165,89,1,non_cognate,1,REAL,FALSA
,,,,,,,,,613929236e3092c6bad219ab,001,2024-06-30_04h36.55.913,empathy_intonation_perc,2024.1.4,Win32,30.03003003,,,,,,,,,,,,,,179,suelet,,,,,,310.9022,312.1851,0,1,0.7505,,0,166,166,178,1,pseudoword,0,REAL,FALSA
,,,,,,,,,613929236e3092c6bad219ab,001,2024-06-30_04h36.55.913,empathy_intonation_perc,2024.1.4,Win32,30.03003003,,,,,,,,,,,,,,140,chorde,,,,,,312.1855,313.2689,0,1,0.5514,,0,167,167,139,1,pseudoword,0,REAL,FALSA
,,,,,,,,,613929236e3092c6bad219ab,001,2024-06-30_04h36.55.913,empathy_intonation_perc,2024.1.4,Win32,30.03003003,,,,,,,,,,,,,,76,chocar,,,,,,313.2693,314.4015,1,0,0.6177,,0,168,168,75,1,non_cognate,1,REAL,FALSA
,,,,,,,,,613929236e3092c6bad219ab,001,2024-06-30_04h36.55.913,empathy_intonation_perc,2024.1.4,Win32,30.03003003,,,,,,,,,,,,,,85,enorme,,,,,,314.4019,315.5034,1,0,0.5719,,0,169,169,84,1,non_cognate,1,REAL,FALSA
,,,,,,,,,613929236e3092c6bad219ab,001,2024-06-30_04h36.55.913,empathy_intonation_perc,2024.1.4,Win32,30.03003003,,,,,,,,,,,,,,24,retina,,,,,,315.504,316.5853,1,0,0.5533,,0,170,170,23,1,three_way_cognate,1,REAL,FALSA
,,,,,,,,,613929236e3092c6bad219ab,001,2024-06-30_04h36.55.913,empathy_intonation_perc,2024.1.4,Win32,30.03003003,,,,,,,,,,,,,,72,rostro,,,,,,316.5858,317.6184,1,0,0.4994,,0,171,171,71,1,non_cognate,1,REAL,FALSA
,,,,,,,,,613929236e3092c6bad219ab,001,2024-06-30_04h36.55.913,empathy_intonation_perc,2024.1.4,Win32,30.03003003,,,,,,,,,,,,,,57,regalo,,,,,,317.6187,318.5851,1,0,0.4381,,0,172,172,56,1,non_cognate,1,REAL,FALSA
,,,,,,,,,613929236e3092c6bad219ab,001,2024-06-30_04h36.55.913,empathy_intonation_perc,2024.1.4,Win32,30.03003003,,,,,,,,,,,,,,169,pitis,,,,,,318.5855,319.7706,0,1,0.6458,,0,173,173,168,1,pseudoword,0,REAL,FALSA
,,,,,,,,,613929236e3092c6bad219ab,001,2024-06-30_04h36.55.913,empathy_intonation_perc,2024.1.4,Win32,30.03003003,,,,,,,,,,,,,,80,cuenco,,,,,,319.7713,320.9846,1,0,0.6803,,0,174,174,79,1,non_cognate,1,REAL,FALSA
,,,,,,,,,613929236e3092c6bad219ab,001,2024-06-30_04h36.55.913,empathy_intonation_perc,2024.1.4,Win32,30.03003003,,,,,,,,,,,,,,66,aleta,,,,,,320.985,322.6016,1,0,1.087,,0,175,175,65,1,non_cognate,1,REAL,FALSA
,,,,,,,,,613929236e3092c6bad219ab,001,2024-06-30_04h36.55.913,empathy_intonation_perc,2024.1.4,Win32,30.03003003,,,,,,,,,,,,,,45,total,,,,,,322.602,323.657,1,0,0.5155,,0,176,176,44,1,two_way_cognate,1,REAL,FALSA
,,,,,,,,,613929236e3092c6bad219ab,001,2024-06-30_04h36.55.913,empathy_intonation_perc,2024.1.4,Win32,30.03003003,,,,,,,,,,,,,,15,test,,,,,,323.6578,324.718,1,0,0.5155,,0,177,177,14,1,three_way_cognate,1,REAL,FALSA
,,,,,,,,,613929236e3092c6bad219ab,001,2024-06-30_04h36.55.913,empathy_intonation_perc,2024.1.4,Win32,30.03003003,,,,,,,,,,,,,,160,fomeó,,,,,,324.7185,325.8017,0,1,0.5624,,0,178,178,159,1,pseudoword,0,REAL,FALSA
,,,,,,,,,613929236e3092c6bad219ab,001,2024-06-30_04h36.55.913,empathy_intonation_perc,2024.1.4,Win32,30.03003003,,,,,,,,,,,,,,48,pelvis,,,,,,325.8027,326.9682,1,0,0.6293,,0,179,179,47,1,two_way_cognate,1,REAL,FALSA
,,,,,,,,,613929236e3092c6bad219ab,001,2024-06-30_04h36.55.913,empathy_intonation_perc,2024.1.4,Win32,30.03003003,,,,,,,,,,,,,,78,rendir,,,,,,326.9686,328.0539,1,0,0.5627,,0,180,180,77,1,non_cognate,1,REAL,FALSA
,,,,,,,,,613929236e3092c6bad219ab,001,2024-06-30_04h36.55.913,empathy_intonation_perc,2024.1.4,Win32,30.03003003,,,,,,,,,,,,,,112,samón,,,,,,328.0549,329.2265,1,0,0.6485,,0,181,181,111,1,pseudoword,0,REAL,FALSA
,,,,,,,,,613929236e3092c6bad219ab,001,2024-06-30_04h36.55.913,empathy_intonation_perc,2024.1.4,Win32,30.03003003,,,,,,,,,,,,,,23,plural,,,,,,329.2274,330.7371,1,0,0.9832,,0,182,182,22,1,three_way_cognate,1,REAL,FALSA
,,,,,,,,,613929236e3092c6bad219ab,001,2024-06-30_04h36.55.913,empathy_intonation_perc,2024.1.4,Win32,30.03003003,,,,,,,,,,,,,,14,aura,,,,,,330.7379,331.7511,1,0,0.4873,,0,183,183,13,1,three_way_cognate,1,REAL,FALSA
,,,,,,,,,613929236e3092c6bad219ab,001,2024-06-30_04h36.55.913,empathy_intonation_perc,2024.1.4,Win32,30.03003003,,,,,,,,,,,,,,69,tiza,,,,,,331.7516,333.0508,1,0,0.7507,,0,184,184,68,1,non_cognate,1,REAL,FALSA
,,,,,,,,,613929236e3092c6bad219ab,001,2024-06-30_04h36.55.913,empathy_intonation_perc,2024.1.4,Win32,30.03003003,,,,,,,,,,,,,,127,vien,,,,,,333.0512,334.3512,0,1,0.7659,,0,185,185,126,1,pseudoword,0,REAL,FALSA
,,,,,,,,,613929236e3092c6bad219ab,001,2024-06-30_04h36.55.913,empathy_intonation_perc,2024.1.4,Win32,30.03003003,,,,,,,,,,,,,,121,barbs,,,,,,334.3517,335.3518,0,1,0.475,,0,186,186,120,1,pseudoword,0,REAL,FALSA
,,,,,,,,,613929236e3092c6bad219ab,001,2024-06-30_04h36.55.913,empathy_intonation_perc,2024.1.4,Win32,30.03003003,,,,,,,,,,,,,,51,listo,,,,,,335.3522,336.4344,1,0,0.5631,,0,187,187,50,1,non_cognate,1,REAL,FALSA
,,,,,,,,,613929236e3092c6bad219ab,001,2024-06-30_04h36.55.913,empathy_intonation_perc,2024.1.4,Win32,30.03003003,,,,,,,,,,,,,,89,muñeca,,,,,,336.4348,337.469,1,0,0.5008,,0,188,188,88,1,non_cognate,1,REAL,FALSA
,,,,,,,,,613929236e3092c6bad219ab,001,2024-06-30_04h36.55.913,empathy_intonation_perc,2024.1.4,Win32,30.03003003,,,,,,,,,,,,,,102,coyo,,,,,,337.4696,339.0025,0,1,0.9995,,0,189,189,101,1,pseudoword,0,REAL,FALSA
,,,,,,,,,613929236e3092c6bad219ab,001,2024-06-30_04h36.55.913,empathy_intonation_perc,2024.1.4,Win32,30.03003003,,,,,,,,,,,,,,180,pupica,,,,,,339.0031,340.1823,0,1,0.6505,,0,190,190,179,1,pseudoword,0,REAL,FALSA
,,,,,,,,,613929236e3092c6bad219ab,001,2024-06-30_04h36.55.913,empathy_intonation_perc,2024.1.4,Win32,30.03003003,,,,,,,,,,,,,,39,casual,,,,,,340.1834,341.9009,1,0,1.189,,0,191,191,38,1,two_way_cognate,1,REAL,FALSA
