lextale_instructions.started,lextale_instructions.stopped,lextale_instructions_loop.thisRepN,lextale_instructions_loop.thisTrialN,lextale_instructions_loop.thisN,lextale_instructions_loop.thisIndex,lextale_instructions_loop.ran,instructions_text,continue_text,participant,session,date,expName,psychopyVersion,OS,frameRate,lextale_practice.started,lextale_practice.stopped,key_resp_lextale_practice.keys,key_resp_lextale_practice.corr,key_resp_lextale_practice.rt,key_resp_lextale_practice.duration,lextale_practice_feedback.started,lextale_practice_feedback.stopped,lextale_practice_trials.thisRepN,lextale_practice_trials.thisTrialN,lextale_practice_trials.thisN,lextale_practice_trials.thisIndex,lextale_practice_trials.ran,stim,word,correct_response,prac_button_real,prac_button_false,lextale_check.started,lextale_check.stopped,lextale_trial.started,lextale_trial.stopped,key_resp_lextale_trial.keys,key_resp_lextale_trial.corr,key_resp_lextale_trial.rt,key_resp_lextale_trial.duration,lextail_trials.thisRepN,lextail_trials.thisTrialN,lextail_trials.thisN,lextail_trials.thisIndex,lextail_trials.ran,type,correct_reponse,button_real,button_false
0.0029,5.8782,0,0,0,0,1,"Este es un test de vocabulario en español. 
  
  A continuación vas a ver 90 secuencias de letras que parecen 'españolas'.
  
  Solo algunas de ellas son palabras de verdad.",(presiona la barra espaciadora para continuar),615df4a8253f3bfee4097f9e,001,2024-06-30_07h25.24.688,empathy_intonation_perc,2024.1.4,Win32,303.030303,,,,,,,,,,,,,,,,,,,,,,,,,,,,,,,,,,,
5.8785,11.5362,0,1,1,1,1,"Por favor, señala las palabras que tú conoces (aquellas que estás convencido que son palabras españolas, incluso aunque no seas capaz de dar el significado preciso).",(presiona la barra espaciadora para continuar),615df4a8253f3bfee4097f9e,001,2024-06-30_07h25.24.688,empathy_intonation_perc,2024.1.4,Win32,303.030303,,,,,,,,,,,,,,,,,,,,,,,,,,,,,,,,,,,
11.5367,19.771,0,2,2,2,1,Pero cuidado: los errores se penalizan. Por eso no tiene sentido tratar de incrementar tu puntuación marcando como reales palabras que nunca has visto.,(presiona la barra espaciadora para continuar),615df4a8253f3bfee4097f9e,001,2024-06-30_07h25.24.688,empathy_intonation_perc,2024.1.4,Win32,303.030303,,,,,,,,,,,,,,,,,,,,,,,,,,,,,,,,,,,
19.7717,33.0356,0,3,3,3,1,"Presiona la tecla 1 si piensas que es una palabra real y la tecla 
  0 si piensas que es una palabra falsa. 
  
  Vamos a practicar un poco...",(presiona la barra espaciadora para continuar),615df4a8253f3bfee4097f9e,001,2024-06-30_07h25.24.688,empathy_intonation_perc,2024.1.4,Win32,303.030303,,,,,,,,,,,,,,,,,,,,,,,,,,,,,,,,,,,
,,,,,,,,,615df4a8253f3bfee4097f9e,001,2024-06-30_07h25.24.688,empathy_intonation_perc,2024.1.4,Win32,303.030303,33.0377,39.3414,1,0,5.7958,,39.3417,40.3413,0,0,0,0,1,0,depiste,0,REAL,FALSA,,,,,,,,,,,,,,,,,
,,,,,,,,,615df4a8253f3bfee4097f9e,001,2024-06-30_07h25.24.688,empathy_intonation_perc,2024.1.4,Win32,303.030303,40.3419,43.3322,1,1,2.4827,,43.3323,44.3331,0,1,1,1,1,0,sí,1,REAL,FALSA,,,,,,,,,,,,,,,,,
,,,,,,,,,615df4a8253f3bfee4097f9e,001,2024-06-30_07h25.24.688,empathy_intonation_perc,2024.1.4,Win32,303.030303,44.3333,49.1321,0,1,4.2917,,49.1322,50.1369,0,2,2,2,1,0,coné,0,REAL,FALSA,,,,,,,,,,,,,,,,,
,,,,,,,,,615df4a8253f3bfee4097f9e,001,2024-06-30_07h25.24.688,empathy_intonation_perc,2024.1.4,Win32,303.030303,50.1371,52.2203,0,1,1.5751,,52.2204,53.2198,0,3,3,3,1,0,calpar,0,REAL,FALSA,,,,,,,,,,,,,,,,,
,,,,,,,,,615df4a8253f3bfee4097f9e,001,2024-06-30_07h25.24.688,empathy_intonation_perc,2024.1.4,Win32,303.030303,53.2204,55.0418,0,1,1.3133,,55.0418,56.0411,0,4,4,4,1,0,joten,0,REAL,FALSA,,,,,,,,,,,,,,,,,
,,,,,,,,,615df4a8253f3bfee4097f9e,001,2024-06-30_07h25.24.688,empathy_intonation_perc,2024.1.4,Win32,303.030303,56.0415,58.5435,0,0,1.9957,,58.5437,59.5445,0,5,5,5,1,0,sacapuntas,1,REAL,FALSA,,,,,,,,,,,,,,,,,
,,,,,,,,,615df4a8253f3bfee4097f9e,001,2024-06-30_07h25.24.688,empathy_intonation_perc,2024.1.4,Win32,303.030303,59.5446,63.0799,0,1,3.0286,,63.0801,64.0794,0,6,6,6,1,0,priba,0,REAL,FALSA,,,,,,,,,,,,,,,,,
,,,,,,,,,615df4a8253f3bfee4097f9e,001,2024-06-30_07h25.24.688,empathy_intonation_perc,2024.1.4,Win32,303.030303,64.0861,67.1168,0,1,2.5222,,67.1168,68.1172,0,7,7,7,1,0,pelasula,0,REAL,FALSA,,,,,,,,,,,,,,,,,
,,,,,,,,,615df4a8253f3bfee4097f9e,001,2024-06-30_07h25.24.688,empathy_intonation_perc,2024.1.4,Win32,303.030303,68.1235,70.256,1,1,1.6237,,70.2561,71.2553,0,8,8,8,1,0,bien,1,REAL,FALSA,,,,,,,,,,,,,,,,,
,,,,,,,,,615df4a8253f3bfee4097f9e,001,2024-06-30_07h25.24.688,empathy_intonation_perc,2024.1.4,Win32,303.030303,71.2557,73.1519,1,1,1.3873,,73.1519,74.1501,0,9,9,9,1,0,casa,1,REAL,FALSA,,,,,,,,,,,,,,,,,
,,,,,,,,,615df4a8253f3bfee4097f9e,001,2024-06-30_07h25.24.688,empathy_intonation_perc,2024.1.4,Win32,303.030303,74.1568,76.1925,1,0,1.527,,76.1926,77.1939,0,10,10,10,1,0,lejo,0,REAL,FALSA,,,,,,,,,,,,,,,,,
,,,,,,,,,615df4a8253f3bfee4097f9e,001,2024-06-30_07h25.24.688,empathy_intonation_perc,2024.1.4,Win32,303.030303,77.1941,79.3332,0,1,1.6294,,79.3334,80.3327,0,11,11,11,1,0,pretantas,0,REAL,FALSA,,,,,,,,,,,,,,,,,
,,,,,,,,,615df4a8253f3bfee4097f9e,001,2024-06-30_07h25.24.688,empathy_intonation_perc,2024.1.4,Win32,303.030303,,,,,,,,,,,,,,,,,,,80.3336,112.4538,,,,,,,,,,,,,,,
,,,,,,,,,615df4a8253f3bfee4097f9e,001,2024-06-30_07h25.24.688,empathy_intonation_perc,2024.1.4,Win32,303.030303,,,,,,,,,,,,,,116,grigir,,,,,,112.4653,132.9252,0,1,19.9483,,0,0,0,115,1,pseudoword,0,REAL,FALSA
,,,,,,,,,615df4a8253f3bfee4097f9e,001,2024-06-30_07h25.24.688,empathy_intonation_perc,2024.1.4,Win32,303.030303,,,,,,,,,,,,,,144,diroco,,,,,,132.9317,135.9019,0,1,2.4622,,0,1,1,143,1,pseudoword,0,REAL,FALSA
,,,,,,,,,615df4a8253f3bfee4097f9e,001,2024-06-30_07h25.24.688,empathy_intonation_perc,2024.1.4,Win32,303.030303,,,,,,,,,,,,,,154,harvé,,,,,,135.9025,159.4076,0,1,22.9967,,0,2,2,153,1,pseudoword,0,REAL,FALSA
,,,,,,,,,615df4a8253f3bfee4097f9e,001,2024-06-30_07h25.24.688,empathy_intonation_perc,2024.1.4,Win32,303.030303,,,,,,,,,,,,,,140,chorde,,,,,,159.414,161.5065,0,1,1.5834,,0,3,3,139,1,pseudoword,0,REAL,FALSA
,,,,,,,,,615df4a8253f3bfee4097f9e,001,2024-06-30_07h25.24.688,empathy_intonation_perc,2024.1.4,Win32,303.030303,,,,,,,,,,,,,,44,editor,,,,,,161.507,163.0885,1,0,1.073,,0,4,4,43,1,two_way_cognate,1,REAL,FALSA
,,,,,,,,,615df4a8253f3bfee4097f9e,001,2024-06-30_07h25.24.688,empathy_intonation_perc,2024.1.4,Win32,303.030303,,,,,,,,,,,,,,56,pico,,,,,,163.0891,164.824,1,0,1.2267,,0,5,5,55,1,non_cognate,1,REAL,FALSA
,,,,,,,,,615df4a8253f3bfee4097f9e,001,2024-06-30_07h25.24.688,empathy_intonation_perc,2024.1.4,Win32,303.030303,,,,,,,,,,,,,,120,mauja,,,,,,164.8247,166.8852,0,1,1.5525,,0,6,6,119,1,pseudoword,0,REAL,FALSA
,,,,,,,,,615df4a8253f3bfee4097f9e,001,2024-06-30_07h25.24.688,empathy_intonation_perc,2024.1.4,Win32,303.030303,,,,,,,,,,,,,,16,chat,,,,,,166.8853,169.2849,0,1,1.8915,,0,7,7,15,1,three_way_cognate,1,REAL,FALSA
,,,,,,,,,615df4a8253f3bfee4097f9e,001,2024-06-30_07h25.24.688,empathy_intonation_perc,2024.1.4,Win32,303.030303,,,,,,,,,,,,,,138,tator,,,,,,169.2856,170.7608,0,1,0.9673,,0,8,8,137,1,pseudoword,0,REAL,FALSA
,,,,,,,,,615df4a8253f3bfee4097f9e,001,2024-06-30_07h25.24.688,empathy_intonation_perc,2024.1.4,Win32,303.030303,,,,,,,,,,,,,,4,flora,,,,,,170.7617,172.4428,1,0,1.1731,,0,9,9,3,1,three_way_cognate,1,REAL,FALSA
,,,,,,,,,615df4a8253f3bfee4097f9e,001,2024-06-30_07h25.24.688,empathy_intonation_perc,2024.1.4,Win32,303.030303,,,,,,,,,,,,,,87,muleta,,,,,,172.4434,174.2148,1,0,1.2633,,0,10,10,86,1,non_cognate,1,REAL,FALSA
,,,,,,,,,615df4a8253f3bfee4097f9e,001,2024-06-30_07h25.24.688,empathy_intonation_perc,2024.1.4,Win32,303.030303,,,,,,,,,,,,,,135,panté,,,,,,174.2155,176.1041,0,1,1.3799,,0,11,11,134,1,pseudoword,0,REAL,FALSA
,,,,,,,,,615df4a8253f3bfee4097f9e,001,2024-06-30_07h25.24.688,empathy_intonation_perc,2024.1.4,Win32,303.030303,,,,,,,,,,,,,,137,trugo,,,,,,176.1047,178.349,0,1,1.736,,0,12,12,136,1,pseudoword,0,REAL,FALSA
,,,,,,,,,615df4a8253f3bfee4097f9e,001,2024-06-30_07h25.24.688,empathy_intonation_perc,2024.1.4,Win32,303.030303,,,,,,,,,,,,,,59,feo,,,,,,178.3497,179.7349,1,0,0.8768,,0,13,13,58,1,non_cognate,1,REAL,FALSA
,,,,,,,,,615df4a8253f3bfee4097f9e,001,2024-06-30_07h25.24.688,empathy_intonation_perc,2024.1.4,Win32,303.030303,,,,,,,,,,,,,,80,cuenco,,,,,,179.7355,190.2888,0,1,10.045,,0,14,14,79,1,non_cognate,1,REAL,FALSA
,,,,,,,,,615df4a8253f3bfee4097f9e,001,2024-06-30_07h25.24.688,empathy_intonation_perc,2024.1.4,Win32,303.030303,,,,,,,,,,,,,,19,mafia,,,,,,190.2955,192.2506,1,0,1.4468,,0,15,15,18,1,three_way_cognate,1,REAL,FALSA
,,,,,,,,,615df4a8253f3bfee4097f9e,001,2024-06-30_07h25.24.688,empathy_intonation_perc,2024.1.4,Win32,303.030303,,,,,,,,,,,,,,187,nomata,,,,,,192.2513,194.133,0,1,1.3734,,0,16,16,186,1,pseudoword,0,REAL,FALSA
,,,,,,,,,615df4a8253f3bfee4097f9e,001,2024-06-30_07h25.24.688,empathy_intonation_perc,2024.1.4,Win32,303.030303,,,,,,,,,,,,,,39,casual,,,,,,194.1336,195.3252,1,0,0.6838,,0,17,17,38,1,two_way_cognate,1,REAL,FALSA
,,,,,,,,,615df4a8253f3bfee4097f9e,001,2024-06-30_07h25.24.688,empathy_intonation_perc,2024.1.4,Win32,303.030303,,,,,,,,,,,,,,13,plan,,,,,,195.3261,197.1846,1,0,1.3499,,0,18,18,12,1,three_way_cognate,1,REAL,FALSA
,,,,,,,,,615df4a8253f3bfee4097f9e,001,2024-06-30_07h25.24.688,empathy_intonation_perc,2024.1.4,Win32,303.030303,,,,,,,,,,,,,,24,retina,,,,,,197.1851,198.5424,1,0,0.8497,,0,19,19,23,1,three_way_cognate,1,REAL,FALSA
,,,,,,,,,615df4a8253f3bfee4097f9e,001,2024-06-30_07h25.24.688,empathy_intonation_perc,2024.1.4,Win32,303.030303,,,,,,,,,,,,,,108,jauda,,,,,,198.5425,200.852,0,1,1.8029,,0,20,20,107,1,pseudoword,0,REAL,FALSA
,,,,,,,,,615df4a8253f3bfee4097f9e,001,2024-06-30_07h25.24.688,empathy_intonation_perc,2024.1.4,Win32,303.030303,,,,,,,,,,,,,,183,edioso,,,,,,200.8527,202.7221,0,1,1.3609,,0,21,21,182,1,pseudoword,0,REAL,FALSA
,,,,,,,,,615df4a8253f3bfee4097f9e,001,2024-06-30_07h25.24.688,empathy_intonation_perc,2024.1.4,Win32,303.030303,,,,,,,,,,,,,,2,tumor,,,,,,202.7223,204.0667,1,0,0.8369,,0,22,22,1,1,three_way_cognate,1,REAL,FALSA
,,,,,,,,,615df4a8253f3bfee4097f9e,001,2024-06-30_07h25.24.688,empathy_intonation_perc,2024.1.4,Win32,303.030303,,,,,,,,,,,,,,163,olzan,,,,,,204.0673,205.3258,0,1,0.75,,0,23,23,162,1,pseudoword,0,REAL,FALSA
,,,,,,,,,615df4a8253f3bfee4097f9e,001,2024-06-30_07h25.24.688,empathy_intonation_perc,2024.1.4,Win32,303.030303,,,,,,,,,,,,,,174,pabea,,,,,,205.3264,206.5487,0,1,0.7134,,0,24,24,173,1,pseudoword,0,REAL,FALSA
,,,,,,,,,615df4a8253f3bfee4097f9e,001,2024-06-30_07h25.24.688,empathy_intonation_perc,2024.1.4,Win32,303.030303,,,,,,,,,,,,,,185,aljizo,,,,,,206.5493,208.7969,0,1,1.7397,,0,25,25,184,1,pseudoword,0,REAL,FALSA
,,,,,,,,,615df4a8253f3bfee4097f9e,001,2024-06-30_07h25.24.688,empathy_intonation_perc,2024.1.4,Win32,303.030303,,,,,,,,,,,,,,130,dubo,,,,,,208.7976,210.0797,0,1,0.7738,,0,26,26,129,1,pseudoword,0,REAL,FALSA
,,,,,,,,,615df4a8253f3bfee4097f9e,001,2024-06-30_07h25.24.688,empathy_intonation_perc,2024.1.4,Win32,303.030303,,,,,,,,,,,,,,118,bará,,,,,,210.0802,212.1853,0,1,1.597,,0,27,27,117,1,pseudoword,0,REAL,FALSA
,,,,,,,,,615df4a8253f3bfee4097f9e,001,2024-06-30_07h25.24.688,empathy_intonation_perc,2024.1.4,Win32,303.030303,,,,,,,,,,,,,,157,seled,,,,,,212.186,213.5539,0,1,0.8602,,0,28,28,156,1,pseudoword,0,REAL,FALSA
,,,,,,,,,615df4a8253f3bfee4097f9e,001,2024-06-30_07h25.24.688,empathy_intonation_perc,2024.1.4,Win32,303.030303,,,,,,,,,,,,,,100,épinas,,,,,,213.5545,215.5929,1,0,1.5292,,0,29,29,99,1,pseudoword,0,REAL,FALSA
,,,,,,,,,615df4a8253f3bfee4097f9e,001,2024-06-30_07h25.24.688,empathy_intonation_perc,2024.1.4,Win32,303.030303,,,,,,,,,,,,,,182,desaro,,,,,,215.5934,217.7715,0,1,1.6696,,0,30,30,181,1,pseudoword,0,REAL,FALSA
,,,,,,,,,615df4a8253f3bfee4097f9e,001,2024-06-30_07h25.24.688,empathy_intonation_perc,2024.1.4,Win32,303.030303,,,,,,,,,,,,,,41,pasta,,,,,,217.772,219.1176,1,0,0.8369,,0,31,31,40,1,two_way_cognate,1,REAL,FALSA
,,,,,,,,,615df4a8253f3bfee4097f9e,001,2024-06-30_07h25.24.688,empathy_intonation_perc,2024.1.4,Win32,303.030303,,,,,,,,,,,,,,191,frasis,,,,,,219.1183,220.4636,0,1,0.8376,,0,32,32,190,1,pseudoword,0,REAL,FALSA
,,,,,,,,,615df4a8253f3bfee4097f9e,001,2024-06-30_07h25.24.688,empathy_intonation_perc,2024.1.4,Win32,303.030303,,,,,,,,,,,,,,38,halo,,,,,,220.4642,222.0447,1,0,1.0732,,0,33,33,37,1,two_way_cognate,1,REAL,FALSA
,,,,,,,,,615df4a8253f3bfee4097f9e,001,2024-06-30_07h25.24.688,empathy_intonation_perc,2024.1.4,Win32,303.030303,,,,,,,,,,,,,,181,gravés,,,,,,222.045,224.5275,1,0,1.9761,,0,34,34,180,1,pseudoword,0,REAL,FALSA
,,,,,,,,,615df4a8253f3bfee4097f9e,001,2024-06-30_07h25.24.688,empathy_intonation_perc,2024.1.4,Win32,303.030303,,,,,,,,,,,,,,117,morrá,,,,,,224.5338,225.9966,1,0,0.9533,,0,35,35,116,1,pseudoword,0,REAL,FALSA
,,,,,,,,,615df4a8253f3bfee4097f9e,001,2024-06-30_07h25.24.688,empathy_intonation_perc,2024.1.4,Win32,303.030303,,,,,,,,,,,,,,143,hurcos,,,,,,225.9973,227.2189,0,1,0.7135,,0,36,36,142,1,pseudoword,0,REAL,FALSA
,,,,,,,,,615df4a8253f3bfee4097f9e,001,2024-06-30_07h25.24.688,empathy_intonation_perc,2024.1.4,Win32,303.030303,,,,,,,,,,,,,,31,civil,,,,,,227.2196,228.3849,1,0,0.6569,,0,37,37,30,1,two_way_cognate,1,REAL,FALSA
,,,,,,,,,615df4a8253f3bfee4097f9e,001,2024-06-30_07h25.24.688,empathy_intonation_perc,2024.1.4,Win32,303.030303,,,,,,,,,,,,,,30,fiscal,,,,,,228.3855,230.4737,1,0,1.5797,,0,38,38,29,1,two_way_cognate,1,REAL,FALSA
,,,,,,,,,615df4a8253f3bfee4097f9e,001,2024-06-30_07h25.24.688,empathy_intonation_perc,2024.1.4,Win32,303.030303,,,,,,,,,,,,,,82,brillo,,,,,,230.4744,232.1593,0,1,1.1767,,0,39,39,81,1,non_cognate,1,REAL,FALSA
,,,,,,,,,615df4a8253f3bfee4097f9e,001,2024-06-30_07h25.24.688,empathy_intonation_perc,2024.1.4,Win32,303.030303,,,,,,,,,,,,,,95,listo,,,,,,232.16,233.3154,1,0,0.6471,,0,40,40,94,1,non_cognate,1,REAL,FALSA
,,,,,,,,,615df4a8253f3bfee4097f9e,001,2024-06-30_07h25.24.688,empathy_intonation_perc,2024.1.4,Win32,303.030303,,,,,,,,,,,,,,49,teñir,,,,,,233.3159,235.4905,1,0,1.6664,,0,41,41,48,1,non_cognate,1,REAL,FALSA
,,,,,,,,,615df4a8253f3bfee4097f9e,001,2024-06-30_07h25.24.688,empathy_intonation_perc,2024.1.4,Win32,303.030303,,,,,,,,,,,,,,64,rizado,,,,,,235.4912,237.4229,0,1,1.4229,,0,42,42,63,1,non_cognate,1,REAL,FALSA
,,,,,,,,,615df4a8253f3bfee4097f9e,001,2024-06-30_07h25.24.688,empathy_intonation_perc,2024.1.4,Win32,303.030303,,,,,,,,,,,,,,126,tobre,,,,,,237.4236,239.0616,1,0,1.13,,0,43,43,125,1,pseudoword,0,REAL,FALSA
,,,,,,,,,615df4a8253f3bfee4097f9e,001,2024-06-30_07h25.24.688,empathy_intonation_perc,2024.1.4,Win32,303.030303,,,,,,,,,,,,,,132,nocó,,,,,,239.0622,240.5303,0,1,0.9602,,0,44,44,131,1,pseudoword,0,REAL,FALSA
,,,,,,,,,615df4a8253f3bfee4097f9e,001,2024-06-30_07h25.24.688,empathy_intonation_perc,2024.1.4,Win32,303.030303,,,,,,,,,,,,,,161,civas,,,,,,240.5304,242.8694,0,1,1.8293,,0,45,45,160,1,pseudoword,0,REAL,FALSA
,,,,,,,,,615df4a8253f3bfee4097f9e,001,2024-06-30_07h25.24.688,empathy_intonation_perc,2024.1.4,Win32,303.030303,,,,,,,,,,,,,,172,dogue,,,,,,242.8702,244.2152,0,1,0.837,,0,46,46,171,1,pseudoword,0,REAL,FALSA
,,,,,,,,,615df4a8253f3bfee4097f9e,001,2024-06-30_07h25.24.688,empathy_intonation_perc,2024.1.4,Win32,303.030303,,,,,,,,,,,,,,146,gió,,,,,,244.2157,249.5289,0,1,4.8046,,0,47,47,145,1,pseudoword,0,REAL,FALSA
,,,,,,,,,615df4a8253f3bfee4097f9e,001,2024-06-30_07h25.24.688,empathy_intonation_perc,2024.1.4,Win32,303.030303,,,,,,,,,,,,,,47,color,,,,,,249.5352,250.8011,1,0,0.7591,,0,48,48,46,1,two_way_cognate,1,REAL,FALSA
,,,,,,,,,615df4a8253f3bfee4097f9e,001,2024-06-30_07h25.24.688,empathy_intonation_perc,2024.1.4,Win32,303.030303,,,,,,,,,,,,,,74,ala,,,,,,250.8017,251.9204,1,0,0.6104,,0,49,49,73,1,non_cognate,1,REAL,FALSA
,,,,,,,,,615df4a8253f3bfee4097f9e,001,2024-06-30_07h25.24.688,empathy_intonation_perc,2024.1.4,Win32,303.030303,,,,,,,,,,,,,,46,mortal,,,,,,251.921,253.5489,1,0,1.12,,0,50,50,45,1,two_way_cognate,1,REAL,FALSA
,,,,,,,,,615df4a8253f3bfee4097f9e,001,2024-06-30_07h25.24.688,empathy_intonation_perc,2024.1.4,Win32,303.030303,,,,,,,,,,,,,,145,rúo,,,,,,253.5495,255.355,0,1,1.2964,,0,51,51,144,1,pseudoword,0,REAL,FALSA
,,,,,,,,,615df4a8253f3bfee4097f9e,001,2024-06-30_07h25.24.688,empathy_intonation_perc,2024.1.4,Win32,303.030303,,,,,,,,,,,,,,110,densó,,,,,,255.3555,257.3338,0,1,1.47,,0,52,52,109,1,pseudoword,0,REAL,FALSA
,,,,,,,,,615df4a8253f3bfee4097f9e,001,2024-06-30_07h25.24.688,empathy_intonation_perc,2024.1.4,Win32,303.030303,,,,,,,,,,,,,,164,tecia,,,,,,257.3344,258.9461,0,1,1.1033,,0,53,53,163,1,pseudoword,0,REAL,FALSA
,,,,,,,,,615df4a8253f3bfee4097f9e,001,2024-06-30_07h25.24.688,empathy_intonation_perc,2024.1.4,Win32,303.030303,,,,,,,,,,,,,,169,pitis,,,,,,258.9466,260.0254,0,1,0.5704,,0,54,54,168,1,pseudoword,0,REAL,FALSA
,,,,,,,,,615df4a8253f3bfee4097f9e,001,2024-06-30_07h25.24.688,empathy_intonation_perc,2024.1.4,Win32,303.030303,,,,,,,,,,,,,,92,flecha,,,,,,260.0259,261.1847,0,1,0.6504,,0,55,55,91,1,non_cognate,1,REAL,FALSA
,,,,,,,,,615df4a8253f3bfee4097f9e,001,2024-06-30_07h25.24.688,empathy_intonation_perc,2024.1.4,Win32,303.030303,,,,,,,,,,,,,,127,vien,,,,,,261.1851,262.5439,1,0,0.8502,,0,56,56,126,1,pseudoword,0,REAL,FALSA
,,,,,,,,,615df4a8253f3bfee4097f9e,001,2024-06-30_07h25.24.688,empathy_intonation_perc,2024.1.4,Win32,303.030303,,,,,,,,,,,,,,7,albino,,,,,,262.5444,265.3215,1,0,2.2691,,0,57,57,6,1,three_way_cognate,1,REAL,FALSA
,,,,,,,,,615df4a8253f3bfee4097f9e,001,2024-06-30_07h25.24.688,empathy_intonation_perc,2024.1.4,Win32,303.030303,,,,,,,,,,,,,,180,pupica,,,,,,265.3216,267.6675,0,1,1.8397,,0,58,58,179,1,pseudoword,0,REAL,FALSA
,,,,,,,,,615df4a8253f3bfee4097f9e,001,2024-06-30_07h25.24.688,empathy_intonation_perc,2024.1.4,Win32,303.030303,,,,,,,,,,,,,,112,samón,,,,,,267.6683,269.603,0,1,1.4264,,0,59,59,111,1,pseudoword,0,REAL,FALSA
,,,,,,,,,615df4a8253f3bfee4097f9e,001,2024-06-30_07h25.24.688,empathy_intonation_perc,2024.1.4,Win32,303.030303,,,,,,,,,,,,,,63,hilo,,,,,,269.6035,271.0413,1,0,0.9295,,0,60,60,62,1,non_cognate,1,REAL,FALSA
,,,,,,,,,615df4a8253f3bfee4097f9e,001,2024-06-30_07h25.24.688,empathy_intonation_perc,2024.1.4,Win32,303.030303,,,,,,,,,,,,,,106,diebro,,,,,,271.0414,272.3012,0,1,0.7537,,0,61,61,105,1,pseudoword,0,REAL,FALSA
,,,,,,,,,615df4a8253f3bfee4097f9e,001,2024-06-30_07h25.24.688,empathy_intonation_perc,2024.1.4,Win32,303.030303,,,,,,,,,,,,,,150,cricó,,,,,,272.3018,273.4472,0,1,0.6369,,0,62,62,149,1,pseudoword,0,REAL,FALSA
,,,,,,,,,615df4a8253f3bfee4097f9e,001,2024-06-30_07h25.24.688,empathy_intonation_perc,2024.1.4,Win32,303.030303,,,,,,,,,,,,,,114,dibrea,,,,,,273.4478,274.8405,0,1,0.8842,,0,63,63,113,1,pseudoword,0,REAL,FALSA
,,,,,,,,,615df4a8253f3bfee4097f9e,001,2024-06-30_07h25.24.688,empathy_intonation_perc,2024.1.4,Win32,303.030303,,,,,,,,,,,,,,61,aduana,,,,,,274.841,276.3123,0,1,0.9633,,0,64,64,60,1,non_cognate,1,REAL,FALSA
,,,,,,,,,615df4a8253f3bfee4097f9e,001,2024-06-30_07h25.24.688,empathy_intonation_perc,2024.1.4,Win32,303.030303,,,,,,,,,,,,,,10,drama,,,,,,276.3129,278.1277,1,0,1.3067,,0,65,65,9,1,three_way_cognate,1,REAL,FALSA
,,,,,,,,,615df4a8253f3bfee4097f9e,001,2024-06-30_07h25.24.688,empathy_intonation_perc,2024.1.4,Win32,303.030303,,,,,,,,,,,,,,43,honor,,,,,,278.1285,279.6566,1,0,1.0201,,0,66,66,42,1,two_way_cognate,1,REAL,FALSA
,,,,,,,,,615df4a8253f3bfee4097f9e,001,2024-06-30_07h25.24.688,empathy_intonation_perc,2024.1.4,Win32,303.030303,,,,,,,,,,,,,,101,losco,,,,,,279.6572,281.379,0,1,1.2131,,0,67,67,100,1,pseudoword,0,REAL,FALSA
,,,,,,,,,615df4a8253f3bfee4097f9e,001,2024-06-30_07h25.24.688,empathy_intonation_perc,2024.1.4,Win32,303.030303,,,,,,,,,,,,,,184,huenos,,,,,,281.3798,282.8748,1,0,0.987,,0,68,68,183,1,pseudoword,0,REAL,FALSA
,,,,,,,,,615df4a8253f3bfee4097f9e,001,2024-06-30_07h25.24.688,empathy_intonation_perc,2024.1.4,Win32,303.030303,,,,,,,,,,,,,,32,animal,,,,,,282.8754,283.9541,1,0,0.5703,,0,69,69,31,1,two_way_cognate,1,REAL,FALSA
,,,,,,,,,615df4a8253f3bfee4097f9e,001,2024-06-30_07h25.24.688,empathy_intonation_perc,2024.1.4,Win32,303.030303,,,,,,,,,,,,,,107,plago,,,,,,283.9546,285.3066,0,1,0.8435,,0,70,70,106,1,pseudoword,0,REAL,FALSA
,,,,,,,,,615df4a8253f3bfee4097f9e,001,2024-06-30_07h25.24.688,empathy_intonation_perc,2024.1.4,Win32,303.030303,,,,,,,,,,,,,,5,extra,,,,,,285.3071,286.8757,0,1,1.0602,,0,71,71,4,1,three_way_cognate,1,REAL,FALSA
,,,,,,,,,615df4a8253f3bfee4097f9e,001,2024-06-30_07h25.24.688,empathy_intonation_perc,2024.1.4,Win32,303.030303,,,,,,,,,,,,,,69,tiza,,,,,,286.8762,288.1182,0,1,0.7337,,0,72,72,68,1,non_cognate,1,REAL,FALSA
,,,,,,,,,615df4a8253f3bfee4097f9e,001,2024-06-30_07h25.24.688,empathy_intonation_perc,2024.1.4,Win32,303.030303,,,,,,,,,,,,,,23,plural,,,,,,288.1188,289.7205,0,1,1.0933,,0,73,73,22,1,three_way_cognate,1,REAL,FALSA
,,,,,,,,,615df4a8253f3bfee4097f9e,001,2024-06-30_07h25.24.688,empathy_intonation_perc,2024.1.4,Win32,303.030303,,,,,,,,,,,,,,147,alla,,,,,,289.7211,291.9025,0,1,1.6729,,0,74,74,146,1,pseudoword,0,REAL,FALSA
,,,,,,,,,615df4a8253f3bfee4097f9e,001,2024-06-30_07h25.24.688,empathy_intonation_perc,2024.1.4,Win32,303.030303,,,,,,,,,,,,,,94,forro,,,,,,291.9031,293.0619,0,1,0.6505,,0,75,75,93,1,non_cognate,1,REAL,FALSA
,,,,,,,,,615df4a8253f3bfee4097f9e,001,2024-06-30_07h25.24.688,empathy_intonation_perc,2024.1.4,Win32,303.030303,,,,,,,,,,,,,,28,ardor,,,,,,293.0624,294.3011,0,1,0.7306,,0,76,76,27,1,two_way_cognate,1,REAL,FALSA
,,,,,,,,,615df4a8253f3bfee4097f9e,001,2024-06-30_07h25.24.688,empathy_intonation_perc,2024.1.4,Win32,303.030303,,,,,,,,,,,,,,26,enigma,,,,,,294.3017,297.226,0,1,2.4159,,0,77,77,25,1,two_way_cognate,1,REAL,FALSA
,,,,,,,,,615df4a8253f3bfee4097f9e,001,2024-06-30_07h25.24.688,empathy_intonation_perc,2024.1.4,Win32,303.030303,,,,,,,,,,,,,,173,mibro,,,,,,297.232,298.3851,0,1,0.647,,0,78,78,172,1,pseudoword,0,REAL,FALSA
,,,,,,,,,615df4a8253f3bfee4097f9e,001,2024-06-30_07h25.24.688,empathy_intonation_perc,2024.1.4,Win32,303.030303,,,,,,,,,,,,,,58,colcha,,,,,,298.3856,300.2375,0,1,1.3427,,0,79,79,57,1,non_cognate,1,REAL,FALSA
,,,,,,,,,615df4a8253f3bfee4097f9e,001,2024-06-30_07h25.24.688,empathy_intonation_perc,2024.1.4,Win32,303.030303,,,,,,,,,,,,,,62,pegar,,,,,,300.2382,315.7814,0,1,15.0351,,0,80,80,61,1,non_cognate,1,REAL,FALSA
,,,,,,,,,615df4a8253f3bfee4097f9e,001,2024-06-30_07h25.24.688,empathy_intonation_perc,2024.1.4,Win32,303.030303,,,,,,,,,,,,,,190,asumie,,,,,,315.7886,317.3337,0,1,1.0372,,0,81,81,189,1,pseudoword,0,REAL,FALSA
,,,,,,,,,615df4a8253f3bfee4097f9e,001,2024-06-30_07h25.24.688,empathy_intonation_perc,2024.1.4,Win32,303.030303,,,,,,,,,,,,,,93,tapa,,,,,,317.3345,318.9094,1,0,1.0669,,0,82,82,92,1,non_cognate,1,REAL,FALSA
,,,,,,,,,615df4a8253f3bfee4097f9e,001,2024-06-30_07h25.24.688,empathy_intonation_perc,2024.1.4,Win32,303.030303,,,,,,,,,,,,,,8,kilo,,,,,,318.9099,320.6849,1,0,1.2668,,0,83,83,7,1,three_way_cognate,1,REAL,FALSA
,,,,,,,,,615df4a8253f3bfee4097f9e,001,2024-06-30_07h25.24.688,empathy_intonation_perc,2024.1.4,Win32,303.030303,,,,,,,,,,,,,,99,bugor,,,,,,320.6854,321.9274,0,1,0.7334,,0,84,84,98,1,pseudoword,0,REAL,FALSA
,,,,,,,,,615df4a8253f3bfee4097f9e,001,2024-06-30_07h25.24.688,empathy_intonation_perc,2024.1.4,Win32,303.030303,,,,,,,,,,,,,,89,muñeca,,,,,,321.9279,323.2134,1,0,0.777,,0,85,85,88,1,non_cognate,1,REAL,FALSA
,,,,,,,,,615df4a8253f3bfee4097f9e,001,2024-06-30_07h25.24.688,empathy_intonation_perc,2024.1.4,Win32,303.030303,,,,,,,,,,,,,,152,prave,,,,,,323.2141,324.7958,0,1,1.0733,,0,86,86,151,1,pseudoword,0,REAL,FALSA
,,,,,,,,,615df4a8253f3bfee4097f9e,001,2024-06-30_07h25.24.688,empathy_intonation_perc,2024.1.4,Win32,303.030303,,,,,,,,,,,,,,29,clamor,,,,,,324.7964,326.8338,0,1,1.5297,,0,87,87,28,1,two_way_cognate,1,REAL,FALSA
,,,,,,,,,615df4a8253f3bfee4097f9e,001,2024-06-30_07h25.24.688,empathy_intonation_perc,2024.1.4,Win32,303.030303,,,,,,,,,,,,,,178,inichó,,,,,,326.834,328.6367,0,1,1.2932,,0,88,88,177,1,pseudoword,0,REAL,FALSA
,,,,,,,,,615df4a8253f3bfee4097f9e,001,2024-06-30_07h25.24.688,empathy_intonation_perc,2024.1.4,Win32,303.030303,,,,,,,,,,,,,,153,golla,,,,,,328.6373,329.7991,0,1,0.6535,,0,89,89,152,1,pseudoword,0,REAL,FALSA
,,,,,,,,,615df4a8253f3bfee4097f9e,001,2024-06-30_07h25.24.688,empathy_intonation_perc,2024.1.4,Win32,303.030303,,,,,,,,,,,,,,104,estulo,,,,,,329.7997,332.1313,0,1,1.8231,,0,90,90,103,1,pseudoword,0,REAL,FALSA
,,,,,,,,,615df4a8253f3bfee4097f9e,001,2024-06-30_07h25.24.688,empathy_intonation_perc,2024.1.4,Win32,303.030303,,,,,,,,,,,,,,122,boñaz,,,,,,332.1389,333.9601,0,1,1.3133,,0,91,91,121,1,pseudoword,0,REAL,FALSA
,,,,,,,,,615df4a8253f3bfee4097f9e,001,2024-06-30_07h25.24.688,empathy_intonation_perc,2024.1.4,Win32,303.030303,,,,,,,,,,,,,,17,clan,,,,,,333.9607,336.6417,0,1,2.1727,,0,92,92,16,1,three_way_cognate,1,REAL,FALSA
,,,,,,,,,615df4a8253f3bfee4097f9e,001,2024-06-30_07h25.24.688,empathy_intonation_perc,2024.1.4,Win32,303.030303,,,,,,,,,,,,,,134,molor,,,,,,336.6425,338.6072,0,1,1.4565,,0,93,93,133,1,pseudoword,0,REAL,FALSA
,,,,,,,,,615df4a8253f3bfee4097f9e,001,2024-06-30_07h25.24.688,empathy_intonation_perc,2024.1.4,Win32,303.030303,,,,,,,,,,,,,,171,gotro,,,,,,338.6079,339.7365,0,1,0.6204,,0,94,94,170,1,pseudoword,0,REAL,FALSA
,,,,,,,,,615df4a8253f3bfee4097f9e,001,2024-06-30_07h25.24.688,empathy_intonation_perc,2024.1.4,Win32,303.030303,,,,,,,,,,,,,,52,blando,,,,,,339.7373,341.1623,0,1,0.9167,,0,95,95,51,1,non_cognate,1,REAL,FALSA
,,,,,,,,,615df4a8253f3bfee4097f9e,001,2024-06-30_07h25.24.688,empathy_intonation_perc,2024.1.4,Win32,303.030303,,,,,,,,,,,,,,166,anfia,,,,,,341.163,342.9079,0,1,1.2365,,0,96,96,165,1,pseudoword,0,REAL,FALSA
,,,,,,,,,615df4a8253f3bfee4097f9e,001,2024-06-30_07h25.24.688,empathy_intonation_perc,2024.1.4,Win32,303.030303,,,,,,,,,,,,,,168,cobén,,,,,,342.9085,344.4835,0,1,1.0669,,0,97,97,167,1,pseudoword,0,REAL,FALSA
,,,,,,,,,615df4a8253f3bfee4097f9e,001,2024-06-30_07h25.24.688,empathy_intonation_perc,2024.1.4,Win32,303.030303,,,,,,,,,,,,,,18,altar,,,,,,344.4843,345.9048,1,0,0.9129,,0,98,98,17,1,three_way_cognate,1,REAL,FALSA
,,,,,,,,,615df4a8253f3bfee4097f9e,001,2024-06-30_07h25.24.688,empathy_intonation_perc,2024.1.4,Win32,303.030303,,,,,,,,,,,,,,151,prías,,,,,,345.905,346.9322,0,1,0.5203,,0,99,99,150,1,pseudoword,0,REAL,FALSA
,,,,,,,,,615df4a8253f3bfee4097f9e,001,2024-06-30_07h25.24.688,empathy_intonation_perc,2024.1.4,Win32,303.030303,,,,,,,,,,,,,,96,caro,,,,,,346.9328,348.028,0,1,0.5872,,0,100,100,95,1,non_cognate,1,REAL,FALSA
,,,,,,,,,615df4a8253f3bfee4097f9e,001,2024-06-30_07h25.24.688,empathy_intonation_perc,2024.1.4,Win32,303.030303,,,,,,,,,,,,,,33,collar,,,,,,348.0287,349.8537,0,1,1.3168,,0,101,101,32,1,two_way_cognate,1,REAL,FALSA
,,,,,,,,,615df4a8253f3bfee4097f9e,001,2024-06-30_07h25.24.688,empathy_intonation_perc,2024.1.4,Win32,303.030303,,,,,,,,,,,,,,175,tradía,,,,,,349.8543,352.1821,0,1,1.8198,,0,102,102,174,1,pseudoword,0,REAL,FALSA
,,,,,,,,,615df4a8253f3bfee4097f9e,001,2024-06-30_07h25.24.688,empathy_intonation_perc,2024.1.4,Win32,303.030303,,,,,,,,,,,,,,55,maldad,,,,,,352.1828,354.7665,0,1,2.076,,0,103,103,54,1,non_cognate,1,REAL,FALSA
,,,,,,,,,615df4a8253f3bfee4097f9e,001,2024-06-30_07h25.24.688,empathy_intonation_perc,2024.1.4,Win32,303.030303,,,,,,,,,,,,,,22,mango,,,,,,354.7667,356.263,1,0,0.99,,0,104,104,21,1,three_way_cognate,1,REAL,FALSA
,,,,,,,,,615df4a8253f3bfee4097f9e,001,2024-06-30_07h25.24.688,empathy_intonation_perc,2024.1.4,Win32,303.030303,,,,,,,,,,,,,,11,golf,,,,,,356.2635,357.5977,0,1,0.8264,,0,105,105,10,1,three_way_cognate,1,REAL,FALSA
,,,,,,,,,615df4a8253f3bfee4097f9e,001,2024-06-30_07h25.24.688,empathy_intonation_perc,2024.1.4,Win32,303.030303,,,,,,,,,,,,,,141,virios,,,,,,357.598,359.1611,0,1,1.0566,,0,106,106,140,1,pseudoword,0,REAL,FALSA
,,,,,,,,,615df4a8253f3bfee4097f9e,001,2024-06-30_07h25.24.688,empathy_intonation_perc,2024.1.4,Win32,303.030303,,,,,,,,,,,,,,40,pelvis,,,,,,359.1617,360.7602,0,1,1.0902,,0,107,107,39,1,two_way_cognate,1,REAL,FALSA
,,,,,,,,,615df4a8253f3bfee4097f9e,001,2024-06-30_07h25.24.688,empathy_intonation_perc,2024.1.4,Win32,303.030303,,,,,,,,,,,,,,188,amplir,,,,,,360.7609,362.0627,0,1,0.7936,,0,108,108,187,1,pseudoword,0,REAL,FALSA
,,,,,,,,,615df4a8253f3bfee4097f9e,001,2024-06-30_07h25.24.688,empathy_intonation_perc,2024.1.4,Win32,303.030303,,,,,,,,,,,,,,20,trauma,,,,,,362.0633,363.5952,1,0,1.0234,,0,109,109,19,1,three_way_cognate,1,REAL,FALSA
,,,,,,,,,615df4a8253f3bfee4097f9e,001,2024-06-30_07h25.24.688,empathy_intonation_perc,2024.1.4,Win32,303.030303,,,,,,,,,,,,,,158,babrá,,,,,,363.5957,364.7912,0,1,0.687,,0,110,110,157,1,pseudoword,0,REAL,FALSA
,,,,,,,,,615df4a8253f3bfee4097f9e,001,2024-06-30_07h25.24.688,empathy_intonation_perc,2024.1.4,Win32,303.030303,,,,,,,,,,,,,,103,vueras,,,,,,364.7917,365.9437,0,1,0.6433,,0,111,111,102,1,pseudoword,0,REAL,FALSA
,,,,,,,,,615df4a8253f3bfee4097f9e,001,2024-06-30_07h25.24.688,empathy_intonation_perc,2024.1.4,Win32,303.030303,,,,,,,,,,,,,,65,guerra,,,,,,365.9444,367.0564,0,1,0.6034,,0,112,112,64,1,non_cognate,1,REAL,FALSA
,,,,,,,,,615df4a8253f3bfee4097f9e,001,2024-06-30_07h25.24.688,empathy_intonation_perc,2024.1.4,Win32,303.030303,,,,,,,,,,,,,,85,enorme,,,,,,367.0571,368.4856,0,1,0.9203,,0,113,113,84,1,non_cognate,1,REAL,FALSA
,,,,,,,,,615df4a8253f3bfee4097f9e,001,2024-06-30_07h25.24.688,empathy_intonation_perc,2024.1.4,Win32,303.030303,,,,,,,,,,,,,,75,patada,,,,,,368.4864,370.1866,1,0,1.1928,,0,114,114,74,1,non_cognate,1,REAL,FALSA
,,,,,,,,,615df4a8253f3bfee4097f9e,001,2024-06-30_07h25.24.688,empathy_intonation_perc,2024.1.4,Win32,303.030303,,,,,,,,,,,,,,66,aleta,,,,,,370.1867,371.3704,0,1,0.6771,,0,115,115,65,1,non_cognate,1,REAL,FALSA
,,,,,,,,,615df4a8253f3bfee4097f9e,001,2024-06-30_07h25.24.688,empathy_intonation_perc,2024.1.4,Win32,303.030303,,,,,,,,,,,,,,83,hálito,,,,,,371.3712,372.4297,0,1,0.5504,,0,116,116,82,1,non_cognate,1,REAL,FALSA
,,,,,,,,,615df4a8253f3bfee4097f9e,001,2024-06-30_07h25.24.688,empathy_intonation_perc,2024.1.4,Win32,303.030303,,,,,,,,,,,,,,15,test,,,,,,372.4303,373.5225,0,1,0.5837,,0,117,117,14,1,three_way_cognate,1,REAL,FALSA
,,,,,,,,,615df4a8253f3bfee4097f9e,001,2024-06-30_07h25.24.688,empathy_intonation_perc,2024.1.4,Win32,303.030303,,,,,,,,,,,,,,136,hueas,,,,,,373.523,374.6116,0,1,0.5805,,0,118,118,135,1,pseudoword,0,REAL,FALSA
,,,,,,,,,615df4a8253f3bfee4097f9e,001,2024-06-30_07h25.24.688,empathy_intonation_perc,2024.1.4,Win32,303.030303,,,,,,,,,,,,,,79,suelo,,,,,,374.6122,375.6177,0,1,0.4973,,0,119,119,78,1,non_cognate,1,REAL,FALSA
,,,,,,,,,615df4a8253f3bfee4097f9e,001,2024-06-30_07h25.24.688,empathy_intonation_perc,2024.1.4,Win32,303.030303,,,,,,,,,,,,,,35,aurora,,,,,,375.6183,378.1135,0,1,1.9869,,0,120,120,34,1,two_way_cognate,1,REAL,FALSA
,,,,,,,,,615df4a8253f3bfee4097f9e,001,2024-06-30_07h25.24.688,empathy_intonation_perc,2024.1.4,Win32,303.030303,,,,,,,,,,,,,,129,vinzó,,,,,,378.1204,379.4787,0,1,0.8499,,0,121,121,128,1,pseudoword,0,REAL,FALSA
,,,,,,,,,615df4a8253f3bfee4097f9e,001,2024-06-30_07h25.24.688,empathy_intonation_perc,2024.1.4,Win32,303.030303,,,,,,,,,,,,,,91,equipo,,,,,,379.4795,380.8708,1,0,0.8836,,0,122,122,90,1,non_cognate,1,REAL,FALSA
,,,,,,,,,615df4a8253f3bfee4097f9e,001,2024-06-30_07h25.24.688,empathy_intonation_perc,2024.1.4,Win32,303.030303,,,,,,,,,,,,,,105,leniz,,,,,,380.8714,382.0706,0,1,0.6901,,0,123,123,104,1,pseudoword,0,REAL,FALSA
,,,,,,,,,615df4a8253f3bfee4097f9e,001,2024-06-30_07h25.24.688,empathy_intonation_perc,2024.1.4,Win32,303.030303,,,,,,,,,,,,,,131,fuar,,,,,,382.0713,383.4833,0,1,0.9036,,0,124,124,130,1,pseudoword,0,REAL,FALSA
,,,,,,,,,615df4a8253f3bfee4097f9e,001,2024-06-30_07h25.24.688,empathy_intonation_perc,2024.1.4,Win32,303.030303,,,,,,,,,,,,,,125,ceme,,,,,,383.484,384.6623,0,1,0.6702,,0,125,125,124,1,pseudoword,0,REAL,FALSA
,,,,,,,,,615df4a8253f3bfee4097f9e,001,2024-06-30_07h25.24.688,empathy_intonation_perc,2024.1.4,Win32,303.030303,,,,,,,,,,,,,,67,llamar,,,,,,384.663,385.8715,1,0,0.7003,,0,126,126,66,1,non_cognate,1,REAL,FALSA
,,,,,,,,,615df4a8253f3bfee4097f9e,001,2024-06-30_07h25.24.688,empathy_intonation_perc,2024.1.4,Win32,303.030303,,,,,,,,,,,,,,156,ozoso,,,,,,385.8722,386.9507,0,1,0.5706,,0,127,127,155,1,pseudoword,0,REAL,FALSA
,,,,,,,,,615df4a8253f3bfee4097f9e,001,2024-06-30_07h25.24.688,empathy_intonation_perc,2024.1.4,Win32,303.030303,,,,,,,,,,,,,,133,conso,,,,,,386.9513,388.1834,0,1,0.7237,,0,128,128,132,1,pseudoword,0,REAL,FALSA
,,,,,,,,,615df4a8253f3bfee4097f9e,001,2024-06-30_07h25.24.688,empathy_intonation_perc,2024.1.4,Win32,303.030303,,,,,,,,,,,,,,88,percha,,,,,,388.1842,389.4859,0,1,0.7936,,0,129,129,87,1,non_cognate,1,REAL,FALSA
,,,,,,,,,615df4a8253f3bfee4097f9e,001,2024-06-30_07h25.24.688,empathy_intonation_perc,2024.1.4,Win32,303.030303,,,,,,,,,,,,,,98,martir,,,,,,389.4865,391.4014,0,1,1.4065,,0,130,130,97,1,pseudoword,0,REAL,FALSA
,,,,,,,,,615df4a8253f3bfee4097f9e,001,2024-06-30_07h25.24.688,empathy_intonation_perc,2024.1.4,Win32,303.030303,,,,,,,,,,,,,,34,actor,,,,,,391.402,393.6866,1,0,1.7763,,0,131,131,33,1,two_way_cognate,1,REAL,FALSA
,,,,,,,,,615df4a8253f3bfee4097f9e,001,2024-06-30_07h25.24.688,empathy_intonation_perc,2024.1.4,Win32,303.030303,,,,,,,,,,,,,,14,aura,,,,,,393.6873,395.5123,1,0,1.317,,0,132,132,13,1,three_way_cognate,1,REAL,FALSA
,,,,,,,,,615df4a8253f3bfee4097f9e,001,2024-06-30_07h25.24.688,empathy_intonation_perc,2024.1.4,Win32,303.030303,,,,,,,,,,,,,,102,coyo,,,,,,395.5129,397.8141,1,0,1.7932,,0,133,133,101,1,pseudoword,0,REAL,FALSA
,,,,,,,,,615df4a8253f3bfee4097f9e,001,2024-06-30_07h25.24.688,empathy_intonation_perc,2024.1.4,Win32,303.030303,,,,,,,,,,,,,,111,monue,,,,,,397.8147,398.8668,0,1,0.544,,0,134,134,110,1,pseudoword,0,REAL,FALSA
,,,,,,,,,615df4a8253f3bfee4097f9e,001,2024-06-30_07h25.24.688,empathy_intonation_perc,2024.1.4,Win32,303.030303,,,,,,,,,,,,,,6,horror,,,,,,398.8676,400.7589,0,1,1.3834,,0,135,135,5,1,three_way_cognate,1,REAL,FALSA
,,,,,,,,,615df4a8253f3bfee4097f9e,001,2024-06-30_07h25.24.688,empathy_intonation_perc,2024.1.4,Win32,303.030303,,,,,,,,,,,,,,113,nasce,,,,,,400.7594,401.8782,0,1,0.6102,,0,136,136,112,1,pseudoword,0,REAL,FALSA
,,,,,,,,,615df4a8253f3bfee4097f9e,001,2024-06-30_07h25.24.688,empathy_intonation_perc,2024.1.4,Win32,303.030303,,,,,,,,,,,,,,149,emén,,,,,,401.8787,402.4947,1,0,0.1073,,0,137,137,148,1,pseudoword,0,REAL,FALSA
,,,,,,,,,615df4a8253f3bfee4097f9e,001,2024-06-30_07h25.24.688,empathy_intonation_perc,2024.1.4,Win32,303.030303,,,,,,,,,,,,,,109,laras,,,,,,402.4955,404.4873,0,1,1.484,,0,138,138,108,1,pseudoword,0,REAL,FALSA
,,,,,,,,,615df4a8253f3bfee4097f9e,001,2024-06-30_07h25.24.688,empathy_intonation_perc,2024.1.4,Win32,303.030303,,,,,,,,,,,,,,142,parre,,,,,,404.4878,406.442,1,0,1.4464,,0,139,139,141,1,pseudoword,0,REAL,FALSA
,,,,,,,,,615df4a8253f3bfee4097f9e,001,2024-06-30_07h25.24.688,empathy_intonation_perc,2024.1.4,Win32,303.030303,,,,,,,,,,,,,,37,torso,,,,,,406.4427,408.2004,1,0,1.2498,,0,140,140,36,1,two_way_cognate,1,REAL,FALSA
,,,,,,,,,615df4a8253f3bfee4097f9e,001,2024-06-30_07h25.24.688,empathy_intonation_perc,2024.1.4,Win32,303.030303,,,,,,,,,,,,,,25,vigor,,,,,,408.2005,410.353,0,1,1.6462,,0,141,141,24,1,two_way_cognate,1,REAL,FALSA
,,,,,,,,,615df4a8253f3bfee4097f9e,001,2024-06-30_07h25.24.688,empathy_intonation_perc,2024.1.4,Win32,303.030303,,,,,,,,,,,,,,170,diabo,,,,,,410.3537,411.6089,0,1,0.747,,0,142,142,169,1,pseudoword,0,REAL,FALSA
,,,,,,,,,615df4a8253f3bfee4097f9e,001,2024-06-30_07h25.24.688,empathy_intonation_perc,2024.1.4,Win32,303.030303,,,,,,,,,,,,,,9,portal,,,,,,411.6097,413.3313,1,0,1.2131,,0,143,143,8,1,three_way_cognate,1,REAL,FALSA
,,,,,,,,,615df4a8253f3bfee4097f9e,001,2024-06-30_07h25.24.688,empathy_intonation_perc,2024.1.4,Win32,303.030303,,,,,,,,,,,,,,97,nocita,,,,,,413.3318,414.4639,0,1,0.6233,,0,144,144,96,1,pseudoword,0,REAL,FALSA
,,,,,,,,,615df4a8253f3bfee4097f9e,001,2024-06-30_07h25.24.688,empathy_intonation_perc,2024.1.4,Win32,303.030303,,,,,,,,,,,,,,121,barbs,,,,,,414.4646,415.6255,0,1,0.6531,,0,145,145,120,1,pseudoword,0,REAL,FALSA
,,,,,,,,,615df4a8253f3bfee4097f9e,001,2024-06-30_07h25.24.688,empathy_intonation_perc,2024.1.4,Win32,303.030303,,,,,,,,,,,,,,186,rizate,,,,,,415.6257,416.8596,0,1,0.7279,,0,146,146,185,1,pseudoword,0,REAL,FALSA
,,,,,,,,,615df4a8253f3bfee4097f9e,001,2024-06-30_07h25.24.688,empathy_intonation_perc,2024.1.4,Win32,303.030303,,,,,,,,,,,,,,119,esís,,,,,,416.8604,418.065,0,1,0.697,,0,147,147,118,1,pseudoword,0,REAL,FALSA
,,,,,,,,,615df4a8253f3bfee4097f9e,001,2024-06-30_07h25.24.688,empathy_intonation_perc,2024.1.4,Win32,303.030303,,,,,,,,,,,,,,27,piano,,,,,,418.0659,419.5073,0,1,0.9335,,0,148,148,26,1,two_way_cognate,1,REAL,FALSA
,,,,,,,,,615df4a8253f3bfee4097f9e,001,2024-06-30_07h25.24.688,empathy_intonation_perc,2024.1.4,Win32,303.030303,,,,,,,,,,,,,,177,entodo,,,,,,419.5081,420.9465,0,1,0.93,,0,149,149,176,1,pseudoword,0,REAL,FALSA
,,,,,,,,,615df4a8253f3bfee4097f9e,001,2024-06-30_07h25.24.688,empathy_intonation_perc,2024.1.4,Win32,303.030303,,,,,,,,,,,,,,148,gino,,,,,,420.9472,424.507,0,1,3.0522,,0,150,150,147,1,pseudoword,0,REAL,FALSA
,,,,,,,,,615df4a8253f3bfee4097f9e,001,2024-06-30_07h25.24.688,empathy_intonation_perc,2024.1.4,Win32,303.030303,,,,,,,,,,,,,,160,fomeó,,,,,,424.5146,425.6808,0,1,0.6575,,0,151,151,159,1,pseudoword,0,REAL,FALSA
,,,,,,,,,615df4a8253f3bfee4097f9e,001,2024-06-30_07h25.24.688,empathy_intonation_perc,2024.1.4,Win32,303.030303,,,,,,,,,,,,,,84,aviso,,,,,,425.6814,427.4425,0,1,1.2528,,0,152,152,83,1,non_cognate,1,REAL,FALSA
,,,,,,,,,615df4a8253f3bfee4097f9e,001,2024-06-30_07h25.24.688,empathy_intonation_perc,2024.1.4,Win32,303.030303,,,,,,,,,,,,,,86,cuenco,,,,,,427.4431,429.3306,1,0,1.3797,,0,153,153,85,1,non_cognate,1,REAL,FALSA
,,,,,,,,,615df4a8253f3bfee4097f9e,001,2024-06-30_07h25.24.688,empathy_intonation_perc,2024.1.4,Win32,303.030303,,,,,,,,,,,,,,155,kugis,,,,,,429.3309,430.3508,0,1,0.5135,,0,154,154,154,1,pseudoword,0,REAL,FALSA
,,,,,,,,,615df4a8253f3bfee4097f9e,001,2024-06-30_07h25.24.688,empathy_intonation_perc,2024.1.4,Win32,303.030303,,,,,,,,,,,,,,123,arane,,,,,,430.3514,431.6,0,1,0.7403,,0,155,155,122,1,pseudoword,0,REAL,FALSA
,,,,,,,,,615df4a8253f3bfee4097f9e,001,2024-06-30_07h25.24.688,empathy_intonation_perc,2024.1.4,Win32,303.030303,,,,,,,,,,,,,,42,rumor,,,,,,431.6006,435.2547,1,0,3.1457,,0,156,156,41,1,two_way_cognate,1,REAL,FALSA
,,,,,,,,,615df4a8253f3bfee4097f9e,001,2024-06-30_07h25.24.688,empathy_intonation_perc,2024.1.4,Win32,303.030303,,,,,,,,,,,,,,192,próces,,,,,,435.2615,436.3703,0,1,0.6003,,0,157,157,191,1,pseudoword,0,REAL,FALSA
,,,,,,,,,615df4a8253f3bfee4097f9e,001,2024-06-30_07h25.24.688,empathy_intonation_perc,2024.1.4,Win32,303.030303,,,,,,,,,,,,,,45,total,,,,,,436.371,438.2493,1,0,1.3699,,0,158,158,44,1,two_way_cognate,1,REAL,FALSA
,,,,,,,,,615df4a8253f3bfee4097f9e,001,2024-06-30_07h25.24.688,empathy_intonation_perc,2024.1.4,Win32,303.030303,,,,,,,,,,,,,,50,sierra,,,,,,438.25,439.9915,1,0,1.2333,,0,159,159,49,1,non_cognate,1,REAL,FALSA
,,,,,,,,,615df4a8253f3bfee4097f9e,001,2024-06-30_07h25.24.688,empathy_intonation_perc,2024.1.4,Win32,303.030303,,,,,,,,,,,,,,53,punta,,,,,,439.9924,441.1833,1,0,0.6834,,0,160,160,52,1,non_cognate,1,REAL,FALSA
,,,,,,,,,615df4a8253f3bfee4097f9e,001,2024-06-30_07h25.24.688,empathy_intonation_perc,2024.1.4,Win32,303.030303,,,,,,,,,,,,,,1,moral,,,,,,441.1835,442.6899,1,0,1.0001,,0,161,161,0,1,three_way_cognate,1,REAL,FALSA
,,,,,,,,,615df4a8253f3bfee4097f9e,001,2024-06-30_07h25.24.688,empathy_intonation_perc,2024.1.4,Win32,303.030303,,,,,,,,,,,,,,21,hotel,,,,,,442.6907,444.3321,0,1,1.1335,,0,162,162,20,1,three_way_cognate,1,REAL,FALSA
,,,,,,,,,615df4a8253f3bfee4097f9e,001,2024-06-30_07h25.24.688,empathy_intonation_perc,2024.1.4,Win32,303.030303,,,,,,,,,,,,,,139,sasos,,,,,,444.3328,445.9412,0,1,1.1001,,0,163,163,138,1,pseudoword,0,REAL,FALSA
,,,,,,,,,615df4a8253f3bfee4097f9e,001,2024-06-30_07h25.24.688,empathy_intonation_perc,2024.1.4,Win32,303.030303,,,,,,,,,,,,,,51,listo,,,,,,445.9419,447.357,1,0,0.9067,,0,164,164,50,1,non_cognate,1,REAL,FALSA
,,,,,,,,,615df4a8253f3bfee4097f9e,001,2024-06-30_07h25.24.688,empathy_intonation_perc,2024.1.4,Win32,303.030303,,,,,,,,,,,,,,54,tapón,,,,,,447.3575,450.0619,1,0,2.1964,,0,165,165,53,1,non_cognate,1,REAL,FALSA
,,,,,,,,,615df4a8253f3bfee4097f9e,001,2024-06-30_07h25.24.688,empathy_intonation_perc,2024.1.4,Win32,303.030303,,,,,,,,,,,,,,73,llevar,,,,,,450.0688,451.3248,1,0,0.7471,,0,166,166,72,1,non_cognate,1,REAL,FALSA
,,,,,,,,,615df4a8253f3bfee4097f9e,001,2024-06-30_07h25.24.688,empathy_intonation_perc,2024.1.4,Win32,303.030303,,,,,,,,,,,,,,176,gripar,,,,,,451.3255,453.8129,0,1,1.9795,,0,167,167,175,1,pseudoword,0,REAL,FALSA
,,,,,,,,,615df4a8253f3bfee4097f9e,001,2024-06-30_07h25.24.688,empathy_intonation_perc,2024.1.4,Win32,303.030303,,,,,,,,,,,,,,162,cengo,,,,,,453.8134,455.019,0,1,0.6973,,0,168,168,161,1,pseudoword,0,REAL,FALSA
,,,,,,,,,615df4a8253f3bfee4097f9e,001,2024-06-30_07h25.24.688,empathy_intonation_perc,2024.1.4,Win32,303.030303,,,,,,,,,,,,,,36,viable,,,,,,455.0196,457.7072,1,0,2.1793,,0,169,169,35,1,two_way_cognate,1,REAL,FALSA
,,,,,,,,,615df4a8253f3bfee4097f9e,001,2024-06-30_07h25.24.688,empathy_intonation_perc,2024.1.4,Win32,303.030303,,,,,,,,,,,,,,77,suave,,,,,,457.7079,458.9041,1,0,0.6881,,0,170,170,76,1,non_cognate,1,REAL,FALSA
,,,,,,,,,615df4a8253f3bfee4097f9e,001,2024-06-30_07h25.24.688,empathy_intonation_perc,2024.1.4,Win32,303.030303,,,,,,,,,,,,,,115,lidena,,,,,,458.9048,460.0265,0,1,0.6145,,0,171,171,114,1,pseudoword,0,REAL,FALSA
,,,,,,,,,615df4a8253f3bfee4097f9e,001,2024-06-30_07h25.24.688,empathy_intonation_perc,2024.1.4,Win32,303.030303,,,,,,,,,,,,,,57,regalo,,,,,,460.0269,461.8468,1,0,1.3128,,0,172,172,56,1,non_cognate,1,REAL,FALSA
,,,,,,,,,615df4a8253f3bfee4097f9e,001,2024-06-30_07h25.24.688,empathy_intonation_perc,2024.1.4,Win32,303.030303,,,,,,,,,,,,,,167,dobbo,,,,,,461.8471,463.1373,0,1,0.7841,,0,173,173,166,1,pseudoword,0,REAL,FALSA
,,,,,,,,,615df4a8253f3bfee4097f9e,001,2024-06-30_07h25.24.688,empathy_intonation_perc,2024.1.4,Win32,303.030303,,,,,,,,,,,,,,90,venado,,,,,,463.1378,464.7496,1,0,1.1035,,0,174,174,89,1,non_cognate,1,REAL,FALSA
,,,,,,,,,615df4a8253f3bfee4097f9e,001,2024-06-30_07h25.24.688,empathy_intonation_perc,2024.1.4,Win32,303.030303,,,,,,,,,,,,,,159,trcia,,,,,,464.7502,465.9081,0,1,0.6502,,0,175,175,158,1,pseudoword,0,REAL,FALSA
,,,,,,,,,615df4a8253f3bfee4097f9e,001,2024-06-30_07h25.24.688,empathy_intonation_perc,2024.1.4,Win32,303.030303,,,,,,,,,,,,,,3,disco,,,,,,465.9083,467.7481,1,0,1.3338,,0,176,176,2,1,three_way_cognate,1,REAL,FALSA
,,,,,,,,,615df4a8253f3bfee4097f9e,001,2024-06-30_07h25.24.688,empathy_intonation_perc,2024.1.4,Win32,303.030303,,,,,,,,,,,,,,60,siglo,,,,,,467.7488,468.907,0,1,0.6502,,0,177,177,59,1,non_cognate,1,REAL,FALSA
,,,,,,,,,615df4a8253f3bfee4097f9e,001,2024-06-30_07h25.24.688,empathy_intonation_perc,2024.1.4,Win32,303.030303,,,,,,,,,,,,,,76,chocar,,,,,,468.9078,470.0629,0,1,0.6471,,0,178,178,75,1,non_cognate,1,REAL,FALSA
,,,,,,,,,615df4a8253f3bfee4097f9e,001,2024-06-30_07h25.24.688,empathy_intonation_perc,2024.1.4,Win32,303.030303,,,,,,,,,,,,,,189,medium,,,,,,470.0635,471.7919,0,1,1.2201,,0,179,179,188,1,pseudoword,0,REAL,FALSA
,,,,,,,,,615df4a8253f3bfee4097f9e,001,2024-06-30_07h25.24.688,empathy_intonation_perc,2024.1.4,Win32,303.030303,,,,,,,,,,,,,,165,chote,,,,,,471.7928,473.4443,1,0,1.1434,,0,180,180,164,1,pseudoword,0,REAL,FALSA
,,,,,,,,,615df4a8253f3bfee4097f9e,001,2024-06-30_07h25.24.688,empathy_intonation_perc,2024.1.4,Win32,303.030303,,,,,,,,,,,,,,124,lobe,,,,,,473.445,475.8362,1,0,1.8829,,0,181,181,123,1,pseudoword,0,REAL,FALSA
,,,,,,,,,615df4a8253f3bfee4097f9e,001,2024-06-30_07h25.24.688,empathy_intonation_perc,2024.1.4,Win32,303.030303,,,,,,,,,,,,,,70,ánimo,,,,,,475.837,477.1254,0,1,0.7803,,0,182,182,69,1,non_cognate,1,REAL,FALSA
,,,,,,,,,615df4a8253f3bfee4097f9e,001,2024-06-30_07h25.24.688,empathy_intonation_perc,2024.1.4,Win32,303.030303,,,,,,,,,,,,,,72,rostro,,,,,,477.1259,478.0249,0,1,0.3904,,0,183,183,71,1,non_cognate,1,REAL,FALSA
,,,,,,,,,615df4a8253f3bfee4097f9e,001,2024-06-30_07h25.24.688,empathy_intonation_perc,2024.1.4,Win32,303.030303,,,,,,,,,,,,,,128,pelí,,,,,,478.0257,479.0043,0,1,0.4705,,0,184,184,127,1,pseudoword,0,REAL,FALSA
,,,,,,,,,615df4a8253f3bfee4097f9e,001,2024-06-30_07h25.24.688,empathy_intonation_perc,2024.1.4,Win32,303.030303,,,,,,,,,,,,,,68,puñal,,,,,,479.0051,480.3269,0,1,0.8135,,0,185,185,67,1,non_cognate,1,REAL,FALSA
,,,,,,,,,615df4a8253f3bfee4097f9e,001,2024-06-30_07h25.24.688,empathy_intonation_perc,2024.1.4,Win32,303.030303,,,,,,,,,,,,,,81,sacar,,,,,,480.3277,481.4215,0,1,0.5864,,0,186,186,80,1,non_cognate,1,REAL,FALSA
,,,,,,,,,615df4a8253f3bfee4097f9e,001,2024-06-30_07h25.24.688,empathy_intonation_perc,2024.1.4,Win32,303.030303,,,,,,,,,,,,,,71,torta,,,,,,481.4218,482.3522,0,1,0.4204,,0,187,187,70,1,non_cognate,1,REAL,FALSA
,,,,,,,,,615df4a8253f3bfee4097f9e,001,2024-06-30_07h25.24.688,empathy_intonation_perc,2024.1.4,Win32,303.030303,,,,,,,,,,,,,,48,pelvis,,,,,,482.3531,484.2199,0,1,1.3595,,0,188,188,47,1,two_way_cognate,1,REAL,FALSA
,,,,,,,,,615df4a8253f3bfee4097f9e,001,2024-06-30_07h25.24.688,empathy_intonation_perc,2024.1.4,Win32,303.030303,,,,,,,,,,,,,,179,suelet,,,,,,484.2201,485.5168,1,0,0.7905,,0,189,189,178,1,pseudoword,0,REAL,FALSA
,,,,,,,,,615df4a8253f3bfee4097f9e,001,2024-06-30_07h25.24.688,empathy_intonation_perc,2024.1.4,Win32,303.030303,,,,,,,,,,,,,,78,rendir,,,,,,485.5174,487.269,1,0,1.2434,,0,190,190,77,1,non_cognate,1,REAL,FALSA
,,,,,,,,,615df4a8253f3bfee4097f9e,001,2024-06-30_07h25.24.688,empathy_intonation_perc,2024.1.4,Win32,303.030303,,,,,,,,,,,,,,12,dogma,,,,,,487.2695,488.7216,0,1,0.9436,,0,191,191,11,1,three_way_cognate,1,REAL,FALSA
