lextale_instructions.started,lextale_instructions.stopped,lextale_instructions_loop.thisRepN,lextale_instructions_loop.thisTrialN,lextale_instructions_loop.thisN,lextale_instructions_loop.thisIndex,lextale_instructions_loop.ran,instructions_text,continue_text,participant,session,date,expName,psychopyVersion,OS,frameRate,lextale_practice.started,lextale_practice.stopped,key_resp_lextale_practice.keys,key_resp_lextale_practice.corr,key_resp_lextale_practice.rt,key_resp_lextale_practice.duration,lextale_practice_feedback.started,lextale_practice_feedback.stopped,lextale_practice_trials.thisRepN,lextale_practice_trials.thisTrialN,lextale_practice_trials.thisN,lextale_practice_trials.thisIndex,lextale_practice_trials.ran,stim,word,correct_response,prac_button_real,prac_button_false,lextale_check.started,lextale_check.stopped,lextale_trial.started,lextale_trial.stopped,key_resp_lextale_trial.keys,key_resp_lextale_trial.corr,key_resp_lextale_trial.rt,key_resp_lextale_trial.duration,lextail_trials.thisRepN,lextail_trials.thisTrialN,lextail_trials.thisN,lextail_trials.thisIndex,lextail_trials.ran,type,correct_reponse,button_real,button_false
0.0036,4.2804,0,0,0,0,1,"Este es un test de vocabulario en español. 
  
  A continuación vas a ver 90 secuencias de letras que parecen 'españolas'.
  
  Solo algunas de ellas son palabras de verdad.",(presiona la barra espaciadora para continuar),6474cb4bd6def87a881a5d52,001,2024-06-30_06h32.12.821,empathy_intonation_perc,2024.1.4,Win32,60.60606061,,,,,,,,,,,,,,,,,,,,,,,,,,,,,,,,,,,
4.2809,41.3273,0,1,1,1,1,"Por favor, señala las palabras que tú conoces (aquellas que estás convencido que son palabras españolas, incluso aunque no seas capaz de dar el significado preciso).",(presiona la barra espaciadora para continuar),6474cb4bd6def87a881a5d52,001,2024-06-30_06h32.12.821,empathy_intonation_perc,2024.1.4,Win32,60.60606061,,,,,,,,,,,,,,,,,,,,,,,,,,,,,,,,,,,
41.336,45.0733,0,2,2,2,1,Pero cuidado: los errores se penalizan. Por eso no tiene sentido tratar de incrementar tu puntuación marcando como reales palabras que nunca has visto.,(presiona la barra espaciadora para continuar),6474cb4bd6def87a881a5d52,001,2024-06-30_06h32.12.821,empathy_intonation_perc,2024.1.4,Win32,60.60606061,,,,,,,,,,,,,,,,,,,,,,,,,,,,,,,,,,,
45.0739,46.7552,0,3,3,3,1,"Presiona la tecla 1 si piensas que es una palabra real y la tecla 
  0 si piensas que es una palabra falsa. 
  
  Vamos a practicar un poco...",(presiona la barra espaciadora para continuar),6474cb4bd6def87a881a5d52,001,2024-06-30_06h32.12.821,empathy_intonation_perc,2024.1.4,Win32,60.60606061,,,,,,,,,,,,,,,,,,,,,,,,,,,,,,,,,,,
,,,,,,,,,6474cb4bd6def87a881a5d52,001,2024-06-30_06h32.12.821,empathy_intonation_perc,2024.1.4,Win32,60.60606061,46.7579,135.8682,1,0,88.5736,,135.8764,136.8675,0,0,0,0,1,0,depiste,0,REAL,FALSA,,,,,,,,,,,,,,,,,
,,,,,,,,,6474cb4bd6def87a881a5d52,001,2024-06-30_06h32.12.821,empathy_intonation_perc,2024.1.4,Win32,60.60606061,136.8682,139.4142,0,0,2.0238,,139.4142,140.4138,0,1,1,1,1,0,sí,1,REAL,FALSA,,,,,,,,,,,,,,,,,
,,,,,,,,,6474cb4bd6def87a881a5d52,001,2024-06-30_06h32.12.821,empathy_intonation_perc,2024.1.4,Win32,60.60606061,140.4309,141.6801,0,1,0.7257,,141.6802,142.6785,0,2,2,2,1,0,coné,0,REAL,FALSA,,,,,,,,,,,,,,,,,
,,,,,,,,,6474cb4bd6def87a881a5d52,001,2024-06-30_06h32.12.821,empathy_intonation_perc,2024.1.4,Win32,60.60606061,142.6794,144.7258,0,1,1.5089,,144.7259,145.7251,0,3,3,3,1,0,calpar,0,REAL,FALSA,,,,,,,,,,,,,,,,,
,,,,,,,,,6474cb4bd6def87a881a5d52,001,2024-06-30_06h32.12.821,empathy_intonation_perc,2024.1.4,Win32,60.60606061,145.7253,147.4401,1,0,1.1766,,147.4401,148.4394,0,4,4,4,1,0,joten,0,REAL,FALSA,,,,,,,,,,,,,,,,,
,,,,,,,,,6474cb4bd6def87a881a5d52,001,2024-06-30_06h32.12.821,empathy_intonation_perc,2024.1.4,Win32,60.60606061,148.4565,149.7217,0,0,0.7406,,149.7218,150.7202,0,5,5,5,1,0,sacapuntas,1,REAL,FALSA,,,,,,,,,,,,,,,,,
,,,,,,,,,6474cb4bd6def87a881a5d52,001,2024-06-30_06h32.12.821,empathy_intonation_perc,2024.1.4,Win32,60.60606061,150.7208,153.0677,1,0,1.8145,,153.0677,154.0669,0,6,6,6,1,0,priba,0,REAL,FALSA,,,,,,,,,,,,,,,,,
,,,,,,,,,6474cb4bd6def87a881a5d52,001,2024-06-30_06h32.12.821,empathy_intonation_perc,2024.1.4,Win32,60.60606061,154.0772,155.3998,0,1,0.8079,,155.3999,156.3978,0,7,7,7,1,0,pelasula,0,REAL,FALSA,,,,,,,,,,,,,,,,,
,,,,,,,,,6474cb4bd6def87a881a5d52,001,2024-06-30_06h32.12.821,empathy_intonation_perc,2024.1.4,Win32,60.60606061,156.3981,159.4293,0,0,2.497,,159.4294,160.4273,0,8,8,8,1,0,bien,1,REAL,FALSA,,,,,,,,,,,,,,,,,
,,,,,,,,,6474cb4bd6def87a881a5d52,001,2024-06-30_06h32.12.821,empathy_intonation_perc,2024.1.4,Win32,60.60606061,160.4393,161.7426,1,1,0.7915,,161.7428,162.7417,0,9,9,9,1,0,casa,1,REAL,FALSA,,,,,,,,,,,,,,,,,
,,,,,,,,,6474cb4bd6def87a881a5d52,001,2024-06-30_06h32.12.821,empathy_intonation_perc,2024.1.4,Win32,60.60606061,162.7422,164.8893,1,0,1.6159,,164.8893,165.8887,0,10,10,10,1,0,lejo,0,REAL,FALSA,,,,,,,,,,,,,,,,,
,,,,,,,,,6474cb4bd6def87a881a5d52,001,2024-06-30_06h32.12.821,empathy_intonation_perc,2024.1.4,Win32,60.60606061,165.8891,167.3536,1,0,0.9374,,167.3536,168.3528,0,11,11,11,1,0,pretantas,0,REAL,FALSA,,,,,,,,,,,,,,,,,
,,,,,,,,,6474cb4bd6def87a881a5d52,001,2024-06-30_06h32.12.821,empathy_intonation_perc,2024.1.4,Win32,60.60606061,,,,,,,,,,,,,,,,,,,168.3532,170.0024,,,,,,,,,,,,,,,
,,,,,,,,,6474cb4bd6def87a881a5d52,001,2024-06-30_06h32.12.821,empathy_intonation_perc,2024.1.4,Win32,60.60606061,,,,,,,,,,,,,,11,golf,,,,,,170.028,173.581,1,0,3.0314,,0,0,0,10,1,three_way_cognate,1,REAL,FALSA
,,,,,,,,,6474cb4bd6def87a881a5d52,001,2024-06-30_06h32.12.821,empathy_intonation_perc,2024.1.4,Win32,60.60606061,,,,,,,,,,,,,,146,gió,,,,,,173.5812,175.1628,0,1,1.0511,,0,1,1,145,1,pseudoword,0,REAL,FALSA
,,,,,,,,,6474cb4bd6def87a881a5d52,001,2024-06-30_06h32.12.821,empathy_intonation_perc,2024.1.4,Win32,60.60606061,,,,,,,,,,,,,,76,chocar,,,,,,175.163,176.8947,1,0,1.1967,,0,2,2,75,1,non_cognate,1,REAL,FALSA
,,,,,,,,,6474cb4bd6def87a881a5d52,001,2024-06-30_06h32.12.821,empathy_intonation_perc,2024.1.4,Win32,60.60606061,,,,,,,,,,,,,,14,aura,,,,,,176.8953,178.6597,1,0,1.2296,,0,3,3,13,1,three_way_cognate,1,REAL,FALSA
,,,,,,,,,6474cb4bd6def87a881a5d52,001,2024-06-30_06h32.12.821,empathy_intonation_perc,2024.1.4,Win32,60.60606061,,,,,,,,,,,,,,90,venado,,,,,,178.6602,181.3066,1,0,2.1155,,0,4,4,89,1,non_cognate,1,REAL,FALSA
,,,,,,,,,6474cb4bd6def87a881a5d52,001,2024-06-30_06h32.12.821,empathy_intonation_perc,2024.1.4,Win32,60.60606061,,,,,,,,,,,,,,170,diabo,,,,,,181.3068,183.588,1,0,1.7437,,0,5,5,169,1,pseudoword,0,REAL,FALSA
,,,,,,,,,6474cb4bd6def87a881a5d52,001,2024-06-30_06h32.12.821,empathy_intonation_perc,2024.1.4,Win32,60.60606061,,,,,,,,,,,,,,112,samón,,,,,,183.5887,185.054,0,1,0.9299,,0,6,6,111,1,pseudoword,0,REAL,FALSA
,,,,,,,,,6474cb4bd6def87a881a5d52,001,2024-06-30_06h32.12.821,empathy_intonation_perc,2024.1.4,Win32,60.60606061,,,,,,,,,,,,,,176,gripar,,,,,,185.0547,186.7187,0,1,1.1306,,0,7,7,175,1,pseudoword,0,REAL,FALSA
,,,,,,,,,6474cb4bd6def87a881a5d52,001,2024-06-30_06h32.12.821,empathy_intonation_perc,2024.1.4,Win32,60.60606061,,,,,,,,,,,,,,121,barbs,,,,,,186.7199,188.3499,1,0,1.101,,0,8,8,120,1,pseudoword,0,REAL,FALSA
,,,,,,,,,6474cb4bd6def87a881a5d52,001,2024-06-30_06h32.12.821,empathy_intonation_perc,2024.1.4,Win32,60.60606061,,,,,,,,,,,,,,140,chorde,,,,,,188.3502,189.8317,0,1,0.9447,,0,9,9,139,1,pseudoword,0,REAL,FALSA
,,,,,,,,,6474cb4bd6def87a881a5d52,001,2024-06-30_06h32.12.821,empathy_intonation_perc,2024.1.4,Win32,60.60606061,,,,,,,,,,,,,,4,flora,,,,,,189.832,191.2304,1,0,0.8707,,0,10,10,3,1,three_way_cognate,1,REAL,FALSA
,,,,,,,,,6474cb4bd6def87a881a5d52,001,2024-06-30_06h32.12.821,empathy_intonation_perc,2024.1.4,Win32,60.60606061,,,,,,,,,,,,,,185,aljizo,,,,,,191.2309,193.3784,0,1,1.62,,0,11,11,184,1,pseudoword,0,REAL,FALSA
,,,,,,,,,6474cb4bd6def87a881a5d52,001,2024-06-30_06h32.12.821,empathy_intonation_perc,2024.1.4,Win32,60.60606061,,,,,,,,,,,,,,24,retina,,,,,,193.379,194.8435,1,0,0.9355,,0,12,12,23,1,three_way_cognate,1,REAL,FALSA
,,,,,,,,,6474cb4bd6def87a881a5d52,001,2024-06-30_06h32.12.821,empathy_intonation_perc,2024.1.4,Win32,60.60606061,,,,,,,,,,,,,,83,hálito,,,,,,194.8438,197.4912,0,1,2.1204,,0,13,13,82,1,non_cognate,1,REAL,FALSA
,,,,,,,,,6474cb4bd6def87a881a5d52,001,2024-06-30_06h32.12.821,empathy_intonation_perc,2024.1.4,Win32,60.60606061,,,,,,,,,,,,,,110,densó,,,,,,197.4917,198.973,0,1,0.9446,,0,14,14,109,1,pseudoword,0,REAL,FALSA
,,,,,,,,,6474cb4bd6def87a881a5d52,001,2024-06-30_06h32.12.821,empathy_intonation_perc,2024.1.4,Win32,60.60606061,,,,,,,,,,,,,,178,inichó,,,,,,198.9735,200.4215,1,0,0.9204,,0,15,15,177,1,pseudoword,0,REAL,FALSA
,,,,,,,,,6474cb4bd6def87a881a5d52,001,2024-06-30_06h32.12.821,empathy_intonation_perc,2024.1.4,Win32,60.60606061,,,,,,,,,,,,,,135,panté,,,,,,200.4218,201.8698,1,0,0.9145,,0,16,16,134,1,pseudoword,0,REAL,FALSA
,,,,,,,,,6474cb4bd6def87a881a5d52,001,2024-06-30_06h32.12.821,empathy_intonation_perc,2024.1.4,Win32,60.60606061,,,,,,,,,,,,,,63,hilo,,,,,,201.87,203.3186,0,1,0.9106,,0,17,17,62,1,non_cognate,1,REAL,FALSA
,,,,,,,,,6474cb4bd6def87a881a5d52,001,2024-06-30_06h32.12.821,empathy_intonation_perc,2024.1.4,Win32,60.60606061,,,,,,,,,,,,,,42,rumor,,,,,,203.3188,204.7176,1,0,0.8664,,0,18,18,41,1,two_way_cognate,1,REAL,FALSA
,,,,,,,,,6474cb4bd6def87a881a5d52,001,2024-06-30_06h32.12.821,empathy_intonation_perc,2024.1.4,Win32,60.60606061,,,,,,,,,,,,,,36,viable,,,,,,204.7181,206.2491,1,0,1.0053,,0,19,19,35,1,two_way_cognate,1,REAL,FALSA
,,,,,,,,,6474cb4bd6def87a881a5d52,001,2024-06-30_06h32.12.821,empathy_intonation_perc,2024.1.4,Win32,60.60606061,,,,,,,,,,,,,,126,tobre,,,,,,206.2496,207.7142,0,1,0.9372,,0,20,20,125,1,pseudoword,0,REAL,FALSA
,,,,,,,,,6474cb4bd6def87a881a5d52,001,2024-06-30_06h32.12.821,empathy_intonation_perc,2024.1.4,Win32,60.60606061,,,,,,,,,,,,,,124,lobe,,,,,,207.7145,209.346,1,0,1.0972,,0,21,21,123,1,pseudoword,0,REAL,FALSA
,,,,,,,,,6474cb4bd6def87a881a5d52,001,2024-06-30_06h32.12.821,empathy_intonation_perc,2024.1.4,Win32,60.60606061,,,,,,,,,,,,,,18,altar,,,,,,209.3464,210.7279,1,0,0.8516,,0,22,22,17,1,three_way_cognate,1,REAL,FALSA
,,,,,,,,,6474cb4bd6def87a881a5d52,001,2024-06-30_06h32.12.821,empathy_intonation_perc,2024.1.4,Win32,60.60606061,,,,,,,,,,,,,,181,gravés,,,,,,210.7281,212.9922,1,0,1.7281,,0,23,23,180,1,pseudoword,0,REAL,FALSA
,,,,,,,,,6474cb4bd6def87a881a5d52,001,2024-06-30_06h32.12.821,empathy_intonation_perc,2024.1.4,Win32,60.60606061,,,,,,,,,,,,,,5,extra,,,,,,212.9925,214.425,1,0,0.9019,,0,24,24,4,1,three_way_cognate,1,REAL,FALSA
,,,,,,,,,6474cb4bd6def87a881a5d52,001,2024-06-30_06h32.12.821,empathy_intonation_perc,2024.1.4,Win32,60.60606061,,,,,,,,,,,,,,85,enorme,,,,,,214.4256,215.8231,0,1,0.8634,,0,25,25,84,1,non_cognate,1,REAL,FALSA
,,,,,,,,,6474cb4bd6def87a881a5d52,001,2024-06-30_06h32.12.821,empathy_intonation_perc,2024.1.4,Win32,60.60606061,,,,,,,,,,,,,,3,disco,,,,,,215.8234,217.2218,1,0,0.8619,,0,26,26,2,1,three_way_cognate,1,REAL,FALSA
,,,,,,,,,6474cb4bd6def87a881a5d52,001,2024-06-30_06h32.12.821,empathy_intonation_perc,2024.1.4,Win32,60.60606061,,,,,,,,,,,,,,84,aviso,,,,,,217.2221,218.8369,1,0,1.0852,,0,27,27,83,1,non_cognate,1,REAL,FALSA
,,,,,,,,,6474cb4bd6def87a881a5d52,001,2024-06-30_06h32.12.821,empathy_intonation_perc,2024.1.4,Win32,60.60606061,,,,,,,,,,,,,,115,lidena,,,,,,218.8373,221.6009,0,1,2.2372,,0,28,28,114,1,pseudoword,0,REAL,FALSA
,,,,,,,,,6474cb4bd6def87a881a5d52,001,2024-06-30_06h32.12.821,empathy_intonation_perc,2024.1.4,Win32,60.60606061,,,,,,,,,,,,,,150,cricó,,,,,,221.6015,223.7819,1,0,1.6469,,0,29,29,149,1,pseudoword,0,REAL,FALSA
,,,,,,,,,6474cb4bd6def87a881a5d52,001,2024-06-30_06h32.12.821,empathy_intonation_perc,2024.1.4,Win32,60.60606061,,,,,,,,,,,,,,148,gino,,,,,,223.7822,225.3635,1,0,1.0534,,0,30,30,147,1,pseudoword,0,REAL,FALSA
,,,,,,,,,6474cb4bd6def87a881a5d52,001,2024-06-30_06h32.12.821,empathy_intonation_perc,2024.1.4,Win32,60.60606061,,,,,,,,,,,,,,27,piano,,,,,,225.3638,226.5794,1,0,0.6917,,0,31,31,26,1,two_way_cognate,1,REAL,FALSA
,,,,,,,,,6474cb4bd6def87a881a5d52,001,2024-06-30_06h32.12.821,empathy_intonation_perc,2024.1.4,Win32,60.60606061,,,,,,,,,,,,,,106,diebro,,,,,,226.5802,228.2944,0,1,1.1897,,0,32,32,105,1,pseudoword,0,REAL,FALSA
,,,,,,,,,6474cb4bd6def87a881a5d52,001,2024-06-30_06h32.12.821,empathy_intonation_perc,2024.1.4,Win32,60.60606061,,,,,,,,,,,,,,167,dobbo,,,,,,228.2951,230.0758,0,1,1.2492,,0,33,33,166,1,pseudoword,0,REAL,FALSA
,,,,,,,,,6474cb4bd6def87a881a5d52,001,2024-06-30_06h32.12.821,empathy_intonation_perc,2024.1.4,Win32,60.60606061,,,,,,,,,,,,,,143,hurcos,,,,,,230.076,231.7073,0,1,1.1056,,0,34,34,142,1,pseudoword,0,REAL,FALSA
,,,,,,,,,6474cb4bd6def87a881a5d52,001,2024-06-30_06h32.12.821,empathy_intonation_perc,2024.1.4,Win32,60.60606061,,,,,,,,,,,,,,151,prías,,,,,,231.7075,232.9901,1,0,0.758,,0,35,35,150,1,pseudoword,0,REAL,FALSA
,,,,,,,,,6474cb4bd6def87a881a5d52,001,2024-06-30_06h32.12.821,empathy_intonation_perc,2024.1.4,Win32,60.60606061,,,,,,,,,,,,,,102,coyo,,,,,,232.9909,235.5041,0,1,1.9879,,0,36,36,101,1,pseudoword,0,REAL,FALSA
,,,,,,,,,6474cb4bd6def87a881a5d52,001,2024-06-30_06h32.12.821,empathy_intonation_perc,2024.1.4,Win32,60.60606061,,,,,,,,,,,,,,7,albino,,,,,,235.5047,236.9523,1,0,0.9172,,0,37,37,6,1,three_way_cognate,1,REAL,FALSA
,,,,,,,,,6474cb4bd6def87a881a5d52,001,2024-06-30_06h32.12.821,empathy_intonation_perc,2024.1.4,Win32,60.60606061,,,,,,,,,,,,,,52,blando,,,,,,236.9527,238.6339,0,1,1.1414,,0,38,38,51,1,non_cognate,1,REAL,FALSA
,,,,,,,,,6474cb4bd6def87a881a5d52,001,2024-06-30_06h32.12.821,empathy_intonation_perc,2024.1.4,Win32,60.60606061,,,,,,,,,,,,,,168,cobén,,,,,,238.6341,240.1491,1,0,0.9877,,0,39,39,167,1,pseudoword,0,REAL,FALSA
,,,,,,,,,6474cb4bd6def87a881a5d52,001,2024-06-30_06h32.12.821,empathy_intonation_perc,2024.1.4,Win32,60.60606061,,,,,,,,,,,,,,15,test,,,,,,240.1493,241.6975,1,0,1.0092,,0,40,40,14,1,three_way_cognate,1,REAL,FALSA
,,,,,,,,,6474cb4bd6def87a881a5d52,001,2024-06-30_06h32.12.821,empathy_intonation_perc,2024.1.4,Win32,60.60606061,,,,,,,,,,,,,,93,tapa,,,,,,241.6977,243.0298,1,0,0.7957,,0,41,41,92,1,non_cognate,1,REAL,FALSA
,,,,,,,,,6474cb4bd6def87a881a5d52,001,2024-06-30_06h32.12.821,empathy_intonation_perc,2024.1.4,Win32,60.60606061,,,,,,,,,,,,,,49,teñir,,,,,,243.0303,244.478,0,1,0.9218,,0,42,42,48,1,non_cognate,1,REAL,FALSA
,,,,,,,,,6474cb4bd6def87a881a5d52,001,2024-06-30_06h32.12.821,empathy_intonation_perc,2024.1.4,Win32,60.60606061,,,,,,,,,,,,,,77,suave,,,,,,244.4782,247.0759,1,0,2.0609,,0,43,43,76,1,non_cognate,1,REAL,FALSA
,,,,,,,,,6474cb4bd6def87a881a5d52,001,2024-06-30_06h32.12.821,empathy_intonation_perc,2024.1.4,Win32,60.60606061,,,,,,,,,,,,,,131,fuar,,,,,,247.0762,249.5734,0,1,1.9624,,0,44,44,130,1,pseudoword,0,REAL,FALSA
,,,,,,,,,6474cb4bd6def87a881a5d52,001,2024-06-30_06h32.12.821,empathy_intonation_perc,2024.1.4,Win32,60.60606061,,,,,,,,,,,,,,125,ceme,,,,,,249.5739,251.0218,1,0,0.9179,,0,45,45,124,1,pseudoword,0,REAL,FALSA
,,,,,,,,,6474cb4bd6def87a881a5d52,001,2024-06-30_06h32.12.821,empathy_intonation_perc,2024.1.4,Win32,60.60606061,,,,,,,,,,,,,,120,mauja,,,,,,251.022,252.4204,1,0,0.8651,,0,46,46,119,1,pseudoword,0,REAL,FALSA
,,,,,,,,,6474cb4bd6def87a881a5d52,001,2024-06-30_06h32.12.821,empathy_intonation_perc,2024.1.4,Win32,60.60606061,,,,,,,,,,,,,,79,suelo,,,,,,252.4207,253.4364,0,1,0.4916,,0,47,47,78,1,non_cognate,1,REAL,FALSA
,,,,,,,,,6474cb4bd6def87a881a5d52,001,2024-06-30_06h32.12.821,empathy_intonation_perc,2024.1.4,Win32,60.60606061,,,,,,,,,,,,,,46,mortal,,,,,,253.4371,254.8183,0,1,0.8519,,0,48,48,45,1,two_way_cognate,1,REAL,FALSA
,,,,,,,,,6474cb4bd6def87a881a5d52,001,2024-06-30_06h32.12.821,empathy_intonation_perc,2024.1.4,Win32,60.60606061,,,,,,,,,,,,,,165,chote,,,,,,254.8186,257.0161,1,0,1.6646,,0,49,49,164,1,pseudoword,0,REAL,FALSA
,,,,,,,,,6474cb4bd6def87a881a5d52,001,2024-06-30_06h32.12.821,empathy_intonation_perc,2024.1.4,Win32,60.60606061,,,,,,,,,,,,,,130,dubo,,,,,,257.0164,258.3151,0,1,0.7748,,0,50,50,129,1,pseudoword,0,REAL,FALSA
,,,,,,,,,6474cb4bd6def87a881a5d52,001,2024-06-30_06h32.12.821,empathy_intonation_perc,2024.1.4,Win32,60.60606061,,,,,,,,,,,,,,163,olzan,,,,,,258.3155,259.7473,0,1,0.8938,,0,51,51,162,1,pseudoword,0,REAL,FALSA
,,,,,,,,,6474cb4bd6def87a881a5d52,001,2024-06-30_06h32.12.821,empathy_intonation_perc,2024.1.4,Win32,60.60606061,,,,,,,,,,,,,,175,tradía,,,,,,259.748,261.0455,0,1,0.7692,,0,52,52,174,1,pseudoword,0,REAL,FALSA
,,,,,,,,,6474cb4bd6def87a881a5d52,001,2024-06-30_06h32.12.821,empathy_intonation_perc,2024.1.4,Win32,60.60606061,,,,,,,,,,,,,,145,rúo,,,,,,261.046,262.3776,0,1,0.7962,,0,53,53,144,1,pseudoword,0,REAL,FALSA
,,,,,,,,,6474cb4bd6def87a881a5d52,001,2024-06-30_06h32.12.821,empathy_intonation_perc,2024.1.4,Win32,60.60606061,,,,,,,,,,,,,,31,civil,,,,,,262.3779,263.5264,1,0,0.6171,,0,54,54,30,1,two_way_cognate,1,REAL,FALSA
,,,,,,,,,6474cb4bd6def87a881a5d52,001,2024-06-30_06h32.12.821,empathy_intonation_perc,2024.1.4,Win32,60.60606061,,,,,,,,,,,,,,147,alla,,,,,,263.5268,265.7742,0,1,1.7154,,0,55,55,146,1,pseudoword,0,REAL,FALSA
,,,,,,,,,6474cb4bd6def87a881a5d52,001,2024-06-30_06h32.12.821,empathy_intonation_perc,2024.1.4,Win32,60.60606061,,,,,,,,,,,,,,89,muñeca,,,,,,265.7745,267.523,1,0,1.2198,,0,56,56,88,1,non_cognate,1,REAL,FALSA
,,,,,,,,,6474cb4bd6def87a881a5d52,001,2024-06-30_06h32.12.821,empathy_intonation_perc,2024.1.4,Win32,60.60606061,,,,,,,,,,,,,,21,hotel,,,,,,267.5236,268.7213,1,0,0.6712,,0,57,57,20,1,three_way_cognate,1,REAL,FALSA
,,,,,,,,,6474cb4bd6def87a881a5d52,001,2024-06-30_06h32.12.821,empathy_intonation_perc,2024.1.4,Win32,60.60606061,,,,,,,,,,,,,,43,honor,,,,,,268.7215,272.6339,1,0,3.3795,,0,58,58,42,1,two_way_cognate,1,REAL,FALSA
,,,,,,,,,6474cb4bd6def87a881a5d52,001,2024-06-30_06h32.12.821,empathy_intonation_perc,2024.1.4,Win32,60.60606061,,,,,,,,,,,,,,6,horror,,,,,,272.6407,273.9998,1,0,0.8299,,0,59,59,5,1,three_way_cognate,1,REAL,FALSA
,,,,,,,,,6474cb4bd6def87a881a5d52,001,2024-06-30_06h32.12.821,empathy_intonation_perc,2024.1.4,Win32,60.60606061,,,,,,,,,,,,,,35,aurora,,,,,,274.0004,275.3646,1,0,0.8267,,0,60,60,34,1,two_way_cognate,1,REAL,FALSA
,,,,,,,,,6474cb4bd6def87a881a5d52,001,2024-06-30_06h32.12.821,empathy_intonation_perc,2024.1.4,Win32,60.60606061,,,,,,,,,,,,,,73,llevar,,,,,,275.365,276.5971,0,1,0.6959,,0,61,61,72,1,non_cognate,1,REAL,FALSA
,,,,,,,,,6474cb4bd6def87a881a5d52,001,2024-06-30_06h32.12.821,empathy_intonation_perc,2024.1.4,Win32,60.60606061,,,,,,,,,,,,,,68,puñal,,,,,,276.5976,277.9123,1,0,0.7827,,0,62,62,67,1,non_cognate,1,REAL,FALSA
,,,,,,,,,6474cb4bd6def87a881a5d52,001,2024-06-30_06h32.12.821,empathy_intonation_perc,2024.1.4,Win32,60.60606061,,,,,,,,,,,,,,22,mango,,,,,,277.9127,279.2774,1,0,0.8268,,0,63,63,21,1,three_way_cognate,1,REAL,FALSA
,,,,,,,,,6474cb4bd6def87a881a5d52,001,2024-06-30_06h32.12.821,empathy_intonation_perc,2024.1.4,Win32,60.60606061,,,,,,,,,,,,,,75,patada,,,,,,279.2775,281.1929,0,1,1.3879,,0,64,64,74,1,non_cognate,1,REAL,FALSA
,,,,,,,,,6474cb4bd6def87a881a5d52,001,2024-06-30_06h32.12.821,empathy_intonation_perc,2024.1.4,Win32,60.60606061,,,,,,,,,,,,,,156,ozoso,,,,,,281.1934,282.7076,0,1,0.9885,,0,65,65,155,1,pseudoword,0,REAL,FALSA
,,,,,,,,,6474cb4bd6def87a881a5d52,001,2024-06-30_06h32.12.821,empathy_intonation_perc,2024.1.4,Win32,60.60606061,,,,,,,,,,,,,,100,épinas,,,,,,282.7081,285.2217,1,0,1.9845,,0,66,66,99,1,pseudoword,0,REAL,FALSA
,,,,,,,,,6474cb4bd6def87a881a5d52,001,2024-06-30_06h32.12.821,empathy_intonation_perc,2024.1.4,Win32,60.60606061,,,,,,,,,,,,,,189,medium,,,,,,285.2221,286.5537,1,0,0.8028,,0,67,67,188,1,pseudoword,0,REAL,FALSA
,,,,,,,,,6474cb4bd6def87a881a5d52,001,2024-06-30_06h32.12.821,empathy_intonation_perc,2024.1.4,Win32,60.60606061,,,,,,,,,,,,,,53,punta,,,,,,286.554,287.9696,1,0,0.8885,,0,68,68,52,1,non_cognate,1,REAL,FALSA
,,,,,,,,,6474cb4bd6def87a881a5d52,001,2024-06-30_06h32.12.821,empathy_intonation_perc,2024.1.4,Win32,60.60606061,,,,,,,,,,,,,,113,nasce,,,,,,287.9701,289.3677,0,1,0.8605,,0,69,69,112,1,pseudoword,0,REAL,FALSA
,,,,,,,,,6474cb4bd6def87a881a5d52,001,2024-06-30_06h32.12.821,empathy_intonation_perc,2024.1.4,Win32,60.60606061,,,,,,,,,,,,,,33,collar,,,,,,289.368,291.0164,1,0,1.1196,,0,70,70,32,1,two_way_cognate,1,REAL,FALSA
,,,,,,,,,6474cb4bd6def87a881a5d52,001,2024-06-30_06h32.12.821,empathy_intonation_perc,2024.1.4,Win32,60.60606061,,,,,,,,,,,,,,159,trcia,,,,,,291.017,293.7134,0,1,2.1732,,0,71,71,158,1,pseudoword,0,REAL,FALSA
,,,,,,,,,6474cb4bd6def87a881a5d52,001,2024-06-30_06h32.12.821,empathy_intonation_perc,2024.1.4,Win32,60.60606061,,,,,,,,,,,,,,32,animal,,,,,,293.7137,294.9954,1,0,0.7504,,0,72,72,31,1,two_way_cognate,1,REAL,FALSA
,,,,,,,,,6474cb4bd6def87a881a5d52,001,2024-06-30_06h32.12.821,empathy_intonation_perc,2024.1.4,Win32,60.60606061,,,,,,,,,,,,,,55,maldad,,,,,,294.9958,296.9771,0,1,1.447,,0,73,73,54,1,non_cognate,1,REAL,FALSA
,,,,,,,,,6474cb4bd6def87a881a5d52,001,2024-06-30_06h32.12.821,empathy_intonation_perc,2024.1.4,Win32,60.60606061,,,,,,,,,,,,,,29,clamor,,,,,,296.9776,298.642,1,0,1.1299,,0,74,74,28,1,two_way_cognate,1,REAL,FALSA
,,,,,,,,,6474cb4bd6def87a881a5d52,001,2024-06-30_06h32.12.821,empathy_intonation_perc,2024.1.4,Win32,60.60606061,,,,,,,,,,,,,,67,llamar,,,,,,298.6423,302.4886,1,0,3.3119,,0,75,75,66,1,non_cognate,1,REAL,FALSA
,,,,,,,,,6474cb4bd6def87a881a5d52,001,2024-06-30_06h32.12.821,empathy_intonation_perc,2024.1.4,Win32,60.60606061,,,,,,,,,,,,,,127,vien,,,,,,302.5024,303.7536,1,0,0.7328,,0,76,76,126,1,pseudoword,0,REAL,FALSA
,,,,,,,,,6474cb4bd6def87a881a5d52,001,2024-06-30_06h32.12.821,empathy_intonation_perc,2024.1.4,Win32,60.60606061,,,,,,,,,,,,,,91,equipo,,,,,,303.7538,305.4854,0,1,1.1964,,0,77,77,90,1,non_cognate,1,REAL,FALSA
,,,,,,,,,6474cb4bd6def87a881a5d52,001,2024-06-30_06h32.12.821,empathy_intonation_perc,2024.1.4,Win32,60.60606061,,,,,,,,,,,,,,81,sacar,,,,,,305.4859,308.0993,1,0,2.0795,,0,78,78,80,1,non_cognate,1,REAL,FALSA
,,,,,,,,,6474cb4bd6def87a881a5d52,001,2024-06-30_06h32.12.821,empathy_intonation_perc,2024.1.4,Win32,60.60606061,,,,,,,,,,,,,,13,plan,,,,,,308.1062,309.3645,1,0,0.7315,,0,79,79,12,1,three_way_cognate,1,REAL,FALSA
,,,,,,,,,6474cb4bd6def87a881a5d52,001,2024-06-30_06h32.12.821,empathy_intonation_perc,2024.1.4,Win32,60.60606061,,,,,,,,,,,,,,17,clan,,,,,,309.3648,310.5136,1,0,0.62,,0,80,80,16,1,three_way_cognate,1,REAL,FALSA
,,,,,,,,,6474cb4bd6def87a881a5d52,001,2024-06-30_06h32.12.821,empathy_intonation_perc,2024.1.4,Win32,60.60606061,,,,,,,,,,,,,,61,aduana,,,,,,310.514,312.1455,0,1,1.0974,,0,81,81,60,1,non_cognate,1,REAL,FALSA
,,,,,,,,,6474cb4bd6def87a881a5d52,001,2024-06-30_06h32.12.821,empathy_intonation_perc,2024.1.4,Win32,60.60606061,,,,,,,,,,,,,,48,pelvis,,,,,,312.146,313.6274,1,0,0.9525,,0,82,82,47,1,two_way_cognate,1,REAL,FALSA
,,,,,,,,,6474cb4bd6def87a881a5d52,001,2024-06-30_06h32.12.821,empathy_intonation_perc,2024.1.4,Win32,60.60606061,,,,,,,,,,,,,,95,listo,,,,,,313.6277,315.409,1,0,1.2475,,0,83,83,94,1,non_cognate,1,REAL,FALSA
,,,,,,,,,6474cb4bd6def87a881a5d52,001,2024-06-30_06h32.12.821,empathy_intonation_perc,2024.1.4,Win32,60.60606061,,,,,,,,,,,,,,134,molor,,,,,,315.4095,316.8743,0,1,0.9251,,0,84,84,133,1,pseudoword,0,REAL,FALSA
,,,,,,,,,6474cb4bd6def87a881a5d52,001,2024-06-30_06h32.12.821,empathy_intonation_perc,2024.1.4,Win32,60.60606061,,,,,,,,,,,,,,70,ánimo,,,,,,316.8747,319.3888,0,1,1.9811,,0,85,85,69,1,non_cognate,1,REAL,FALSA
,,,,,,,,,6474cb4bd6def87a881a5d52,001,2024-06-30_06h32.12.821,empathy_intonation_perc,2024.1.4,Win32,60.60606061,,,,,,,,,,,,,,97,nocita,,,,,,319.3895,322.0524,1,0,2.1379,,0,86,86,96,1,pseudoword,0,REAL,FALSA
,,,,,,,,,6474cb4bd6def87a881a5d52,001,2024-06-30_06h32.12.821,empathy_intonation_perc,2024.1.4,Win32,60.60606061,,,,,,,,,,,,,,118,bará,,,,,,322.0629,324.1177,1,0,1.5237,,0,87,87,117,1,pseudoword,0,REAL,FALSA
,,,,,,,,,6474cb4bd6def87a881a5d52,001,2024-06-30_06h32.12.821,empathy_intonation_perc,2024.1.4,Win32,60.60606061,,,,,,,,,,,,,,174,pabea,,,,,,324.1184,326.5148,0,1,1.8661,,0,88,88,173,1,pseudoword,0,REAL,FALSA
,,,,,,,,,6474cb4bd6def87a881a5d52,001,2024-06-30_06h32.12.821,empathy_intonation_perc,2024.1.4,Win32,60.60606061,,,,,,,,,,,,,,37,torso,,,,,,326.5153,328.0299,0,1,0.9906,,0,89,89,36,1,two_way_cognate,1,REAL,FALSA
,,,,,,,,,6474cb4bd6def87a881a5d52,001,2024-06-30_06h32.12.821,empathy_intonation_perc,2024.1.4,Win32,60.60606061,,,,,,,,,,,,,,191,frasis,,,,,,328.03,329.9113,0,1,1.3476,,0,90,90,190,1,pseudoword,0,REAL,FALSA
,,,,,,,,,6474cb4bd6def87a881a5d52,001,2024-06-30_06h32.12.821,empathy_intonation_perc,2024.1.4,Win32,60.60606061,,,,,,,,,,,,,,129,vinzó,,,,,,329.9114,334.0906,1,0,3.6429,,0,91,91,128,1,pseudoword,0,REAL,FALSA
,,,,,,,,,6474cb4bd6def87a881a5d52,001,2024-06-30_06h32.12.821,empathy_intonation_perc,2024.1.4,Win32,60.60606061,,,,,,,,,,,,,,179,suelet,,,,,,334.1015,335.7555,0,1,1.1389,,0,92,92,178,1,pseudoword,0,REAL,FALSA
,,,,,,,,,6474cb4bd6def87a881a5d52,001,2024-06-30_06h32.12.821,empathy_intonation_perc,2024.1.4,Win32,60.60606061,,,,,,,,,,,,,,172,dogue,,,,,,335.7557,337.221,1,0,0.9364,,0,93,93,171,1,pseudoword,0,REAL,FALSA
,,,,,,,,,6474cb4bd6def87a881a5d52,001,2024-06-30_06h32.12.821,empathy_intonation_perc,2024.1.4,Win32,60.60606061,,,,,,,,,,,,,,164,tecia,,,,,,337.2213,338.7531,0,1,0.9963,,0,94,94,163,1,pseudoword,0,REAL,FALSA
,,,,,,,,,6474cb4bd6def87a881a5d52,001,2024-06-30_06h32.12.821,empathy_intonation_perc,2024.1.4,Win32,60.60606061,,,,,,,,,,,,,,41,pasta,,,,,,338.7536,340.2181,1,0,0.9392,,0,95,95,40,1,two_way_cognate,1,REAL,FALSA
,,,,,,,,,6474cb4bd6def87a881a5d52,001,2024-06-30_06h32.12.821,empathy_intonation_perc,2024.1.4,Win32,60.60606061,,,,,,,,,,,,,,141,virios,,,,,,340.2184,341.9497,0,1,1.2047,,0,96,96,140,1,pseudoword,0,REAL,FALSA
,,,,,,,,,6474cb4bd6def87a881a5d52,001,2024-06-30_06h32.12.821,empathy_intonation_perc,2024.1.4,Win32,60.60606061,,,,,,,,,,,,,,171,gotro,,,,,,341.95,343.365,0,1,0.8792,,0,97,97,170,1,pseudoword,0,REAL,FALSA
,,,,,,,,,6474cb4bd6def87a881a5d52,001,2024-06-30_06h32.12.821,empathy_intonation_perc,2024.1.4,Win32,60.60606061,,,,,,,,,,,,,,57,regalo,,,,,,343.3654,344.897,0,1,0.9952,,0,98,98,56,1,non_cognate,1,REAL,FALSA
,,,,,,,,,6474cb4bd6def87a881a5d52,001,2024-06-30_06h32.12.821,empathy_intonation_perc,2024.1.4,Win32,60.60606061,,,,,,,,,,,,,,105,leniz,,,,,,344.8974,348.4767,1,0,3.0539,,0,99,99,104,1,pseudoword,0,REAL,FALSA
,,,,,,,,,6474cb4bd6def87a881a5d52,001,2024-06-30_06h32.12.821,empathy_intonation_perc,2024.1.4,Win32,60.60606061,,,,,,,,,,,,,,103,vueras,,,,,,348.4841,351.0242,0,1,2.0226,,0,100,100,102,1,pseudoword,0,REAL,FALSA
,,,,,,,,,6474cb4bd6def87a881a5d52,001,2024-06-30_06h32.12.821,empathy_intonation_perc,2024.1.4,Win32,60.60606061,,,,,,,,,,,,,,116,grigir,,,,,,351.0249,352.8891,1,0,1.3337,,0,101,101,115,1,pseudoword,0,REAL,FALSA
,,,,,,,,,6474cb4bd6def87a881a5d52,001,2024-06-30_06h32.12.821,empathy_intonation_perc,2024.1.4,Win32,60.60606061,,,,,,,,,,,,,,157,seled,,,,,,352.8897,354.6539,0,1,1.2301,,0,102,102,156,1,pseudoword,0,REAL,FALSA
,,,,,,,,,6474cb4bd6def87a881a5d52,001,2024-06-30_06h32.12.821,empathy_intonation_perc,2024.1.4,Win32,60.60606061,,,,,,,,,,,,,,162,cengo,,,,,,354.6542,355.9857,0,1,0.8079,,0,103,103,161,1,pseudoword,0,REAL,FALSA
,,,,,,,,,6474cb4bd6def87a881a5d52,001,2024-06-30_06h32.12.821,empathy_intonation_perc,2024.1.4,Win32,60.60606061,,,,,,,,,,,,,,160,fomeó,,,,,,355.9859,357.1681,1,0,0.6536,,0,104,104,159,1,pseudoword,0,REAL,FALSA
,,,,,,,,,6474cb4bd6def87a881a5d52,001,2024-06-30_06h32.12.821,empathy_intonation_perc,2024.1.4,Win32,60.60606061,,,,,,,,,,,,,,72,rostro,,,,,,357.1683,358.484,0,1,0.7807,,0,105,105,71,1,non_cognate,1,REAL,FALSA
,,,,,,,,,6474cb4bd6def87a881a5d52,001,2024-06-30_06h32.12.821,empathy_intonation_perc,2024.1.4,Win32,60.60606061,,,,,,,,,,,,,,23,plural,,,,,,358.4846,359.999,1,0,0.9798,,0,106,106,22,1,three_way_cognate,1,REAL,FALSA
,,,,,,,,,6474cb4bd6def87a881a5d52,001,2024-06-30_06h32.12.821,empathy_intonation_perc,2024.1.4,Win32,60.60606061,,,,,,,,,,,,,,192,próces,,,,,,359.9994,361.4138,1,0,0.8908,,0,107,107,191,1,pseudoword,0,REAL,FALSA
,,,,,,,,,6474cb4bd6def87a881a5d52,001,2024-06-30_06h32.12.821,empathy_intonation_perc,2024.1.4,Win32,60.60606061,,,,,,,,,,,,,,1,moral,,,,,,361.4141,372.8699,1,0,10.9281,,0,108,108,0,1,three_way_cognate,1,REAL,FALSA
,,,,,,,,,6474cb4bd6def87a881a5d52,001,2024-06-30_06h32.12.821,empathy_intonation_perc,2024.1.4,Win32,60.60606061,,,,,,,,,,,,,,59,feo,,,,,,372.8853,375.0007,0,1,1.5994,,0,109,109,58,1,non_cognate,1,REAL,FALSA
,,,,,,,,,6474cb4bd6def87a881a5d52,001,2024-06-30_06h32.12.821,empathy_intonation_perc,2024.1.4,Win32,60.60606061,,,,,,,,,,,,,,54,tapón,,,,,,375.0011,376.5992,1,0,1.064,,0,110,110,53,1,non_cognate,1,REAL,FALSA
,,,,,,,,,6474cb4bd6def87a881a5d52,001,2024-06-30_06h32.12.821,empathy_intonation_perc,2024.1.4,Win32,60.60606061,,,,,,,,,,,,,,2,tumor,,,,,,376.5994,377.8312,1,0,0.7025,,0,111,111,1,1,three_way_cognate,1,REAL,FALSA
,,,,,,,,,6474cb4bd6def87a881a5d52,001,2024-06-30_06h32.12.821,empathy_intonation_perc,2024.1.4,Win32,60.60606061,,,,,,,,,,,,,,62,pegar,,,,,,377.8314,382.5099,0,1,4.1476,,0,112,112,61,1,non_cognate,1,REAL,FALSA
,,,,,,,,,6474cb4bd6def87a881a5d52,001,2024-06-30_06h32.12.821,empathy_intonation_perc,2024.1.4,Win32,60.60606061,,,,,,,,,,,,,,142,parre,,,,,,382.5167,383.8921,0,1,0.8543,,0,113,113,141,1,pseudoword,0,REAL,FALSA
,,,,,,,,,6474cb4bd6def87a881a5d52,001,2024-06-30_06h32.12.821,empathy_intonation_perc,2024.1.4,Win32,60.60606061,,,,,,,,,,,,,,104,estulo,,,,,,383.8926,385.3738,1,0,0.9505,,0,114,114,103,1,pseudoword,0,REAL,FALSA
,,,,,,,,,6474cb4bd6def87a881a5d52,001,2024-06-30_06h32.12.821,empathy_intonation_perc,2024.1.4,Win32,60.60606061,,,,,,,,,,,,,,60,siglo,,,,,,385.374,386.7892,0,1,0.888,,0,115,115,59,1,non_cognate,1,REAL,FALSA
,,,,,,,,,6474cb4bd6def87a881a5d52,001,2024-06-30_06h32.12.821,empathy_intonation_perc,2024.1.4,Win32,60.60606061,,,,,,,,,,,,,,86,cuenco,,,,,,386.7896,388.3211,0,1,1.0014,,0,116,116,85,1,non_cognate,1,REAL,FALSA
,,,,,,,,,6474cb4bd6def87a881a5d52,001,2024-06-30_06h32.12.821,empathy_intonation_perc,2024.1.4,Win32,60.60606061,,,,,,,,,,,,,,25,vigor,,,,,,388.3215,390.6853,0,1,1.8387,,0,117,117,24,1,two_way_cognate,1,REAL,FALSA
,,,,,,,,,6474cb4bd6def87a881a5d52,001,2024-06-30_06h32.12.821,empathy_intonation_perc,2024.1.4,Win32,60.60606061,,,,,,,,,,,,,,108,jauda,,,,,,390.6856,392.4175,0,1,1.2084,,0,118,118,107,1,pseudoword,0,REAL,FALSA
,,,,,,,,,6474cb4bd6def87a881a5d52,001,2024-06-30_06h32.12.821,empathy_intonation_perc,2024.1.4,Win32,60.60606061,,,,,,,,,,,,,,47,color,,,,,,392.418,393.8164,1,0,0.8723,,0,119,119,46,1,two_way_cognate,1,REAL,FALSA
,,,,,,,,,6474cb4bd6def87a881a5d52,001,2024-06-30_06h32.12.821,empathy_intonation_perc,2024.1.4,Win32,60.60606061,,,,,,,,,,,,,,12,dogma,,,,,,393.8173,395.3309,0,1,0.987,,0,120,120,11,1,three_way_cognate,1,REAL,FALSA
,,,,,,,,,6474cb4bd6def87a881a5d52,001,2024-06-30_06h32.12.821,empathy_intonation_perc,2024.1.4,Win32,60.60606061,,,,,,,,,,,,,,88,percha,,,,,,395.3311,396.5461,0,1,0.6889,,0,121,121,87,1,non_cognate,1,REAL,FALSA
,,,,,,,,,6474cb4bd6def87a881a5d52,001,2024-06-30_06h32.12.821,empathy_intonation_perc,2024.1.4,Win32,60.60606061,,,,,,,,,,,,,,132,nocó,,,,,,396.5465,397.9615,0,1,0.884,,0,122,122,131,1,pseudoword,0,REAL,FALSA
,,,,,,,,,6474cb4bd6def87a881a5d52,001,2024-06-30_06h32.12.821,empathy_intonation_perc,2024.1.4,Win32,60.60606061,,,,,,,,,,,,,,155,kugis,,,,,,397.9617,399.2769,0,1,0.7793,,0,123,123,154,1,pseudoword,0,REAL,FALSA
,,,,,,,,,6474cb4bd6def87a881a5d52,001,2024-06-30_06h32.12.821,empathy_intonation_perc,2024.1.4,Win32,60.60606061,,,,,,,,,,,,,,182,desaro,,,,,,399.2774,400.8759,1,0,1.0655,,0,124,124,181,1,pseudoword,0,REAL,FALSA
,,,,,,,,,6474cb4bd6def87a881a5d52,001,2024-06-30_06h32.12.821,empathy_intonation_perc,2024.1.4,Win32,60.60606061,,,,,,,,,,,,,,144,diroco,,,,,,400.8765,402.3239,0,1,0.9159,,0,125,125,143,1,pseudoword,0,REAL,FALSA
,,,,,,,,,6474cb4bd6def87a881a5d52,001,2024-06-30_06h32.12.821,empathy_intonation_perc,2024.1.4,Win32,60.60606061,,,,,,,,,,,,,,66,aleta,,,,,,402.3243,403.889,1,0,1.0376,,0,126,126,65,1,non_cognate,1,REAL,FALSA
,,,,,,,,,6474cb4bd6def87a881a5d52,001,2024-06-30_06h32.12.821,empathy_intonation_perc,2024.1.4,Win32,60.60606061,,,,,,,,,,,,,,117,morrá,,,,,,403.8892,405.371,0,1,0.9453,,0,127,127,116,1,pseudoword,0,REAL,FALSA
,,,,,,,,,6474cb4bd6def87a881a5d52,001,2024-06-30_06h32.12.821,empathy_intonation_perc,2024.1.4,Win32,60.60606061,,,,,,,,,,,,,,20,trauma,,,,,,405.3712,406.5202,1,0,0.6221,,0,128,128,19,1,three_way_cognate,1,REAL,FALSA
,,,,,,,,,6474cb4bd6def87a881a5d52,001,2024-06-30_06h32.12.821,empathy_intonation_perc,2024.1.4,Win32,60.60606061,,,,,,,,,,,,,,177,entodo,,,,,,406.5207,409.3675,0,1,2.3126,,0,129,129,176,1,pseudoword,0,REAL,FALSA
,,,,,,,,,6474cb4bd6def87a881a5d52,001,2024-06-30_06h32.12.821,empathy_intonation_perc,2024.1.4,Win32,60.60606061,,,,,,,,,,,,,,173,mibro,,,,,,409.3844,411.8811,1,0,1.9606,,0,130,130,172,1,pseudoword,0,REAL,FALSA
,,,,,,,,,6474cb4bd6def87a881a5d52,001,2024-06-30_06h32.12.821,empathy_intonation_perc,2024.1.4,Win32,60.60606061,,,,,,,,,,,,,,19,mafia,,,,,,411.8814,413.4298,1,0,1.014,,0,131,131,18,1,three_way_cognate,1,REAL,FALSA
,,,,,,,,,6474cb4bd6def87a881a5d52,001,2024-06-30_06h32.12.821,empathy_intonation_perc,2024.1.4,Win32,60.60606061,,,,,,,,,,,,,,101,losco,,,,,,413.4302,415.028,0,1,1.0628,,0,132,132,100,1,pseudoword,0,REAL,FALSA
,,,,,,,,,6474cb4bd6def87a881a5d52,001,2024-06-30_06h32.12.821,empathy_intonation_perc,2024.1.4,Win32,60.60606061,,,,,,,,,,,,,,190,asumie,,,,,,415.0282,416.3268,0,1,0.7804,,0,133,133,189,1,pseudoword,0,REAL,FALSA
,,,,,,,,,6474cb4bd6def87a881a5d52,001,2024-06-30_06h32.12.821,empathy_intonation_perc,2024.1.4,Win32,60.60606061,,,,,,,,,,,,,,69,tiza,,,,,,416.3272,418.3414,0,1,1.4867,,0,134,134,68,1,non_cognate,1,REAL,FALSA
,,,,,,,,,6474cb4bd6def87a881a5d52,001,2024-06-30_06h32.12.821,empathy_intonation_perc,2024.1.4,Win32,60.60606061,,,,,,,,,,,,,,98,martir,,,,,,418.3417,420.2398,0,1,1.3635,,0,135,135,97,1,pseudoword,0,REAL,FALSA
,,,,,,,,,6474cb4bd6def87a881a5d52,001,2024-06-30_06h32.12.821,empathy_intonation_perc,2024.1.4,Win32,60.60606061,,,,,,,,,,,,,,26,enigma,,,,,,420.24,421.5719,0,1,0.8044,,0,136,136,25,1,two_way_cognate,1,REAL,FALSA
,,,,,,,,,6474cb4bd6def87a881a5d52,001,2024-06-30_06h32.12.821,empathy_intonation_perc,2024.1.4,Win32,60.60606061,,,,,,,,,,,,,,119,esís,,,,,,421.5723,422.8541,0,1,0.7503,,0,137,137,118,1,pseudoword,0,REAL,FALSA
,,,,,,,,,6474cb4bd6def87a881a5d52,001,2024-06-30_06h32.12.821,empathy_intonation_perc,2024.1.4,Win32,60.60606061,,,,,,,,,,,,,,111,monue,,,,,,422.8544,424.1357,1,0,0.7523,,0,138,138,110,1,pseudoword,0,REAL,FALSA
,,,,,,,,,6474cb4bd6def87a881a5d52,001,2024-06-30_06h32.12.821,empathy_intonation_perc,2024.1.4,Win32,60.60606061,,,,,,,,,,,,,,87,muleta,,,,,,424.1359,425.4013,1,0,0.7337,,0,139,139,86,1,non_cognate,1,REAL,FALSA
,,,,,,,,,6474cb4bd6def87a881a5d52,001,2024-06-30_06h32.12.821,empathy_intonation_perc,2024.1.4,Win32,60.60606061,,,,,,,,,,,,,,71,torta,,,,,,425.4015,426.7169,1,0,0.7849,,0,140,140,70,1,non_cognate,1,REAL,FALSA
,,,,,,,,,6474cb4bd6def87a881a5d52,001,2024-06-30_06h32.12.821,empathy_intonation_perc,2024.1.4,Win32,60.60606061,,,,,,,,,,,,,,114,dibrea,,,,,,426.7172,429.0476,1,0,1.8049,,0,141,141,113,1,pseudoword,0,REAL,FALSA
,,,,,,,,,6474cb4bd6def87a881a5d52,001,2024-06-30_06h32.12.821,empathy_intonation_perc,2024.1.4,Win32,60.60606061,,,,,,,,,,,,,,65,guerra,,,,,,429.0538,430.2629,0,1,0.6811,,0,142,142,64,1,non_cognate,1,REAL,FALSA
,,,,,,,,,6474cb4bd6def87a881a5d52,001,2024-06-30_06h32.12.821,empathy_intonation_perc,2024.1.4,Win32,60.60606061,,,,,,,,,,,,,,9,portal,,,,,,430.2632,431.5453,0,1,0.7519,,0,143,143,8,1,three_way_cognate,1,REAL,FALSA
,,,,,,,,,6474cb4bd6def87a881a5d52,001,2024-06-30_06h32.12.821,empathy_intonation_perc,2024.1.4,Win32,60.60606061,,,,,,,,,,,,,,122,boñaz,,,,,,431.5454,433.177,0,1,1.1006,,0,144,144,121,1,pseudoword,0,REAL,FALSA
,,,,,,,,,6474cb4bd6def87a881a5d52,001,2024-06-30_06h32.12.821,empathy_intonation_perc,2024.1.4,Win32,60.60606061,,,,,,,,,,,,,,28,ardor,,,,,,433.1772,435.2587,1,0,1.5548,,0,145,145,27,1,two_way_cognate,1,REAL,FALSA
,,,,,,,,,6474cb4bd6def87a881a5d52,001,2024-06-30_06h32.12.821,empathy_intonation_perc,2024.1.4,Win32,60.60606061,,,,,,,,,,,,,,186,rizate,,,,,,435.259,437.7558,0,1,1.9713,,0,146,146,185,1,pseudoword,0,REAL,FALSA
,,,,,,,,,6474cb4bd6def87a881a5d52,001,2024-06-30_06h32.12.821,empathy_intonation_perc,2024.1.4,Win32,60.60606061,,,,,,,,,,,,,,107,plago,,,,,,437.7561,438.9715,0,1,0.6827,,0,147,147,106,1,pseudoword,0,REAL,FALSA
,,,,,,,,,6474cb4bd6def87a881a5d52,001,2024-06-30_06h32.12.821,empathy_intonation_perc,2024.1.4,Win32,60.60606061,,,,,,,,,,,,,,184,huenos,,,,,,438.9718,440.1201,0,1,0.6247,,0,148,148,183,1,pseudoword,0,REAL,FALSA
,,,,,,,,,6474cb4bd6def87a881a5d52,001,2024-06-30_06h32.12.821,empathy_intonation_perc,2024.1.4,Win32,60.60606061,,,,,,,,,,,,,,128,pelí,,,,,,440.1204,441.2191,0,1,0.5756,,0,149,149,127,1,pseudoword,0,REAL,FALSA
,,,,,,,,,6474cb4bd6def87a881a5d52,001,2024-06-30_06h32.12.821,empathy_intonation_perc,2024.1.4,Win32,60.60606061,,,,,,,,,,,,,,139,sasos,,,,,,441.2194,442.6512,1,0,0.9,,0,150,150,138,1,pseudoword,0,REAL,FALSA
,,,,,,,,,6474cb4bd6def87a881a5d52,001,2024-06-30_06h32.12.821,empathy_intonation_perc,2024.1.4,Win32,60.60606061,,,,,,,,,,,,,,8,kilo,,,,,,442.6516,443.9165,1,0,0.7334,,0,151,151,7,1,three_way_cognate,1,REAL,FALSA
,,,,,,,,,6474cb4bd6def87a881a5d52,001,2024-06-30_06h32.12.821,empathy_intonation_perc,2024.1.4,Win32,60.60606061,,,,,,,,,,,,,,82,brillo,,,,,,443.9171,445.1322,1,0,0.6763,,0,152,152,81,1,non_cognate,1,REAL,FALSA
,,,,,,,,,6474cb4bd6def87a881a5d52,001,2024-06-30_06h32.12.821,empathy_intonation_perc,2024.1.4,Win32,60.60606061,,,,,,,,,,,,,,94,forro,,,,,,445.1328,446.5971,0,1,0.9393,,0,153,153,93,1,non_cognate,1,REAL,FALSA
,,,,,,,,,6474cb4bd6def87a881a5d52,001,2024-06-30_06h32.12.821,empathy_intonation_perc,2024.1.4,Win32,60.60606061,,,,,,,,,,,,,,38,halo,,,,,,446.5974,447.9798,1,0,0.8568,,0,154,154,37,1,two_way_cognate,1,REAL,FALSA
,,,,,,,,,6474cb4bd6def87a881a5d52,001,2024-06-30_06h32.12.821,empathy_intonation_perc,2024.1.4,Win32,60.60606061,,,,,,,,,,,,,,40,pelvis,,,,,,447.9805,449.3117,1,0,0.7955,,0,155,155,39,1,two_way_cognate,1,REAL,FALSA
,,,,,,,,,6474cb4bd6def87a881a5d52,001,2024-06-30_06h32.12.821,empathy_intonation_perc,2024.1.4,Win32,60.60606061,,,,,,,,,,,,,,169,pitis,,,,,,449.3128,451.9253,1,0,2.0809,,0,156,156,168,1,pseudoword,0,REAL,FALSA
,,,,,,,,,6474cb4bd6def87a881a5d52,001,2024-06-30_06h32.12.821,empathy_intonation_perc,2024.1.4,Win32,60.60606061,,,,,,,,,,,,,,44,editor,,,,,,451.9257,453.3072,1,0,0.8506,,0,157,157,43,1,two_way_cognate,1,REAL,FALSA
,,,,,,,,,6474cb4bd6def87a881a5d52,001,2024-06-30_06h32.12.821,empathy_intonation_perc,2024.1.4,Win32,60.60606061,,,,,,,,,,,,,,45,total,,,,,,453.3075,454.4395,1,0,0.5924,,0,158,158,44,1,two_way_cognate,1,REAL,FALSA
,,,,,,,,,6474cb4bd6def87a881a5d52,001,2024-06-30_06h32.12.821,empathy_intonation_perc,2024.1.4,Win32,60.60606061,,,,,,,,,,,,,,137,trugo,,,,,,454.4398,456.5708,0,1,1.5968,,0,159,159,136,1,pseudoword,0,REAL,FALSA
,,,,,,,,,6474cb4bd6def87a881a5d52,001,2024-06-30_06h32.12.821,empathy_intonation_perc,2024.1.4,Win32,60.60606061,,,,,,,,,,,,,,109,laras,,,,,,456.5711,458.7519,0,1,1.6446,,0,160,160,108,1,pseudoword,0,REAL,FALSA
,,,,,,,,,6474cb4bd6def87a881a5d52,001,2024-06-30_06h32.12.821,empathy_intonation_perc,2024.1.4,Win32,60.60606061,,,,,,,,,,,,,,99,bugor,,,,,,458.7521,460.1339,0,1,0.8509,,0,161,161,98,1,pseudoword,0,REAL,FALSA
,,,,,,,,,6474cb4bd6def87a881a5d52,001,2024-06-30_06h32.12.821,empathy_intonation_perc,2024.1.4,Win32,60.60606061,,,,,,,,,,,,,,187,nomata,,,,,,460.1341,461.3993,0,1,0.7298,,0,162,162,186,1,pseudoword,0,REAL,FALSA
,,,,,,,,,6474cb4bd6def87a881a5d52,001,2024-06-30_06h32.12.821,empathy_intonation_perc,2024.1.4,Win32,60.60606061,,,,,,,,,,,,,,64,rizado,,,,,,461.3996,462.6482,0,1,0.7146,,0,163,163,63,1,non_cognate,1,REAL,FALSA
,,,,,,,,,6474cb4bd6def87a881a5d52,001,2024-06-30_06h32.12.821,empathy_intonation_perc,2024.1.4,Win32,60.60606061,,,,,,,,,,,,,,188,amplir,,,,,,462.6484,463.7806,0,1,0.596,,0,164,164,187,1,pseudoword,0,REAL,FALSA
,,,,,,,,,6474cb4bd6def87a881a5d52,001,2024-06-30_06h32.12.821,empathy_intonation_perc,2024.1.4,Win32,60.60606061,,,,,,,,,,,,,,96,caro,,,,,,463.781,464.7965,0,1,0.4877,,0,165,165,95,1,non_cognate,1,REAL,FALSA
,,,,,,,,,6474cb4bd6def87a881a5d52,001,2024-06-30_06h32.12.821,empathy_intonation_perc,2024.1.4,Win32,60.60606061,,,,,,,,,,,,,,74,ala,,,,,,464.797,466.1781,0,1,0.8572,,0,166,166,73,1,non_cognate,1,REAL,FALSA
,,,,,,,,,6474cb4bd6def87a881a5d52,001,2024-06-30_06h32.12.821,empathy_intonation_perc,2024.1.4,Win32,60.60606061,,,,,,,,,,,,,,136,hueas,,,,,,466.1784,467.3438,0,1,0.6418,,0,167,167,135,1,pseudoword,0,REAL,FALSA
,,,,,,,,,6474cb4bd6def87a881a5d52,001,2024-06-30_06h32.12.821,empathy_intonation_perc,2024.1.4,Win32,60.60606061,,,,,,,,,,,,,,92,flecha,,,,,,467.3442,468.9925,0,1,1.1133,,0,168,168,91,1,non_cognate,1,REAL,FALSA
,,,,,,,,,6474cb4bd6def87a881a5d52,001,2024-06-30_06h32.12.821,empathy_intonation_perc,2024.1.4,Win32,60.60606061,,,,,,,,,,,,,,123,arane,,,,,,468.993,470.1745,0,1,0.6525,,0,169,169,122,1,pseudoword,0,REAL,FALSA
,,,,,,,,,6474cb4bd6def87a881a5d52,001,2024-06-30_06h32.12.821,empathy_intonation_perc,2024.1.4,Win32,60.60606061,,,,,,,,,,,,,,10,drama,,,,,,470.175,471.523,1,0,0.8202,,0,170,170,9,1,three_way_cognate,1,REAL,FALSA
,,,,,,,,,6474cb4bd6def87a881a5d52,001,2024-06-30_06h32.12.821,empathy_intonation_perc,2024.1.4,Win32,60.60606061,,,,,,,,,,,,,,58,colcha,,,,,,471.5233,472.8881,0,1,0.8314,,0,171,171,57,1,non_cognate,1,REAL,FALSA
,,,,,,,,,6474cb4bd6def87a881a5d52,001,2024-06-30_06h32.12.821,empathy_intonation_perc,2024.1.4,Win32,60.60606061,,,,,,,,,,,,,,154,harvé,,,,,,472.8885,474.0204,1,0,0.6017,,0,172,172,153,1,pseudoword,0,REAL,FALSA
,,,,,,,,,6474cb4bd6def87a881a5d52,001,2024-06-30_06h32.12.821,empathy_intonation_perc,2024.1.4,Win32,60.60606061,,,,,,,,,,,,,,166,anfia,,,,,,474.0207,475.4856,0,1,0.9407,,0,173,173,165,1,pseudoword,0,REAL,FALSA
,,,,,,,,,6474cb4bd6def87a881a5d52,001,2024-06-30_06h32.12.821,empathy_intonation_perc,2024.1.4,Win32,60.60606061,,,,,,,,,,,,,,149,emén,,,,,,475.4861,476.6349,1,0,0.6112,,0,174,174,148,1,pseudoword,0,REAL,FALSA
,,,,,,,,,6474cb4bd6def87a881a5d52,001,2024-06-30_06h32.12.821,empathy_intonation_perc,2024.1.4,Win32,60.60606061,,,,,,,,,,,,,,78,rendir,,,,,,476.6356,478.0335,0,1,0.8648,,0,175,175,77,1,non_cognate,1,REAL,FALSA
,,,,,,,,,6474cb4bd6def87a881a5d52,001,2024-06-30_06h32.12.821,empathy_intonation_perc,2024.1.4,Win32,60.60606061,,,,,,,,,,,,,,152,prave,,,,,,478.0339,479.5315,0,1,0.9661,,0,176,176,151,1,pseudoword,0,REAL,FALSA
,,,,,,,,,6474cb4bd6def87a881a5d52,001,2024-06-30_06h32.12.821,empathy_intonation_perc,2024.1.4,Win32,60.60606061,,,,,,,,,,,,,,16,chat,,,,,,479.5318,480.7806,1,0,0.7147,,0,177,177,15,1,three_way_cognate,1,REAL,FALSA
,,,,,,,,,6474cb4bd6def87a881a5d52,001,2024-06-30_06h32.12.821,empathy_intonation_perc,2024.1.4,Win32,60.60606061,,,,,,,,,,,,,,80,cuenco,,,,,,480.781,482.1624,0,1,0.8422,,0,178,178,79,1,non_cognate,1,REAL,FALSA
,,,,,,,,,6474cb4bd6def87a881a5d52,001,2024-06-30_06h32.12.821,empathy_intonation_perc,2024.1.4,Win32,60.60606061,,,,,,,,,,,,,,183,edioso,,,,,,482.1627,483.4614,0,1,0.7627,,0,179,179,182,1,pseudoword,0,REAL,FALSA
,,,,,,,,,6474cb4bd6def87a881a5d52,001,2024-06-30_06h32.12.821,empathy_intonation_perc,2024.1.4,Win32,60.60606061,,,,,,,,,,,,,,153,golla,,,,,,483.4619,485.1263,0,1,1.138,,0,180,180,152,1,pseudoword,0,REAL,FALSA
,,,,,,,,,6474cb4bd6def87a881a5d52,001,2024-06-30_06h32.12.821,empathy_intonation_perc,2024.1.4,Win32,60.60606061,,,,,,,,,,,,,,158,babrá,,,,,,485.1267,486.1256,1,0,0.4695,,0,181,181,157,1,pseudoword,0,REAL,FALSA
,,,,,,,,,6474cb4bd6def87a881a5d52,001,2024-06-30_06h32.12.821,empathy_intonation_perc,2024.1.4,Win32,60.60606061,,,,,,,,,,,,,,30,fiscal,,,,,,486.1259,487.4239,0,1,0.7712,,0,182,182,29,1,two_way_cognate,1,REAL,FALSA
,,,,,,,,,6474cb4bd6def87a881a5d52,001,2024-06-30_06h32.12.821,empathy_intonation_perc,2024.1.4,Win32,60.60606061,,,,,,,,,,,,,,138,tator,,,,,,487.424,488.8224,0,1,0.8639,,0,183,183,137,1,pseudoword,0,REAL,FALSA
,,,,,,,,,6474cb4bd6def87a881a5d52,001,2024-06-30_06h32.12.821,empathy_intonation_perc,2024.1.4,Win32,60.60606061,,,,,,,,,,,,,,51,listo,,,,,,488.8226,490.0049,0,1,0.6587,,0,184,184,50,1,non_cognate,1,REAL,FALSA
,,,,,,,,,6474cb4bd6def87a881a5d52,001,2024-06-30_06h32.12.821,empathy_intonation_perc,2024.1.4,Win32,60.60606061,,,,,,,,,,,,,,161,civas,,,,,,490.0052,491.9032,1,0,1.372,,0,185,185,160,1,pseudoword,0,REAL,FALSA
,,,,,,,,,6474cb4bd6def87a881a5d52,001,2024-06-30_06h32.12.821,empathy_intonation_perc,2024.1.4,Win32,60.60606061,,,,,,,,,,,,,,56,pico,,,,,,491.9038,493.2348,1,0,0.8044,,0,186,186,55,1,non_cognate,1,REAL,FALSA
,,,,,,,,,6474cb4bd6def87a881a5d52,001,2024-06-30_06h32.12.821,empathy_intonation_perc,2024.1.4,Win32,60.60606061,,,,,,,,,,,,,,180,pupica,,,,,,493.235,495.3496,0,1,1.5857,,0,187,187,179,1,pseudoword,0,REAL,FALSA
,,,,,,,,,6474cb4bd6def87a881a5d52,001,2024-06-30_06h32.12.821,empathy_intonation_perc,2024.1.4,Win32,60.60606061,,,,,,,,,,,,,,39,casual,,,,,,495.3498,496.8482,1,0,0.9693,,0,188,188,38,1,two_way_cognate,1,REAL,FALSA
,,,,,,,,,6474cb4bd6def87a881a5d52,001,2024-06-30_06h32.12.821,empathy_intonation_perc,2024.1.4,Win32,60.60606061,,,,,,,,,,,,,,50,sierra,,,,,,496.8486,498.4967,1,0,1.1132,,0,189,189,49,1,non_cognate,1,REAL,FALSA
,,,,,,,,,6474cb4bd6def87a881a5d52,001,2024-06-30_06h32.12.821,empathy_intonation_perc,2024.1.4,Win32,60.60606061,,,,,,,,,,,,,,34,actor,,,,,,498.4973,499.9283,1,0,0.9056,,0,190,190,33,1,two_way_cognate,1,REAL,FALSA
,,,,,,,,,6474cb4bd6def87a881a5d52,001,2024-06-30_06h32.12.821,empathy_intonation_perc,2024.1.4,Win32,60.60606061,,,,,,,,,,,,,,133,conso,,,,,,499.9286,501.2771,0,1,0.814,,0,191,191,132,1,pseudoword,0,REAL,FALSA
