lextale_instructions.started,lextale_instructions.stopped,lextale_instructions_loop.thisRepN,lextale_instructions_loop.thisTrialN,lextale_instructions_loop.thisN,lextale_instructions_loop.thisIndex,lextale_instructions_loop.ran,instructions_text,continue_text,participant,session,date,expName,psychopyVersion,OS,frameRate,lextale_practice.started,lextale_practice.stopped,key_resp_lextale_practice.keys,key_resp_lextale_practice.corr,key_resp_lextale_practice.rt,key_resp_lextale_practice.duration,lextale_practice_feedback.started,lextale_practice_feedback.stopped,lextale_practice_trials.thisRepN,lextale_practice_trials.thisTrialN,lextale_practice_trials.thisN,lextale_practice_trials.thisIndex,lextale_practice_trials.ran,stim,word,correct_response,prac_button_real,prac_button_false,lextale_check.started,lextale_check.stopped,lextale_trial.started,lextale_trial.stopped,key_resp_lextale_trial.keys,key_resp_lextale_trial.corr,key_resp_lextale_trial.rt,key_resp_lextale_trial.duration,lextail_trials.thisRepN,lextail_trials.thisTrialN,lextail_trials.thisN,lextail_trials.thisIndex,lextail_trials.ran,type,correct_reponse,button_real,button_false
0.01,420.442,0,0,0,0,1,"Este es un test de vocabulario en español. 
  
  A continuación vas a ver 90 secuencias de letras que parecen 'españolas'.
  
  Solo algunas de ellas son palabras de verdad.",(presiona la barra espaciadora para continuar),6603644b9253f00e9bf93f02,001,2024-06-30_06h21.50.519,empathy_intonation_perc,2024.1.4,Win32,60.0240096,,,,,,,,,,,,,,,,,,,,,,,,,,,,,,,,,,,
420.448,443.872,0,1,1,1,1,"Por favor, señala las palabras que tú conoces (aquellas que estás convencido que son palabras españolas, incluso aunque no seas capaz de dar el significado preciso).",(presiona la barra espaciadora para continuar),6603644b9253f00e9bf93f02,001,2024-06-30_06h21.50.519,empathy_intonation_perc,2024.1.4,Win32,60.0240096,,,,,,,,,,,,,,,,,,,,,,,,,,,,,,,,,,,
443.879,527.006,0,2,2,2,1,Pero cuidado: los errores se penalizan. Por eso no tiene sentido tratar de incrementar tu puntuación marcando como reales palabras que nunca has visto.,(presiona la barra espaciadora para continuar),6603644b9253f00e9bf93f02,001,2024-06-30_06h21.50.519,empathy_intonation_perc,2024.1.4,Win32,60.0240096,,,,,,,,,,,,,,,,,,,,,,,,,,,,,,,,,,,
527.013,577.325,0,3,3,3,1,"Presiona la tecla 1 si piensas que es una palabra real y la tecla 
  0 si piensas que es una palabra falsa. 
  
  Vamos a practicar un poco...",(presiona la barra espaciadora para continuar),6603644b9253f00e9bf93f02,001,2024-06-30_06h21.50.519,empathy_intonation_perc,2024.1.4,Win32,60.0240096,,,,,,,,,,,,,,,,,,,,,,,,,,,,,,,,,,,
,,,,,,,,,6603644b9253f00e9bf93f02,001,2024-06-30_06h21.50.519,empathy_intonation_perc,2024.1.4,Win32,60.0240096,577.345,652.576,0,1,74.689,,652.577,653.572,0,0,0,0,1,0,depiste,0,REAL,FALSA,,,,,,,,,,,,,,,,,
,,,,,,,,,6603644b9253f00e9bf93f02,001,2024-06-30_06h21.50.519,empathy_intonation_perc,2024.1.4,Win32,60.0240096,653.58,679.514,1,1,25.393,,679.514,680.504,0,1,1,1,1,0,sí,1,REAL,FALSA,,,,,,,,,,,,,,,,,
,,,,,,,,,6603644b9253f00e9bf93f02,001,2024-06-30_06h21.50.519,empathy_intonation_perc,2024.1.4,Win32,60.0240096,680.512,709.696,0,1,28.64,,709.696,710.688,0,2,2,2,1,0,coné,0,REAL,FALSA,,,,,,,,,,,,,,,,,
,,,,,,,,,6603644b9253f00e9bf93f02,001,2024-06-30_06h21.50.519,empathy_intonation_perc,2024.1.4,Win32,60.0240096,710.697,714.739,1,0,3.476,,714.741,715.739,0,3,3,3,1,0,calpar,0,REAL,FALSA,,,,,,,,,,,,,,,,,
,,,,,,,,,6603644b9253f00e9bf93f02,001,2024-06-30_06h21.50.519,empathy_intonation_perc,2024.1.4,Win32,60.0240096,715.743,763.594,1,0,47.309,,763.594,764.595,0,4,4,4,1,0,joten,0,REAL,FALSA,,,,,,,,,,,,,,,,,
,,,,,,,,,6603644b9253f00e9bf93f02,001,2024-06-30_06h21.50.519,empathy_intonation_perc,2024.1.4,Win32,60.0240096,764.601,792.234,1,1,27.099,,792.235,793.24,0,5,5,5,1,0,sacapuntas,1,REAL,FALSA,,,,,,,,,,,,,,,,,
,,,,,,,,,6603644b9253f00e9bf93f02,001,2024-06-30_06h21.50.519,empathy_intonation_perc,2024.1.4,Win32,60.0240096,793.248,803.874,0,1,10.092,,803.875,804.867,0,6,6,6,1,0,priba,0,REAL,FALSA,,,,,,,,,,,,,,,,,
,,,,,,,,,6603644b9253f00e9bf93f02,001,2024-06-30_06h21.50.519,empathy_intonation_perc,2024.1.4,Win32,60.0240096,804.869,824.493,0,1,19.096,,824.495,825.49,0,7,7,7,1,0,pelasula,0,REAL,FALSA,,,,,,,,,,,,,,,,,
,,,,,,,,,6603644b9253f00e9bf93f02,001,2024-06-30_06h21.50.519,empathy_intonation_perc,2024.1.4,Win32,60.0240096,825.499,829.76,1,1,3.725,,829.761,830.756,0,8,8,8,1,0,bien,1,REAL,FALSA,,,,,,,,,,,,,,,,,
,,,,,,,,,6603644b9253f00e9bf93f02,001,2024-06-30_06h21.50.519,empathy_intonation_perc,2024.1.4,Win32,60.0240096,830.76,846.073,1,1,14.771,,846.074,847.073,0,9,9,9,1,0,casa,1,REAL,FALSA,,,,,,,,,,,,,,,,,
,,,,,,,,,6603644b9253f00e9bf93f02,001,2024-06-30_06h21.50.519,empathy_intonation_perc,2024.1.4,Win32,60.0240096,847.077,858.246,0,1,10.624,,858.246,859.24,0,10,10,10,1,0,lejo,0,REAL,FALSA,,,,,,,,,,,,,,,,,
,,,,,,,,,6603644b9253f00e9bf93f02,001,2024-06-30_06h21.50.519,empathy_intonation_perc,2024.1.4,Win32,60.0240096,859.249,875.64,0,1,15.859,,875.644,876.64,0,11,11,11,1,0,pretantas,0,REAL,FALSA,,,,,,,,,,,,,,,,,
,,,,,,,,,6603644b9253f00e9bf93f02,001,2024-06-30_06h21.50.519,empathy_intonation_perc,2024.1.4,Win32,60.0240096,,,,,,,,,,,,,,,,,,,876.644,927.665,,,,,,,,,,,,,,,
,,,,,,,,,6603644b9253f00e9bf93f02,001,2024-06-30_06h21.50.519,empathy_intonation_perc,2024.1.4,Win32,60.0240096,,,,,,,,,,,,,,19,mafia,,,,,,927.749,931.079,1,0,2.795,,0,0,0,18,1,three_way_cognate,1,REAL,FALSA
,,,,,,,,,6603644b9253f00e9bf93f02,001,2024-06-30_06h21.50.519,empathy_intonation_perc,2024.1.4,Win32,60.0240096,,,,,,,,,,,,,,112,samón,,,,,,931.082,935.64,1,0,4.022,,0,1,1,111,1,pseudoword,0,REAL,FALSA
,,,,,,,,,6603644b9253f00e9bf93f02,001,2024-06-30_06h21.50.519,empathy_intonation_perc,2024.1.4,Win32,60.0240096,,,,,,,,,,,,,,121,barbs,,,,,,935.646,937.774,0,1,1.597,,0,2,2,120,1,pseudoword,0,REAL,FALSA
,,,,,,,,,6603644b9253f00e9bf93f02,001,2024-06-30_06h21.50.519,empathy_intonation_perc,2024.1.4,Win32,60.0240096,,,,,,,,,,,,,,41,pasta,,,,,,937.776,940.026,1,0,1.693,,0,3,3,40,1,two_way_cognate,1,REAL,FALSA
,,,,,,,,,6603644b9253f00e9bf93f02,001,2024-06-30_06h21.50.519,empathy_intonation_perc,2024.1.4,Win32,60.0240096,,,,,,,,,,,,,,25,vigor,,,,,,940.028,981.781,1,0,41.209,,0,4,4,24,1,two_way_cognate,1,REAL,FALSA
,,,,,,,,,6603644b9253f00e9bf93f02,001,2024-06-30_06h21.50.519,empathy_intonation_perc,2024.1.4,Win32,60.0240096,,,,,,,,,,,,,,147,alla,,,,,,981.788,999.032,1,0,16.715,,0,5,5,146,1,pseudoword,0,REAL,FALSA
,,,,,,,,,6603644b9253f00e9bf93f02,001,2024-06-30_06h21.50.519,empathy_intonation_perc,2024.1.4,Win32,60.0240096,,,,,,,,,,,,,,46,mortal,,,,,,999.037,1041.678,1,0,42.105,,0,6,6,45,1,two_way_cognate,1,REAL,FALSA
,,,,,,,,,6603644b9253f00e9bf93f02,001,2024-06-30_06h21.50.519,empathy_intonation_perc,2024.1.4,Win32,60.0240096,,,,,,,,,,,,,,77,suave,,,,,,1041.686,1046.994,1,0,4.777,,0,7,7,76,1,non_cognate,1,REAL,FALSA
,,,,,,,,,6603644b9253f00e9bf93f02,001,2024-06-30_06h21.50.519,empathy_intonation_perc,2024.1.4,Win32,60.0240096,,,,,,,,,,,,,,140,chorde,,,,,,1047.003,1058.729,0,1,11.195,,0,8,8,139,1,pseudoword,0,REAL,FALSA
,,,,,,,,,6603644b9253f00e9bf93f02,001,2024-06-30_06h21.50.519,empathy_intonation_perc,2024.1.4,Win32,60.0240096,,,,,,,,,,,,,,111,monue,,,,,,1058.73,1076.082,0,1,16.798,,0,9,9,110,1,pseudoword,0,REAL,FALSA
,,,,,,,,,6603644b9253f00e9bf93f02,001,2024-06-30_06h21.50.519,empathy_intonation_perc,2024.1.4,Win32,60.0240096,,,,,,,,,,,,,,3,disco,,,,,,1076.087,1091.05,1,0,14.428,,0,10,10,2,1,three_way_cognate,1,REAL,FALSA
,,,,,,,,,6603644b9253f00e9bf93f02,001,2024-06-30_06h21.50.519,empathy_intonation_perc,2024.1.4,Win32,60.0240096,,,,,,,,,,,,,,182,desaro,,,,,,1091.056,1102.109,0,1,10.521,,0,11,11,181,1,pseudoword,0,REAL,FALSA
,,,,,,,,,6603644b9253f00e9bf93f02,001,2024-06-30_06h21.50.519,empathy_intonation_perc,2024.1.4,Win32,60.0240096,,,,,,,,,,,,,,74,ala,,,,,,1102.114,1104.626,1,0,1.975,,0,12,12,73,1,non_cognate,1,REAL,FALSA
,,,,,,,,,6603644b9253f00e9bf93f02,001,2024-06-30_06h21.50.519,empathy_intonation_perc,2024.1.4,Win32,60.0240096,,,,,,,,,,,,,,22,mango,,,,,,1104.629,1109.396,1,0,4.227,,0,13,13,21,1,three_way_cognate,1,REAL,FALSA
,,,,,,,,,6603644b9253f00e9bf93f02,001,2024-06-30_06h21.50.519,empathy_intonation_perc,2024.1.4,Win32,60.0240096,,,,,,,,,,,,,,123,arane,,,,,,1109.404,1119.043,0,1,9.105,,0,14,14,122,1,pseudoword,0,REAL,FALSA
,,,,,,,,,6603644b9253f00e9bf93f02,001,2024-06-30_06h21.50.519,empathy_intonation_perc,2024.1.4,Win32,60.0240096,,,,,,,,,,,,,,128,pelí,,,,,,1119.048,1131.493,1,0,11.911,,0,15,15,127,1,pseudoword,0,REAL,FALSA
,,,,,,,,,6603644b9253f00e9bf93f02,001,2024-06-30_06h21.50.519,empathy_intonation_perc,2024.1.4,Win32,60.0240096,,,,,,,,,,,,,,178,inichó,,,,,,1131.497,1158.011,0,1,25.958,,0,16,16,177,1,pseudoword,0,REAL,FALSA
,,,,,,,,,6603644b9253f00e9bf93f02,001,2024-06-30_06h21.50.519,empathy_intonation_perc,2024.1.4,Win32,60.0240096,,,,,,,,,,,,,,142,parre,,,,,,1158.02,1166.993,0,1,8.439,,0,17,17,141,1,pseudoword,0,REAL,FALSA
,,,,,,,,,6603644b9253f00e9bf93f02,001,2024-06-30_06h21.50.519,empathy_intonation_perc,2024.1.4,Win32,60.0240096,,,,,,,,,,,,,,73,llevar,,,,,,1166.997,1184.199,1,0,16.66,,0,18,18,72,1,non_cognate,1,REAL,FALSA
,,,,,,,,,6603644b9253f00e9bf93f02,001,2024-06-30_06h21.50.519,empathy_intonation_perc,2024.1.4,Win32,60.0240096,,,,,,,,,,,,,,92,flecha,,,,,,1184.206,1239.122,1,0,54.387,,0,19,19,91,1,non_cognate,1,REAL,FALSA
,,,,,,,,,6603644b9253f00e9bf93f02,001,2024-06-30_06h21.50.519,empathy_intonation_perc,2024.1.4,Win32,60.0240096,,,,,,,,,,,,,,44,editor,,,,,,1239.134,1249.731,1,0,10.062,,0,20,20,43,1,two_way_cognate,1,REAL,FALSA
,,,,,,,,,6603644b9253f00e9bf93f02,001,2024-06-30_06h21.50.519,empathy_intonation_perc,2024.1.4,Win32,60.0240096,,,,,,,,,,,,,,6,horror,,,,,,1249.734,1254.029,1,0,3.762,,0,21,21,5,1,three_way_cognate,1,REAL,FALSA
,,,,,,,,,6603644b9253f00e9bf93f02,001,2024-06-30_06h21.50.519,empathy_intonation_perc,2024.1.4,Win32,60.0240096,,,,,,,,,,,,,,12,dogma,,,,,,1254.031,1292.632,1,0,38.058,,0,22,22,11,1,three_way_cognate,1,REAL,FALSA
,,,,,,,,,6603644b9253f00e9bf93f02,001,2024-06-30_06h21.50.519,empathy_intonation_perc,2024.1.4,Win32,60.0240096,,,,,,,,,,,,,,89,muñeca,,,,,,1292.637,1307.319,1,0,14.148,,0,23,23,88,1,non_cognate,1,REAL,FALSA
,,,,,,,,,6603644b9253f00e9bf93f02,001,2024-06-30_06h21.50.519,empathy_intonation_perc,2024.1.4,Win32,60.0240096,,,,,,,,,,,,,,48,pelvis,,,,,,1307.324,1317.328,1,0,9.475,,0,24,24,47,1,two_way_cognate,1,REAL,FALSA
,,,,,,,,,6603644b9253f00e9bf93f02,001,2024-06-30_06h21.50.519,empathy_intonation_perc,2024.1.4,Win32,60.0240096,,,,,,,,,,,,,,179,suelet,,,,,,1317.333,1334.58,0,1,16.707,,0,25,25,178,1,pseudoword,0,REAL,FALSA
,,,,,,,,,6603644b9253f00e9bf93f02,001,2024-06-30_06h21.50.519,empathy_intonation_perc,2024.1.4,Win32,60.0240096,,,,,,,,,,,,,,28,ardor,,,,,,1334.588,1384.382,1,0,49.257,,0,26,26,27,1,two_way_cognate,1,REAL,FALSA
,,,,,,,,,6603644b9253f00e9bf93f02,001,2024-06-30_06h21.50.519,empathy_intonation_perc,2024.1.4,Win32,60.0240096,,,,,,,,,,,,,,186,rizate,,,,,,1384.39,1402.453,0,1,17.529,,0,27,27,185,1,pseudoword,0,REAL,FALSA
,,,,,,,,,6603644b9253f00e9bf93f02,001,2024-06-30_06h21.50.519,empathy_intonation_perc,2024.1.4,Win32,60.0240096,,,,,,,,,,,,,,4,flora,,,,,,1402.46,1412.434,1,0,9.448,,0,28,28,3,1,three_way_cognate,1,REAL,FALSA
,,,,,,,,,6603644b9253f00e9bf93f02,001,2024-06-30_06h21.50.519,empathy_intonation_perc,2024.1.4,Win32,60.0240096,,,,,,,,,,,,,,164,tecia,,,,,,1412.437,1421.312,0,1,8.341,,0,29,29,163,1,pseudoword,0,REAL,FALSA
,,,,,,,,,6603644b9253f00e9bf93f02,001,2024-06-30_06h21.50.519,empathy_intonation_perc,2024.1.4,Win32,60.0240096,,,,,,,,,,,,,,127,vien,,,,,,1421.315,1423.778,1,0,1.926,,0,30,30,126,1,pseudoword,0,REAL,FALSA
,,,,,,,,,6603644b9253f00e9bf93f02,001,2024-06-30_06h21.50.519,empathy_intonation_perc,2024.1.4,Win32,60.0240096,,,,,,,,,,,,,,80,cuenco,,,,,,1423.781,1435.5,1,0,11.18,,0,31,31,79,1,non_cognate,1,REAL,FALSA
,,,,,,,,,6603644b9253f00e9bf93f02,001,2024-06-30_06h21.50.519,empathy_intonation_perc,2024.1.4,Win32,60.0240096,,,,,,,,,,,,,,35,aurora,,,,,,1435.507,1446.595,1,0,10.559,,0,32,32,34,1,two_way_cognate,1,REAL,FALSA
,,,,,,,,,6603644b9253f00e9bf93f02,001,2024-06-30_06h21.50.519,empathy_intonation_perc,2024.1.4,Win32,60.0240096,,,,,,,,,,,,,,115,lidena,,,,,,1446.6,1491.782,0,1,44.642,,0,33,33,114,1,pseudoword,0,REAL,FALSA
,,,,,,,,,6603644b9253f00e9bf93f02,001,2024-06-30_06h21.50.519,empathy_intonation_perc,2024.1.4,Win32,60.0240096,,,,,,,,,,,,,,180,pupica,,,,,,1491.79,1506.187,0,1,13.867,,0,34,34,179,1,pseudoword,0,REAL,FALSA
,,,,,,,,,6603644b9253f00e9bf93f02,001,2024-06-30_06h21.50.519,empathy_intonation_perc,2024.1.4,Win32,60.0240096,,,,,,,,,,,,,,169,pitis,,,,,,1506.189,1521.082,0,1,14.359,,0,35,35,168,1,pseudoword,0,REAL,FALSA
,,,,,,,,,6603644b9253f00e9bf93f02,001,2024-06-30_06h21.50.519,empathy_intonation_perc,2024.1.4,Win32,60.0240096,,,,,,,,,,,,,,63,hilo,,,,,,1521.085,1539.268,0,1,17.646,,0,36,36,62,1,non_cognate,1,REAL,FALSA
,,,,,,,,,6603644b9253f00e9bf93f02,001,2024-06-30_06h21.50.519,empathy_intonation_perc,2024.1.4,Win32,60.0240096,,,,,,,,,,,,,,21,hotel,,,,,,1539.275,1542.765,1,0,2.961,,0,37,37,20,1,three_way_cognate,1,REAL,FALSA
,,,,,,,,,6603644b9253f00e9bf93f02,001,2024-06-30_06h21.50.519,empathy_intonation_perc,2024.1.4,Win32,60.0240096,,,,,,,,,,,,,,23,plural,,,,,,1542.769,1545.295,1,0,1.993,,0,38,38,22,1,three_way_cognate,1,REAL,FALSA
,,,,,,,,,6603644b9253f00e9bf93f02,001,2024-06-30_06h21.50.519,empathy_intonation_perc,2024.1.4,Win32,60.0240096,,,,,,,,,,,,,,139,sasos,,,,,,1545.299,1565.365,0,1,19.527,,0,39,39,138,1,pseudoword,0,REAL,FALSA
,,,,,,,,,6603644b9253f00e9bf93f02,001,2024-06-30_06h21.50.519,empathy_intonation_perc,2024.1.4,Win32,60.0240096,,,,,,,,,,,,,,109,laras,,,,,,1565.373,1567.93,1,0,2.024,,0,40,40,108,1,pseudoword,0,REAL,FALSA
,,,,,,,,,6603644b9253f00e9bf93f02,001,2024-06-30_06h21.50.519,empathy_intonation_perc,2024.1.4,Win32,60.0240096,,,,,,,,,,,,,,40,pelvis,,,,,,1567.934,1570.682,1,0,2.205,,0,41,41,39,1,two_way_cognate,1,REAL,FALSA
,,,,,,,,,6603644b9253f00e9bf93f02,001,2024-06-30_06h21.50.519,empathy_intonation_perc,2024.1.4,Win32,60.0240096,,,,,,,,,,,,,,20,trauma,,,,,,1570.685,1572.546,1,0,1.322,,0,42,42,19,1,three_way_cognate,1,REAL,FALSA
,,,,,,,,,6603644b9253f00e9bf93f02,001,2024-06-30_06h21.50.519,empathy_intonation_perc,2024.1.4,Win32,60.0240096,,,,,,,,,,,,,,2,tumor,,,,,,1572.549,1574.034,1,0,0.954,,0,43,43,1,1,three_way_cognate,1,REAL,FALSA
,,,,,,,,,6603644b9253f00e9bf93f02,001,2024-06-30_06h21.50.519,empathy_intonation_perc,2024.1.4,Win32,60.0240096,,,,,,,,,,,,,,97,nocita,,,,,,1574.036,1591.149,0,1,16.58,,0,44,44,96,1,pseudoword,0,REAL,FALSA
,,,,,,,,,6603644b9253f00e9bf93f02,001,2024-06-30_06h21.50.519,empathy_intonation_perc,2024.1.4,Win32,60.0240096,,,,,,,,,,,,,,170,diabo,,,,,,1591.157,1610.385,0,1,18.696,,0,45,45,169,1,pseudoword,0,REAL,FALSA
,,,,,,,,,6603644b9253f00e9bf93f02,001,2024-06-30_06h21.50.519,empathy_intonation_perc,2024.1.4,Win32,60.0240096,,,,,,,,,,,,,,119,esís,,,,,,1610.387,1613.58,1,0,2.648,,0,46,46,118,1,pseudoword,0,REAL,FALSA
,,,,,,,,,6603644b9253f00e9bf93f02,001,2024-06-30_06h21.50.519,empathy_intonation_perc,2024.1.4,Win32,60.0240096,,,,,,,,,,,,,,42,rumor,,,,,,1613.584,1615.696,1,0,1.575,,0,47,47,41,1,two_way_cognate,1,REAL,FALSA
,,,,,,,,,6603644b9253f00e9bf93f02,001,2024-06-30_06h21.50.519,empathy_intonation_perc,2024.1.4,Win32,60.0240096,,,,,,,,,,,,,,106,diebro,,,,,,1615.7,1627.587,0,1,11.349,,0,48,48,105,1,pseudoword,0,REAL,FALSA
,,,,,,,,,6603644b9253f00e9bf93f02,001,2024-06-30_06h21.50.519,empathy_intonation_perc,2024.1.4,Win32,60.0240096,,,,,,,,,,,,,,86,cuenco,,,,,,1627.592,1630.069,1,0,1.945,,0,49,49,85,1,non_cognate,1,REAL,FALSA
,,,,,,,,,6603644b9253f00e9bf93f02,001,2024-06-30_06h21.50.519,empathy_intonation_perc,2024.1.4,Win32,60.0240096,,,,,,,,,,,,,,83,hálito,,,,,,1630.073,1647.98,0,1,17.373,,0,50,50,82,1,non_cognate,1,REAL,FALSA
,,,,,,,,,6603644b9253f00e9bf93f02,001,2024-06-30_06h21.50.519,empathy_intonation_perc,2024.1.4,Win32,60.0240096,,,,,,,,,,,,,,16,chat,,,,,,1647.984,1650.283,1,0,1.73,,0,51,51,15,1,three_way_cognate,1,REAL,FALSA
,,,,,,,,,6603644b9253f00e9bf93f02,001,2024-06-30_06h21.50.519,empathy_intonation_perc,2024.1.4,Win32,60.0240096,,,,,,,,,,,,,,184,huenos,,,,,,1650.29,1669.747,0,1,18.93,,0,52,52,183,1,pseudoword,0,REAL,FALSA
,,,,,,,,,6603644b9253f00e9bf93f02,001,2024-06-30_06h21.50.519,empathy_intonation_perc,2024.1.4,Win32,60.0240096,,,,,,,,,,,,,,149,emén,,,,,,1669.754,1688.65,0,1,18.359,,0,53,53,148,1,pseudoword,0,REAL,FALSA
,,,,,,,,,6603644b9253f00e9bf93f02,001,2024-06-30_06h21.50.519,empathy_intonation_perc,2024.1.4,Win32,60.0240096,,,,,,,,,,,,,,176,gripar,,,,,,1688.658,1702.282,1,0,13.084,,0,54,54,175,1,pseudoword,0,REAL,FALSA
,,,,,,,,,6603644b9253f00e9bf93f02,001,2024-06-30_06h21.50.519,empathy_intonation_perc,2024.1.4,Win32,60.0240096,,,,,,,,,,,,,,85,enorme,,,,,,1702.285,1732.751,1,0,29.921,,0,55,55,84,1,non_cognate,1,REAL,FALSA
,,,,,,,,,6603644b9253f00e9bf93f02,001,2024-06-30_06h21.50.519,empathy_intonation_perc,2024.1.4,Win32,60.0240096,,,,,,,,,,,,,,126,tobre,,,,,,1732.758,1741.998,0,1,8.712,,0,56,56,125,1,pseudoword,0,REAL,FALSA
,,,,,,,,,6603644b9253f00e9bf93f02,001,2024-06-30_06h21.50.519,empathy_intonation_perc,2024.1.4,Win32,60.0240096,,,,,,,,,,,,,,145,rúo,,,,,,1742.003,1776.238,0,1,33.69,,0,57,57,144,1,pseudoword,0,REAL,FALSA
,,,,,,,,,6603644b9253f00e9bf93f02,001,2024-06-30_06h21.50.519,empathy_intonation_perc,2024.1.4,Win32,60.0240096,,,,,,,,,,,,,,114,dibrea,,,,,,1776.244,1800.919,0,1,24.142,,0,58,58,113,1,pseudoword,0,REAL,FALSA
,,,,,,,,,6603644b9253f00e9bf93f02,001,2024-06-30_06h21.50.519,empathy_intonation_perc,2024.1.4,Win32,60.0240096,,,,,,,,,,,,,,67,llamar,,,,,,1800.925,1814.185,1,0,12.722,,0,59,59,66,1,non_cognate,1,REAL,FALSA
,,,,,,,,,6603644b9253f00e9bf93f02,001,2024-06-30_06h21.50.519,empathy_intonation_perc,2024.1.4,Win32,60.0240096,,,,,,,,,,,,,,122,boñaz,,,,,,1814.192,1831.884,1,0,17.157,,0,60,60,121,1,pseudoword,0,REAL,FALSA
,,,,,,,,,6603644b9253f00e9bf93f02,001,2024-06-30_06h21.50.519,empathy_intonation_perc,2024.1.4,Win32,60.0240096,,,,,,,,,,,,,,192,próces,,,,,,1831.888,1869.168,0,1,36.742,,0,61,61,191,1,pseudoword,0,REAL,FALSA
,,,,,,,,,6603644b9253f00e9bf93f02,001,2024-06-30_06h21.50.519,empathy_intonation_perc,2024.1.4,Win32,60.0240096,,,,,,,,,,,,,,87,muleta,,,,,,1869.175,1902.018,1,0,32.306,,0,62,62,86,1,non_cognate,1,REAL,FALSA
,,,,,,,,,6603644b9253f00e9bf93f02,001,2024-06-30_06h21.50.519,empathy_intonation_perc,2024.1.4,Win32,60.0240096,,,,,,,,,,,,,,38,halo,,,,,,1902.027,1905.001,1,0,2.441,,0,63,63,37,1,two_way_cognate,1,REAL,FALSA
,,,,,,,,,6603644b9253f00e9bf93f02,001,2024-06-30_06h21.50.519,empathy_intonation_perc,2024.1.4,Win32,60.0240096,,,,,,,,,,,,,,95,listo,,,,,,1905.01,1908.234,1,0,2.692,,0,64,64,94,1,non_cognate,1,REAL,FALSA
,,,,,,,,,6603644b9253f00e9bf93f02,001,2024-06-30_06h21.50.519,empathy_intonation_perc,2024.1.4,Win32,60.0240096,,,,,,,,,,,,,,137,trugo,,,,,,1908.237,1919.099,0,1,10.326,,0,65,65,136,1,pseudoword,0,REAL,FALSA
,,,,,,,,,6603644b9253f00e9bf93f02,001,2024-06-30_06h21.50.519,empathy_intonation_perc,2024.1.4,Win32,60.0240096,,,,,,,,,,,,,,144,diroco,,,,,,1919.105,1930.817,0,1,11.177,,0,66,66,143,1,pseudoword,0,REAL,FALSA
,,,,,,,,,6603644b9253f00e9bf93f02,001,2024-06-30_06h21.50.519,empathy_intonation_perc,2024.1.4,Win32,60.0240096,,,,,,,,,,,,,,190,asumie,,,,,,1930.821,1942.739,0,1,11.377,,0,67,67,189,1,pseudoword,0,REAL,FALSA
,,,,,,,,,6603644b9253f00e9bf93f02,001,2024-06-30_06h21.50.519,empathy_intonation_perc,2024.1.4,Win32,60.0240096,,,,,,,,,,,,,,99,bugor,,,,,,1942.745,1951.649,0,1,8.376,,0,68,68,98,1,pseudoword,0,REAL,FALSA
,,,,,,,,,6603644b9253f00e9bf93f02,001,2024-06-30_06h21.50.519,empathy_intonation_perc,2024.1.4,Win32,60.0240096,,,,,,,,,,,,,,84,aviso,,,,,,1951.653,1964.201,1,0,12.01,,0,69,69,83,1,non_cognate,1,REAL,FALSA
,,,,,,,,,6603644b9253f00e9bf93f02,001,2024-06-30_06h21.50.519,empathy_intonation_perc,2024.1.4,Win32,60.0240096,,,,,,,,,,,,,,34,actor,,,,,,1964.207,1972.719,1,0,7.972,,0,70,70,33,1,two_way_cognate,1,REAL,FALSA
,,,,,,,,,6603644b9253f00e9bf93f02,001,2024-06-30_06h21.50.519,empathy_intonation_perc,2024.1.4,Win32,60.0240096,,,,,,,,,,,,,,11,golf,,,,,,1972.727,1975.137,1,0,1.871,,0,71,71,10,1,three_way_cognate,1,REAL,FALSA
,,,,,,,,,6603644b9253f00e9bf93f02,001,2024-06-30_06h21.50.519,empathy_intonation_perc,2024.1.4,Win32,60.0240096,,,,,,,,,,,,,,152,prave,,,,,,1975.139,1978.203,1,0,2.526,,0,72,72,151,1,pseudoword,0,REAL,FALSA
,,,,,,,,,6603644b9253f00e9bf93f02,001,2024-06-30_06h21.50.519,empathy_intonation_perc,2024.1.4,Win32,60.0240096,,,,,,,,,,,,,,188,amplir,,,,,,1978.207,1991.933,0,1,13.188,,0,73,73,187,1,pseudoword,0,REAL,FALSA
,,,,,,,,,6603644b9253f00e9bf93f02,001,2024-06-30_06h21.50.519,empathy_intonation_perc,2024.1.4,Win32,60.0240096,,,,,,,,,,,,,,133,conso,,,,,,1991.937,2064.163,1,0,71.688,,0,74,74,132,1,pseudoword,0,REAL,FALSA
,,,,,,,,,6603644b9253f00e9bf93f02,001,2024-06-30_06h21.50.519,empathy_intonation_perc,2024.1.4,Win32,60.0240096,,,,,,,,,,,,,,138,tator,,,,,,2064.174,2067.578,1,0,2.858,,0,75,75,137,1,pseudoword,0,REAL,FALSA
,,,,,,,,,6603644b9253f00e9bf93f02,001,2024-06-30_06h21.50.519,empathy_intonation_perc,2024.1.4,Win32,60.0240096,,,,,,,,,,,,,,59,feo,,,,,,2067.58,2070.12,1,0,2.008,,0,76,76,58,1,non_cognate,1,REAL,FALSA
,,,,,,,,,6603644b9253f00e9bf93f02,001,2024-06-30_06h21.50.519,empathy_intonation_perc,2024.1.4,Win32,60.0240096,,,,,,,,,,,,,,62,pegar,,,,,,2070.123,2072.573,1,0,1.909,,0,77,77,61,1,non_cognate,1,REAL,FALSA
,,,,,,,,,6603644b9253f00e9bf93f02,001,2024-06-30_06h21.50.519,empathy_intonation_perc,2024.1.4,Win32,60.0240096,,,,,,,,,,,,,,26,enigma,,,,,,2072.575,2074.35,1,0,1.242,,0,78,78,25,1,two_way_cognate,1,REAL,FALSA
,,,,,,,,,6603644b9253f00e9bf93f02,001,2024-06-30_06h21.50.519,empathy_intonation_perc,2024.1.4,Win32,60.0240096,,,,,,,,,,,,,,17,clan,,,,,,2074.356,2075.604,1,0,0.716,,0,79,79,16,1,three_way_cognate,1,REAL,FALSA
,,,,,,,,,6603644b9253f00e9bf93f02,001,2024-06-30_06h21.50.519,empathy_intonation_perc,2024.1.4,Win32,60.0240096,,,,,,,,,,,,,,166,anfia,,,,,,2075.607,2079.009,1,0,2.859,,0,80,80,165,1,pseudoword,0,REAL,FALSA
,,,,,,,,,6603644b9253f00e9bf93f02,001,2024-06-30_06h21.50.519,empathy_intonation_perc,2024.1.4,Win32,60.0240096,,,,,,,,,,,,,,14,aura,,,,,,2079.01,2080.367,1,0,0.83,,0,81,81,13,1,three_way_cognate,1,REAL,FALSA
,,,,,,,,,6603644b9253f00e9bf93f02,001,2024-06-30_06h21.50.519,empathy_intonation_perc,2024.1.4,Win32,60.0240096,,,,,,,,,,,,,,191,frasis,,,,,,2080.369,2089.603,1,0,8.695,,0,82,82,190,1,pseudoword,0,REAL,FALSA
,,,,,,,,,6603644b9253f00e9bf93f02,001,2024-06-30_06h21.50.519,empathy_intonation_perc,2024.1.4,Win32,60.0240096,,,,,,,,,,,,,,98,martir,,,,,,2089.604,2097.188,1,0,7.046,,0,83,83,97,1,pseudoword,0,REAL,FALSA
,,,,,,,,,6603644b9253f00e9bf93f02,001,2024-06-30_06h21.50.519,empathy_intonation_perc,2024.1.4,Win32,60.0240096,,,,,,,,,,,,,,118,bará,,,,,,2097.195,2098.751,1,0,1.024,,0,84,84,117,1,pseudoword,0,REAL,FALSA
,,,,,,,,,6603644b9253f00e9bf93f02,001,2024-06-30_06h21.50.519,empathy_intonation_perc,2024.1.4,Win32,60.0240096,,,,,,,,,,,,,,39,casual,,,,,,2098.757,2100.2,1,0,0.908,,0,85,85,38,1,two_way_cognate,1,REAL,FALSA
,,,,,,,,,6603644b9253f00e9bf93f02,001,2024-06-30_06h21.50.519,empathy_intonation_perc,2024.1.4,Win32,60.0240096,,,,,,,,,,,,,,33,collar,,,,,,2100.203,2101.385,1,0,0.643,,0,86,86,32,1,two_way_cognate,1,REAL,FALSA
,,,,,,,,,6603644b9253f00e9bf93f02,001,2024-06-30_06h21.50.519,empathy_intonation_perc,2024.1.4,Win32,60.0240096,,,,,,,,,,,,,,57,regalo,,,,,,2101.387,2103.384,0,1,1.458,,0,87,87,56,1,non_cognate,1,REAL,FALSA
,,,,,,,,,6603644b9253f00e9bf93f02,001,2024-06-30_06h21.50.519,empathy_intonation_perc,2024.1.4,Win32,60.0240096,,,,,,,,,,,,,,54,tapón,,,,,,2103.387,2105.421,0,1,1.495,,0,88,88,53,1,non_cognate,1,REAL,FALSA
,,,,,,,,,6603644b9253f00e9bf93f02,001,2024-06-30_06h21.50.519,empathy_intonation_perc,2024.1.4,Win32,60.0240096,,,,,,,,,,,,,,161,civas,,,,,,2105.425,2106.65,1,0,0.684,,0,89,89,160,1,pseudoword,0,REAL,FALSA
,,,,,,,,,6603644b9253f00e9bf93f02,001,2024-06-30_06h21.50.519,empathy_intonation_perc,2024.1.4,Win32,60.0240096,,,,,,,,,,,,,,134,molor,,,,,,2106.652,2108.037,1,0,0.855,,0,90,90,133,1,pseudoword,0,REAL,FALSA
,,,,,,,,,6603644b9253f00e9bf93f02,001,2024-06-30_06h21.50.519,empathy_intonation_perc,2024.1.4,Win32,60.0240096,,,,,,,,,,,,,,129,vinzó,,,,,,2108.039,2110.687,0,1,2.109,,0,91,91,128,1,pseudoword,0,REAL,FALSA
,,,,,,,,,6603644b9253f00e9bf93f02,001,2024-06-30_06h21.50.519,empathy_intonation_perc,2024.1.4,Win32,60.0240096,,,,,,,,,,,,,,165,chote,,,,,,2110.689,2112.25,1,0,1.027,,0,92,92,164,1,pseudoword,0,REAL,FALSA
,,,,,,,,,6603644b9253f00e9bf93f02,001,2024-06-30_06h21.50.519,empathy_intonation_perc,2024.1.4,Win32,60.0240096,,,,,,,,,,,,,,96,caro,,,,,,2112.252,2113.534,1,0,0.742,,0,93,93,95,1,non_cognate,1,REAL,FALSA
,,,,,,,,,6603644b9253f00e9bf93f02,001,2024-06-30_06h21.50.519,empathy_intonation_perc,2024.1.4,Win32,60.0240096,,,,,,,,,,,,,,7,albino,,,,,,2113.538,2115.669,1,0,1.592,,0,94,94,6,1,three_way_cognate,1,REAL,FALSA
,,,,,,,,,6603644b9253f00e9bf93f02,001,2024-06-30_06h21.50.519,empathy_intonation_perc,2024.1.4,Win32,60.0240096,,,,,,,,,,,,,,102,coyo,,,,,,2115.672,2119.534,0,1,3.324,,0,95,95,101,1,pseudoword,0,REAL,FALSA
,,,,,,,,,6603644b9253f00e9bf93f02,001,2024-06-30_06h21.50.519,empathy_intonation_perc,2024.1.4,Win32,60.0240096,,,,,,,,,,,,,,103,vueras,,,,,,2119.537,2121.284,1,0,1.215,,0,96,96,102,1,pseudoword,0,REAL,FALSA
,,,,,,,,,6603644b9253f00e9bf93f02,001,2024-06-30_06h21.50.519,empathy_intonation_perc,2024.1.4,Win32,60.0240096,,,,,,,,,,,,,,157,seled,,,,,,2121.286,2125.334,0,1,3.525,,0,97,97,156,1,pseudoword,0,REAL,FALSA
,,,,,,,,,6603644b9253f00e9bf93f02,001,2024-06-30_06h21.50.519,empathy_intonation_perc,2024.1.4,Win32,60.0240096,,,,,,,,,,,,,,30,fiscal,,,,,,2125.337,2126.834,1,0,0.963,,0,98,98,29,1,two_way_cognate,1,REAL,FALSA
,,,,,,,,,6603644b9253f00e9bf93f02,001,2024-06-30_06h21.50.519,empathy_intonation_perc,2024.1.4,Win32,60.0240096,,,,,,,,,,,,,,162,cengo,,,,,,2126.836,2129.165,0,1,1.804,,0,99,99,161,1,pseudoword,0,REAL,FALSA
,,,,,,,,,6603644b9253f00e9bf93f02,001,2024-06-30_06h21.50.519,empathy_intonation_perc,2024.1.4,Win32,60.0240096,,,,,,,,,,,,,,94,forro,,,,,,2129.174,2130.355,1,0,0.648,,0,100,100,93,1,non_cognate,1,REAL,FALSA
,,,,,,,,,6603644b9253f00e9bf93f02,001,2024-06-30_06h21.50.519,empathy_intonation_perc,2024.1.4,Win32,60.0240096,,,,,,,,,,,,,,177,entodo,,,,,,2130.357,2132.601,1,0,1.704,,0,101,101,176,1,pseudoword,0,REAL,FALSA
,,,,,,,,,6603644b9253f00e9bf93f02,001,2024-06-30_06h21.50.519,empathy_intonation_perc,2024.1.4,Win32,60.0240096,,,,,,,,,,,,,,88,percha,,,,,,2132.602,2134.273,1,0,1.132,,0,102,102,87,1,non_cognate,1,REAL,FALSA
,,,,,,,,,6603644b9253f00e9bf93f02,001,2024-06-30_06h21.50.519,empathy_intonation_perc,2024.1.4,Win32,60.0240096,,,,,,,,,,,,,,36,viable,,,,,,2134.277,2135.651,1,0,0.844,,0,103,103,35,1,two_way_cognate,1,REAL,FALSA
,,,,,,,,,6603644b9253f00e9bf93f02,001,2024-06-30_06h21.50.519,empathy_intonation_perc,2024.1.4,Win32,60.0240096,,,,,,,,,,,,,,150,cricó,,,,,,2135.654,2138.117,1,0,1.928,,0,104,104,149,1,pseudoword,0,REAL,FALSA
,,,,,,,,,6603644b9253f00e9bf93f02,001,2024-06-30_06h21.50.519,empathy_intonation_perc,2024.1.4,Win32,60.0240096,,,,,,,,,,,,,,51,listo,,,,,,2138.122,2139.436,1,0,0.777,,0,105,105,50,1,non_cognate,1,REAL,FALSA
,,,,,,,,,6603644b9253f00e9bf93f02,001,2024-06-30_06h21.50.519,empathy_intonation_perc,2024.1.4,Win32,60.0240096,,,,,,,,,,,,,,131,fuar,,,,,,2139.438,2141.183,1,0,1.21,,0,106,106,130,1,pseudoword,0,REAL,FALSA
,,,,,,,,,6603644b9253f00e9bf93f02,001,2024-06-30_06h21.50.519,empathy_intonation_perc,2024.1.4,Win32,60.0240096,,,,,,,,,,,,,,136,hueas,,,,,,2141.192,2142.991,1,0,1.258,,0,107,107,135,1,pseudoword,0,REAL,FALSA
,,,,,,,,,6603644b9253f00e9bf93f02,001,2024-06-30_06h21.50.519,empathy_intonation_perc,2024.1.4,Win32,60.0240096,,,,,,,,,,,,,,187,nomata,,,,,,2142.992,2145.167,1,0,1.645,,0,108,108,186,1,pseudoword,0,REAL,FALSA
,,,,,,,,,6603644b9253f00e9bf93f02,001,2024-06-30_06h21.50.519,empathy_intonation_perc,2024.1.4,Win32,60.0240096,,,,,,,,,,,,,,130,dubo,,,,,,2145.17,2146.845,1,0,1.14,,0,109,109,129,1,pseudoword,0,REAL,FALSA
,,,,,,,,,6603644b9253f00e9bf93f02,001,2024-06-30_06h21.50.519,empathy_intonation_perc,2024.1.4,Win32,60.0240096,,,,,,,,,,,,,,37,torso,,,,,,2146.846,2149,1,0,1.625,,0,110,110,36,1,two_way_cognate,1,REAL,FALSA
,,,,,,,,,6603644b9253f00e9bf93f02,001,2024-06-30_06h21.50.519,empathy_intonation_perc,2024.1.4,Win32,60.0240096,,,,,,,,,,,,,,158,babrá,,,,,,2149.003,2151.167,1,0,1.627,,0,111,111,157,1,pseudoword,0,REAL,FALSA
,,,,,,,,,6603644b9253f00e9bf93f02,001,2024-06-30_06h21.50.519,empathy_intonation_perc,2024.1.4,Win32,60.0240096,,,,,,,,,,,,,,159,trcia,,,,,,2151.169,2153.234,0,1,1.529,,0,112,112,158,1,pseudoword,0,REAL,FALSA
,,,,,,,,,6603644b9253f00e9bf93f02,001,2024-06-30_06h21.50.519,empathy_intonation_perc,2024.1.4,Win32,60.0240096,,,,,,,,,,,,,,148,gino,,,,,,2153.237,2156.117,1,0,2.356,,0,113,113,147,1,pseudoword,0,REAL,FALSA
,,,,,,,,,6603644b9253f00e9bf93f02,001,2024-06-30_06h21.50.519,empathy_intonation_perc,2024.1.4,Win32,60.0240096,,,,,,,,,,,,,,66,aleta,,,,,,2156.12,2159.411,0,1,2.754,,0,114,114,65,1,non_cognate,1,REAL,FALSA
,,,,,,,,,6603644b9253f00e9bf93f02,001,2024-06-30_06h21.50.519,empathy_intonation_perc,2024.1.4,Win32,60.0240096,,,,,,,,,,,,,,101,losco,,,,,,2159.426,2161.438,0,1,1.483,,0,115,115,100,1,pseudoword,0,REAL,FALSA
,,,,,,,,,6603644b9253f00e9bf93f02,001,2024-06-30_06h21.50.519,empathy_intonation_perc,2024.1.4,Win32,60.0240096,,,,,,,,,,,,,,56,pico,,,,,,2161.441,2162.626,1,0,0.652,,0,116,116,55,1,non_cognate,1,REAL,FALSA
,,,,,,,,,6603644b9253f00e9bf93f02,001,2024-06-30_06h21.50.519,empathy_intonation_perc,2024.1.4,Win32,60.0240096,,,,,,,,,,,,,,141,virios,,,,,,2162.628,2164.228,1,0,1.069,,0,117,117,140,1,pseudoword,0,REAL,FALSA
,,,,,,,,,6603644b9253f00e9bf93f02,001,2024-06-30_06h21.50.519,empathy_intonation_perc,2024.1.4,Win32,60.0240096,,,,,,,,,,,,,,10,drama,,,,,,2164.246,2165.71,1,0,0.937,,0,118,118,9,1,three_way_cognate,1,REAL,FALSA
,,,,,,,,,6603644b9253f00e9bf93f02,001,2024-06-30_06h21.50.519,empathy_intonation_perc,2024.1.4,Win32,60.0240096,,,,,,,,,,,,,,29,clamor,,,,,,2165.712,2167.773,1,0,1.532,,0,119,119,28,1,two_way_cognate,1,REAL,FALSA
,,,,,,,,,6603644b9253f00e9bf93f02,001,2024-06-30_06h21.50.519,empathy_intonation_perc,2024.1.4,Win32,60.0240096,,,,,,,,,,,,,,72,rostro,,,,,,2167.776,2171.643,1,0,3.337,,0,120,120,71,1,non_cognate,1,REAL,FALSA
,,,,,,,,,6603644b9253f00e9bf93f02,001,2024-06-30_06h21.50.519,empathy_intonation_perc,2024.1.4,Win32,60.0240096,,,,,,,,,,,,,,8,kilo,,,,,,2171.643,2172.967,0,1,0.796,,0,121,121,7,1,three_way_cognate,1,REAL,FALSA
,,,,,,,,,6603644b9253f00e9bf93f02,001,2024-06-30_06h21.50.519,empathy_intonation_perc,2024.1.4,Win32,60.0240096,,,,,,,,,,,,,,167,dobbo,,,,,,2172.969,2174.455,1,0,0.945,,0,122,122,166,1,pseudoword,0,REAL,FALSA
,,,,,,,,,6603644b9253f00e9bf93f02,001,2024-06-30_06h21.50.519,empathy_intonation_perc,2024.1.4,Win32,60.0240096,,,,,,,,,,,,,,143,hurcos,,,,,,2174.458,2175.801,1,0,0.804,,0,123,123,142,1,pseudoword,0,REAL,FALSA
,,,,,,,,,6603644b9253f00e9bf93f02,001,2024-06-30_06h21.50.519,empathy_intonation_perc,2024.1.4,Win32,60.0240096,,,,,,,,,,,,,,113,nasce,,,,,,2175.803,2178.651,1,0,2.314,,0,124,124,112,1,pseudoword,0,REAL,FALSA
,,,,,,,,,6603644b9253f00e9bf93f02,001,2024-06-30_06h21.50.519,empathy_intonation_perc,2024.1.4,Win32,60.0240096,,,,,,,,,,,,,,43,honor,,,,,,2178.657,2179.937,1,0,0.742,,0,125,125,42,1,two_way_cognate,1,REAL,FALSA
,,,,,,,,,6603644b9253f00e9bf93f02,001,2024-06-30_06h21.50.519,empathy_intonation_perc,2024.1.4,Win32,60.0240096,,,,,,,,,,,,,,91,equipo,,,,,,2179.939,2182.169,1,0,1.695,,0,126,126,90,1,non_cognate,1,REAL,FALSA
,,,,,,,,,6603644b9253f00e9bf93f02,001,2024-06-30_06h21.50.519,empathy_intonation_perc,2024.1.4,Win32,60.0240096,,,,,,,,,,,,,,71,torta,,,,,,2182.171,2183.773,1,0,1.066,,0,127,127,70,1,non_cognate,1,REAL,FALSA
,,,,,,,,,6603644b9253f00e9bf93f02,001,2024-06-30_06h21.50.519,empathy_intonation_perc,2024.1.4,Win32,60.0240096,,,,,,,,,,,,,,104,estulo,,,,,,2183.775,2186.325,1,0,2.017,,0,128,128,103,1,pseudoword,0,REAL,FALSA
,,,,,,,,,6603644b9253f00e9bf93f02,001,2024-06-30_06h21.50.519,empathy_intonation_perc,2024.1.4,Win32,60.0240096,,,,,,,,,,,,,,163,olzan,,,,,,2186.326,2187.672,0,1,0.813,,0,129,129,162,1,pseudoword,0,REAL,FALSA
,,,,,,,,,6603644b9253f00e9bf93f02,001,2024-06-30_06h21.50.519,empathy_intonation_perc,2024.1.4,Win32,60.0240096,,,,,,,,,,,,,,183,edioso,,,,,,2187.673,2189.82,0,1,1.611,,0,130,130,182,1,pseudoword,0,REAL,FALSA
,,,,,,,,,6603644b9253f00e9bf93f02,001,2024-06-30_06h21.50.519,empathy_intonation_perc,2024.1.4,Win32,60.0240096,,,,,,,,,,,,,,116,grigir,,,,,,2189.822,2193.034,0,1,2.672,,0,131,131,115,1,pseudoword,0,REAL,FALSA
,,,,,,,,,6603644b9253f00e9bf93f02,001,2024-06-30_06h21.50.519,empathy_intonation_perc,2024.1.4,Win32,60.0240096,,,,,,,,,,,,,,52,blando,,,,,,2193.036,2196.339,1,0,2.776,,0,132,132,51,1,non_cognate,1,REAL,FALSA
,,,,,,,,,6603644b9253f00e9bf93f02,001,2024-06-30_06h21.50.519,empathy_intonation_perc,2024.1.4,Win32,60.0240096,,,,,,,,,,,,,,53,punta,,,,,,2196.347,2197.985,1,0,1.103,,0,133,133,52,1,non_cognate,1,REAL,FALSA
,,,,,,,,,6603644b9253f00e9bf93f02,001,2024-06-30_06h21.50.519,empathy_intonation_perc,2024.1.4,Win32,60.0240096,,,,,,,,,,,,,,45,total,,,,,,2197.992,2199.202,1,0,0.679,,0,134,134,44,1,two_way_cognate,1,REAL,FALSA
,,,,,,,,,6603644b9253f00e9bf93f02,001,2024-06-30_06h21.50.519,empathy_intonation_perc,2024.1.4,Win32,60.0240096,,,,,,,,,,,,,,124,lobe,,,,,,2199.204,2200.951,1,0,1.221,,0,135,135,123,1,pseudoword,0,REAL,FALSA
,,,,,,,,,6603644b9253f00e9bf93f02,001,2024-06-30_06h21.50.519,empathy_intonation_perc,2024.1.4,Win32,60.0240096,,,,,,,,,,,,,,90,venado,,,,,,2200.957,2204.067,1,0,2.575,,0,136,136,89,1,non_cognate,1,REAL,FALSA
,,,,,,,,,6603644b9253f00e9bf93f02,001,2024-06-30_06h21.50.519,empathy_intonation_perc,2024.1.4,Win32,60.0240096,,,,,,,,,,,,,,93,tapa,,,,,,2204.071,2205.301,1,0,0.693,,0,137,137,92,1,non_cognate,1,REAL,FALSA
,,,,,,,,,6603644b9253f00e9bf93f02,001,2024-06-30_06h21.50.519,empathy_intonation_perc,2024.1.4,Win32,60.0240096,,,,,,,,,,,,,,160,fomeó,,,,,,2205.304,2207.501,1,0,1.661,,0,138,138,159,1,pseudoword,0,REAL,FALSA
,,,,,,,,,6603644b9253f00e9bf93f02,001,2024-06-30_06h21.50.519,empathy_intonation_perc,2024.1.4,Win32,60.0240096,,,,,,,,,,,,,,70,ánimo,,,,,,2207.506,2210.89,1,0,2.84,,0,139,139,69,1,non_cognate,1,REAL,FALSA
,,,,,,,,,6603644b9253f00e9bf93f02,001,2024-06-30_06h21.50.519,empathy_intonation_perc,2024.1.4,Win32,60.0240096,,,,,,,,,,,,,,172,dogue,,,,,,2210.892,2213.034,1,0,1.607,,0,140,140,171,1,pseudoword,0,REAL,FALSA
,,,,,,,,,6603644b9253f00e9bf93f02,001,2024-06-30_06h21.50.519,empathy_intonation_perc,2024.1.4,Win32,60.0240096,,,,,,,,,,,,,,24,retina,,,,,,2213.036,2214.385,1,0,0.809,,0,141,141,23,1,three_way_cognate,1,REAL,FALSA
,,,,,,,,,6603644b9253f00e9bf93f02,001,2024-06-30_06h21.50.519,empathy_intonation_perc,2024.1.4,Win32,60.0240096,,,,,,,,,,,,,,47,color,,,,,,2214.388,2215.589,1,0,0.661,,0,142,142,46,1,two_way_cognate,1,REAL,FALSA
,,,,,,,,,6603644b9253f00e9bf93f02,001,2024-06-30_06h21.50.519,empathy_intonation_perc,2024.1.4,Win32,60.0240096,,,,,,,,,,,,,,64,rizado,,,,,,2215.591,2217.094,1,0,0.971,,0,143,143,63,1,non_cognate,1,REAL,FALSA
,,,,,,,,,6603644b9253f00e9bf93f02,001,2024-06-30_06h21.50.519,empathy_intonation_perc,2024.1.4,Win32,60.0240096,,,,,,,,,,,,,,125,ceme,,,,,,2217.095,2219.767,0,1,2.144,,0,144,144,124,1,pseudoword,0,REAL,FALSA
,,,,,,,,,6603644b9253f00e9bf93f02,001,2024-06-30_06h21.50.519,empathy_intonation_perc,2024.1.4,Win32,60.0240096,,,,,,,,,,,,,,15,test,,,,,,2219.769,2221.017,1,0,0.712,,0,145,145,14,1,three_way_cognate,1,REAL,FALSA
,,,,,,,,,6603644b9253f00e9bf93f02,001,2024-06-30_06h21.50.519,empathy_intonation_perc,2024.1.4,Win32,60.0240096,,,,,,,,,,,,,,153,golla,,,,,,2221.019,2223.851,1,0,2.298,,0,146,146,152,1,pseudoword,0,REAL,FALSA
,,,,,,,,,6603644b9253f00e9bf93f02,001,2024-06-30_06h21.50.519,empathy_intonation_perc,2024.1.4,Win32,60.0240096,,,,,,,,,,,,,,65,guerra,,,,,,2223.853,2226.726,1,0,2.332,,0,147,147,64,1,non_cognate,1,REAL,FALSA
,,,,,,,,,6603644b9253f00e9bf93f02,001,2024-06-30_06h21.50.519,empathy_intonation_perc,2024.1.4,Win32,60.0240096,,,,,,,,,,,,,,156,ozoso,,,,,,2226.727,2228.154,0,1,0.884,,0,148,148,155,1,pseudoword,0,REAL,FALSA
,,,,,,,,,6603644b9253f00e9bf93f02,001,2024-06-30_06h21.50.519,empathy_intonation_perc,2024.1.4,Win32,60.0240096,,,,,,,,,,,,,,32,animal,,,,,,2228.164,2229.356,1,0,0.662,,0,149,149,31,1,two_way_cognate,1,REAL,FALSA
,,,,,,,,,6603644b9253f00e9bf93f02,001,2024-06-30_06h21.50.519,empathy_intonation_perc,2024.1.4,Win32,60.0240096,,,,,,,,,,,,,,181,gravés,,,,,,2229.359,2231.477,1,0,1.586,,0,150,150,180,1,pseudoword,0,REAL,FALSA
,,,,,,,,,6603644b9253f00e9bf93f02,001,2024-06-30_06h21.50.519,empathy_intonation_perc,2024.1.4,Win32,60.0240096,,,,,,,,,,,,,,151,prías,,,,,,2231.479,2232.852,1,0,0.842,,0,151,151,150,1,pseudoword,0,REAL,FALSA
,,,,,,,,,6603644b9253f00e9bf93f02,001,2024-06-30_06h21.50.519,empathy_intonation_perc,2024.1.4,Win32,60.0240096,,,,,,,,,,,,,,173,mibro,,,,,,2232.855,2234.524,1,0,1.134,,0,152,152,172,1,pseudoword,0,REAL,FALSA
,,,,,,,,,6603644b9253f00e9bf93f02,001,2024-06-30_06h21.50.519,empathy_intonation_perc,2024.1.4,Win32,60.0240096,,,,,,,,,,,,,,61,aduana,,,,,,2234.527,2237.185,0,1,2.129,,0,153,153,60,1,non_cognate,1,REAL,FALSA
,,,,,,,,,6603644b9253f00e9bf93f02,001,2024-06-30_06h21.50.519,empathy_intonation_perc,2024.1.4,Win32,60.0240096,,,,,,,,,,,,,,174,pabea,,,,,,2237.19,2239.806,1,0,2.075,,0,154,154,173,1,pseudoword,0,REAL,FALSA
,,,,,,,,,6603644b9253f00e9bf93f02,001,2024-06-30_06h21.50.519,empathy_intonation_perc,2024.1.4,Win32,60.0240096,,,,,,,,,,,,,,60,siglo,,,,,,2239.808,2244.702,1,0,4.365,,0,155,155,59,1,non_cognate,1,REAL,FALSA
,,,,,,,,,6603644b9253f00e9bf93f02,001,2024-06-30_06h21.50.519,empathy_intonation_perc,2024.1.4,Win32,60.0240096,,,,,,,,,,,,,,58,colcha,,,,,,2244.707,2247.218,0,1,1.974,,0,156,156,57,1,non_cognate,1,REAL,FALSA
,,,,,,,,,6603644b9253f00e9bf93f02,001,2024-06-30_06h21.50.519,empathy_intonation_perc,2024.1.4,Win32,60.0240096,,,,,,,,,,,,,,175,tradía,,,,,,2247.222,2248.938,1,0,1.178,,0,157,157,174,1,pseudoword,0,REAL,FALSA
,,,,,,,,,6603644b9253f00e9bf93f02,001,2024-06-30_06h21.50.519,empathy_intonation_perc,2024.1.4,Win32,60.0240096,,,,,,,,,,,,,,108,jauda,,,,,,2248.941,2252.337,0,1,2.856,,0,158,158,107,1,pseudoword,0,REAL,FALSA
,,,,,,,,,6603644b9253f00e9bf93f02,001,2024-06-30_06h21.50.519,empathy_intonation_perc,2024.1.4,Win32,60.0240096,,,,,,,,,,,,,,100,épinas,,,,,,2252.341,2253.852,1,0,0.975,,0,159,159,99,1,pseudoword,0,REAL,FALSA
,,,,,,,,,6603644b9253f00e9bf93f02,001,2024-06-30_06h21.50.519,empathy_intonation_perc,2024.1.4,Win32,60.0240096,,,,,,,,,,,,,,31,civil,,,,,,2253.853,2255.087,1,0,0.698,,0,160,160,30,1,two_way_cognate,1,REAL,FALSA
,,,,,,,,,6603644b9253f00e9bf93f02,001,2024-06-30_06h21.50.519,empathy_intonation_perc,2024.1.4,Win32,60.0240096,,,,,,,,,,,,,,69,tiza,,,,,,2255.088,2258.521,0,1,2.897,,0,161,161,68,1,non_cognate,1,REAL,FALSA
,,,,,,,,,6603644b9253f00e9bf93f02,001,2024-06-30_06h21.50.519,empathy_intonation_perc,2024.1.4,Win32,60.0240096,,,,,,,,,,,,,,79,suelo,,,,,,2258.53,2259.823,1,0,0.763,,0,162,162,78,1,non_cognate,1,REAL,FALSA
,,,,,,,,,6603644b9253f00e9bf93f02,001,2024-06-30_06h21.50.519,empathy_intonation_perc,2024.1.4,Win32,60.0240096,,,,,,,,,,,,,,189,medium,,,,,,2259.828,2261.138,1,0,0.772,,0,163,163,188,1,pseudoword,0,REAL,FALSA
,,,,,,,,,6603644b9253f00e9bf93f02,001,2024-06-30_06h21.50.519,empathy_intonation_perc,2024.1.4,Win32,60.0240096,,,,,,,,,,,,,,120,mauja,,,,,,2261.14,2265.739,0,1,4.059,,0,164,164,119,1,pseudoword,0,REAL,FALSA
,,,,,,,,,6603644b9253f00e9bf93f02,001,2024-06-30_06h21.50.519,empathy_intonation_perc,2024.1.4,Win32,60.0240096,,,,,,,,,,,,,,76,chocar,,,,,,2265.741,2267.122,1,0,0.846,,0,165,165,75,1,non_cognate,1,REAL,FALSA
,,,,,,,,,6603644b9253f00e9bf93f02,001,2024-06-30_06h21.50.519,empathy_intonation_perc,2024.1.4,Win32,60.0240096,,,,,,,,,,,,,,68,puñal,,,,,,2267.125,2268.571,1,0,0.914,,0,166,166,67,1,non_cognate,1,REAL,FALSA
,,,,,,,,,6603644b9253f00e9bf93f02,001,2024-06-30_06h21.50.519,empathy_intonation_perc,2024.1.4,Win32,60.0240096,,,,,,,,,,,,,,78,rendir,,,,,,2268.574,2271.009,1,0,1.895,,0,167,167,77,1,non_cognate,1,REAL,FALSA
,,,,,,,,,6603644b9253f00e9bf93f02,001,2024-06-30_06h21.50.519,empathy_intonation_perc,2024.1.4,Win32,60.0240096,,,,,,,,,,,,,,105,leniz,,,,,,2271.01,2272.355,1,0,0.81,,0,168,168,104,1,pseudoword,0,REAL,FALSA
,,,,,,,,,6603644b9253f00e9bf93f02,001,2024-06-30_06h21.50.519,empathy_intonation_perc,2024.1.4,Win32,60.0240096,,,,,,,,,,,,,,5,extra,,,,,,2272.359,2273.622,1,0,0.737,,0,169,169,4,1,three_way_cognate,1,REAL,FALSA
,,,,,,,,,6603644b9253f00e9bf93f02,001,2024-06-30_06h21.50.519,empathy_intonation_perc,2024.1.4,Win32,60.0240096,,,,,,,,,,,,,,49,teñir,,,,,,2273.624,2275.223,0,1,1.068,,0,170,170,48,1,non_cognate,1,REAL,FALSA
,,,,,,,,,6603644b9253f00e9bf93f02,001,2024-06-30_06h21.50.519,empathy_intonation_perc,2024.1.4,Win32,60.0240096,,,,,,,,,,,,,,81,sacar,,,,,,2275.227,2276.541,1,0,0.783,,0,171,171,80,1,non_cognate,1,REAL,FALSA
,,,,,,,,,6603644b9253f00e9bf93f02,001,2024-06-30_06h21.50.519,empathy_intonation_perc,2024.1.4,Win32,60.0240096,,,,,,,,,,,,,,18,altar,,,,,,2276.543,2277.826,1,0,0.741,,0,172,172,17,1,three_way_cognate,1,REAL,FALSA
,,,,,,,,,6603644b9253f00e9bf93f02,001,2024-06-30_06h21.50.519,empathy_intonation_perc,2024.1.4,Win32,60.0240096,,,,,,,,,,,,,,117,morrá,,,,,,2277.827,2281.585,1,0,3.221,,0,173,173,116,1,pseudoword,0,REAL,FALSA
,,,,,,,,,6603644b9253f00e9bf93f02,001,2024-06-30_06h21.50.519,empathy_intonation_perc,2024.1.4,Win32,60.0240096,,,,,,,,,,,,,,110,densó,,,,,,2281.588,2283.702,1,0,1.579,,0,174,174,109,1,pseudoword,0,REAL,FALSA
,,,,,,,,,6603644b9253f00e9bf93f02,001,2024-06-30_06h21.50.519,empathy_intonation_perc,2024.1.4,Win32,60.0240096,,,,,,,,,,,,,,168,cobén,,,,,,2283.705,2285.335,1,0,1.094,,0,175,175,167,1,pseudoword,0,REAL,FALSA
,,,,,,,,,6603644b9253f00e9bf93f02,001,2024-06-30_06h21.50.519,empathy_intonation_perc,2024.1.4,Win32,60.0240096,,,,,,,,,,,,,,27,piano,,,,,,2285.338,2286.652,1,0,0.78,,0,176,176,26,1,two_way_cognate,1,REAL,FALSA
,,,,,,,,,6603644b9253f00e9bf93f02,001,2024-06-30_06h21.50.519,empathy_intonation_perc,2024.1.4,Win32,60.0240096,,,,,,,,,,,,,,50,sierra,,,,,,2286.655,2289.279,1,0,2.082,,0,177,177,49,1,non_cognate,1,REAL,FALSA
,,,,,,,,,6603644b9253f00e9bf93f02,001,2024-06-30_06h21.50.519,empathy_intonation_perc,2024.1.4,Win32,60.0240096,,,,,,,,,,,,,,1,moral,,,,,,2289.288,2290.502,1,0,0.662,,0,178,178,0,1,three_way_cognate,1,REAL,FALSA
,,,,,,,,,6603644b9253f00e9bf93f02,001,2024-06-30_06h21.50.519,empathy_intonation_perc,2024.1.4,Win32,60.0240096,,,,,,,,,,,,,,107,plago,,,,,,2290.507,2291.74,1,0,0.698,,0,179,179,106,1,pseudoword,0,REAL,FALSA
,,,,,,,,,6603644b9253f00e9bf93f02,001,2024-06-30_06h21.50.519,empathy_intonation_perc,2024.1.4,Win32,60.0240096,,,,,,,,,,,,,,9,portal,,,,,,2291.741,2292.919,1,0,0.638,,0,180,180,8,1,three_way_cognate,1,REAL,FALSA
,,,,,,,,,6603644b9253f00e9bf93f02,001,2024-06-30_06h21.50.519,empathy_intonation_perc,2024.1.4,Win32,60.0240096,,,,,,,,,,,,,,171,gotro,,,,,,2292.922,2294.222,0,1,0.765,,0,181,181,170,1,pseudoword,0,REAL,FALSA
,,,,,,,,,6603644b9253f00e9bf93f02,001,2024-06-30_06h21.50.519,empathy_intonation_perc,2024.1.4,Win32,60.0240096,,,,,,,,,,,,,,75,patada,,,,,,2294.225,2296.052,0,1,1.295,,0,182,182,74,1,non_cognate,1,REAL,FALSA
,,,,,,,,,6603644b9253f00e9bf93f02,001,2024-06-30_06h21.50.519,empathy_intonation_perc,2024.1.4,Win32,60.0240096,,,,,,,,,,,,,,82,brillo,,,,,,2296.057,2297.785,1,0,1.19,,0,183,183,81,1,non_cognate,1,REAL,FALSA
,,,,,,,,,6603644b9253f00e9bf93f02,001,2024-06-30_06h21.50.519,empathy_intonation_perc,2024.1.4,Win32,60.0240096,,,,,,,,,,,,,,55,maldad,,,,,,2297.792,2300.602,1,0,2.28,,0,184,184,54,1,non_cognate,1,REAL,FALSA
,,,,,,,,,6603644b9253f00e9bf93f02,001,2024-06-30_06h21.50.519,empathy_intonation_perc,2024.1.4,Win32,60.0240096,,,,,,,,,,,,,,146,gió,,,,,,2300.607,2302.171,1,0,1.035,,0,185,185,145,1,pseudoword,0,REAL,FALSA
,,,,,,,,,6603644b9253f00e9bf93f02,001,2024-06-30_06h21.50.519,empathy_intonation_perc,2024.1.4,Win32,60.0240096,,,,,,,,,,,,,,155,kugis,,,,,,2302.175,2303.669,0,1,0.965,,0,186,186,154,1,pseudoword,0,REAL,FALSA
,,,,,,,,,6603644b9253f00e9bf93f02,001,2024-06-30_06h21.50.519,empathy_intonation_perc,2024.1.4,Win32,60.0240096,,,,,,,,,,,,,,132,nocó,,,,,,2303.671,2305.539,1,0,1.338,,0,187,187,131,1,pseudoword,0,REAL,FALSA
,,,,,,,,,6603644b9253f00e9bf93f02,001,2024-06-30_06h21.50.519,empathy_intonation_perc,2024.1.4,Win32,60.0240096,,,,,,,,,,,,,,135,panté,,,,,,2305.541,2306.969,1,0,0.892,,0,188,188,134,1,pseudoword,0,REAL,FALSA
,,,,,,,,,6603644b9253f00e9bf93f02,001,2024-06-30_06h21.50.519,empathy_intonation_perc,2024.1.4,Win32,60.0240096,,,,,,,,,,,,,,154,harvé,,,,,,2306.973,2308.488,1,0,0.98,,0,189,189,153,1,pseudoword,0,REAL,FALSA
,,,,,,,,,6603644b9253f00e9bf93f02,001,2024-06-30_06h21.50.519,empathy_intonation_perc,2024.1.4,Win32,60.0240096,,,,,,,,,,,,,,13,plan,,,,,,2308.491,2309.839,1,0,0.811,,0,190,190,12,1,three_way_cognate,1,REAL,FALSA
,,,,,,,,,6603644b9253f00e9bf93f02,001,2024-06-30_06h21.50.519,empathy_intonation_perc,2024.1.4,Win32,60.0240096,,,,,,,,,,,,,,185,aljizo,,,,,,2309.841,2311.588,0,1,1.213,,0,191,191,184,1,pseudoword,0,REAL,FALSA
