lextale_instructions.started,lextale_instructions.stopped,lextale_instructions_loop.thisRepN,lextale_instructions_loop.thisTrialN,lextale_instructions_loop.thisN,lextale_instructions_loop.thisIndex,lextale_instructions_loop.ran,instructions_text,continue_text,participant,session,date,expName,psychopyVersion,OS,frameRate,lextale_practice.started,lextale_practice.stopped,key_resp_lextale_practice.keys,key_resp_lextale_practice.corr,key_resp_lextale_practice.rt,key_resp_lextale_practice.duration,lextale_practice_feedback.started,lextale_practice_feedback.stopped,lextale_practice_trials.thisRepN,lextale_practice_trials.thisTrialN,lextale_practice_trials.thisN,lextale_practice_trials.thisIndex,lextale_practice_trials.ran,stim,word,correct_response,prac_button_real,prac_button_false,lextale_check.started,lextale_check.stopped,lextale_trial.started,lextale_trial.stopped,key_resp_lextale_trial.keys,key_resp_lextale_trial.corr,key_resp_lextale_trial.rt,key_resp_lextale_trial.duration,lextail_trials.thisRepN,lextail_trials.thisTrialN,lextail_trials.thisN,lextail_trials.thisIndex,lextail_trials.ran,type,correct_reponse,button_real,button_false
0.0026,3.9135,0,0,0,0,1,"Este es un test de vocabulario en español. 
  
  A continuación vas a ver 90 secuencias de letras que parecen 'españolas'.
  
  Solo algunas de ellas son palabras de verdad.",(presiona la barra espaciadora para continuar),6658d3384552a75abbc15f10,001,2024-06-30_08h15.43.855,empathy_intonation_perc,2024.1.4,Win32,238.0952381,,,,,,,,,,,,,,,,,,,,,,,,,,,,,,,,,,,
3.9141,7.4833,0,1,1,1,1,"Por favor, señala las palabras que tú conoces (aquellas que estás convencido que son palabras españolas, incluso aunque no seas capaz de dar el significado preciso).",(presiona la barra espaciadora para continuar),6658d3384552a75abbc15f10,001,2024-06-30_08h15.43.855,empathy_intonation_perc,2024.1.4,Win32,238.0952381,,,,,,,,,,,,,,,,,,,,,,,,,,,,,,,,,,,
7.4835,10.7661,0,2,2,2,1,Pero cuidado: los errores se penalizan. Por eso no tiene sentido tratar de incrementar tu puntuación marcando como reales palabras que nunca has visto.,(presiona la barra espaciadora para continuar),6658d3384552a75abbc15f10,001,2024-06-30_08h15.43.855,empathy_intonation_perc,2024.1.4,Win32,238.0952381,,,,,,,,,,,,,,,,,,,,,,,,,,,,,,,,,,,
10.7668,14.9838,0,3,3,3,1,"Presiona la tecla 1 si piensas que es una palabra real y la tecla 
  0 si piensas que es una palabra falsa. 
  
  Vamos a practicar un poco...",(presiona la barra espaciadora para continuar),6658d3384552a75abbc15f10,001,2024-06-30_08h15.43.855,empathy_intonation_perc,2024.1.4,Win32,238.0952381,,,,,,,,,,,,,,,,,,,,,,,,,,,,,,,,,,,
,,,,,,,,,6658d3384552a75abbc15f10,001,2024-06-30_08h15.43.855,empathy_intonation_perc,2024.1.4,Win32,238.0952381,14.9866,70.4248,0,1,54.9251,,70.4302,71.4237,0,0,0,0,1,0,depiste,0,REAL,FALSA,,,,,,,,,,,,,,,,,
,,,,,,,,,6658d3384552a75abbc15f10,001,2024-06-30_08h15.43.855,empathy_intonation_perc,2024.1.4,Win32,238.0952381,71.4247,74.6219,0,0,2.6875,,74.6219,75.6219,0,1,1,1,1,0,sí,1,REAL,FALSA,,,,,,,,,,,,,,,,,
,,,,,,,,,6658d3384552a75abbc15f10,001,2024-06-30_08h15.43.855,empathy_intonation_perc,2024.1.4,Win32,238.0952381,75.6271,81.314,1,0,5.1797,,81.314,82.3125,0,2,2,2,1,0,coné,0,REAL,FALSA,,,,,,,,,,,,,,,,,
,,,,,,,,,6658d3384552a75abbc15f10,001,2024-06-30_08h15.43.855,empathy_intonation_perc,2024.1.4,Win32,238.0952381,82.318,87.0159,0,1,4.1891,,87.016,88.0152,0,3,3,3,1,0,calpar,0,REAL,FALSA,,,,,,,,,,,,,,,,,
,,,,,,,,,6658d3384552a75abbc15f10,001,2024-06-30_08h15.43.855,empathy_intonation_perc,2024.1.4,Win32,238.0952381,88.0208,89.3283,0,1,0.8004,,89.3284,90.3259,0,4,4,4,1,0,joten,0,REAL,FALSA,,,,,,,,,,,,,,,,,
,,,,,,,,,6658d3384552a75abbc15f10,001,2024-06-30_08h15.43.855,empathy_intonation_perc,2024.1.4,Win32,238.0952381,90.3261,93.1901,1,1,2.3545,,93.1902,94.1898,0,5,5,5,1,0,sacapuntas,1,REAL,FALSA,,,,,,,,,,,,,,,,,
,,,,,,,,,6658d3384552a75abbc15f10,001,2024-06-30_08h15.43.855,empathy_intonation_perc,2024.1.4,Win32,238.0952381,94.196,95.074,0,1,0.3686,,95.0741,96.0737,0,6,6,6,1,0,priba,0,REAL,FALSA,,,,,,,,,,,,,,,,,
,,,,,,,,,6658d3384552a75abbc15f10,001,2024-06-30_08h15.43.855,empathy_intonation_perc,2024.1.4,Win32,238.0952381,96.0743,97.0161,0,1,0.4347,,97.0162,98.0177,0,7,7,7,1,0,pelasula,0,REAL,FALSA,,,,,,,,,,,,,,,,,
,,,,,,,,,6658d3384552a75abbc15f10,001,2024-06-30_08h15.43.855,empathy_intonation_perc,2024.1.4,Win32,238.0952381,98.0179,98.6071,1,1,0.0837,,98.6072,99.6084,0,8,8,8,1,0,bien,1,REAL,FALSA,,,,,,,,,,,,,,,,,
,,,,,,,,,6658d3384552a75abbc15f10,001,2024-06-30_08h15.43.855,empathy_intonation_perc,2024.1.4,Win32,238.0952381,99.6085,100.3154,1,1,0.1967,,100.3154,101.3151,0,9,9,9,1,0,casa,1,REAL,FALSA,,,,,,,,,,,,,,,,,
,,,,,,,,,6658d3384552a75abbc15f10,001,2024-06-30_08h15.43.855,empathy_intonation_perc,2024.1.4,Win32,238.0952381,101.3157,102.0419,0,1,0.2186,9.99999E-05,102.0419,103.0408,0,10,10,10,1,0,lejo,0,REAL,FALSA,,,,,,,,,,,,,,,,,
,,,,,,,,,6658d3384552a75abbc15f10,001,2024-06-30_08h15.43.855,empathy_intonation_perc,2024.1.4,Win32,238.0952381,103.0415,103.7369,1,0,0.1855,,103.7369,104.7343,0,11,11,11,1,0,pretantas,0,REAL,FALSA,,,,,,,,,,,,,,,,,
,,,,,,,,,6658d3384552a75abbc15f10,001,2024-06-30_08h15.43.855,empathy_intonation_perc,2024.1.4,Win32,238.0952381,,,,,,,,,,,,,,,,,,,104.7345,110.7787,,,,,,,,,,,,,,,
,,,,,,,,,6658d3384552a75abbc15f10,001,2024-06-30_08h15.43.855,empathy_intonation_perc,2024.1.4,Win32,238.0952381,,,,,,,,,,,,,,92,flecha,,,,,,110.7889,112.0391,0,1,0.742,,0,0,0,91,1,non_cognate,1,REAL,FALSA
,,,,,,,,,6658d3384552a75abbc15f10,001,2024-06-30_08h15.43.855,empathy_intonation_perc,2024.1.4,Win32,238.0952381,,,,,,,,,,,,,,27,piano,,,,,,112.0393,113.064,1,0,0.5168,,0,1,1,26,1,two_way_cognate,1,REAL,FALSA
,,,,,,,,,6658d3384552a75abbc15f10,001,2024-06-30_08h15.43.855,empathy_intonation_perc,2024.1.4,Win32,238.0952381,,,,,,,,,,,,,,130,dubo,,,,,,113.0648,113.8304,0,1,0.2582,,0,2,2,129,1,pseudoword,0,REAL,FALSA
,,,,,,,,,6658d3384552a75abbc15f10,001,2024-06-30_08h15.43.855,empathy_intonation_perc,2024.1.4,Win32,238.0952381,,,,,,,,,,,,,,56,pico,,,,,,113.8305,114.5423,0,1,0.2033,,0,3,3,55,1,non_cognate,1,REAL,FALSA
,,,,,,,,,6658d3384552a75abbc15f10,001,2024-06-30_08h15.43.855,empathy_intonation_perc,2024.1.4,Win32,238.0952381,,,,,,,,,,,,,,179,suelet,,,,,,114.5429,115.1118,1,0,0.0629,,0,4,4,178,1,pseudoword,0,REAL,FALSA
,,,,,,,,,6658d3384552a75abbc15f10,001,2024-06-30_08h15.43.855,empathy_intonation_perc,2024.1.4,Win32,238.0952381,,,,,,,,,,,,,,110,densó,,,,,,115.1123,115.8488,1,0,0.2265,,0,5,5,109,1,pseudoword,0,REAL,FALSA
,,,,,,,,,6658d3384552a75abbc15f10,001,2024-06-30_08h15.43.855,empathy_intonation_perc,2024.1.4,Win32,238.0952381,,,,,,,,,,,,,,114,dibrea,,,,,,115.8497,116.6391,0,1,0.2829,,0,6,6,113,1,pseudoword,0,REAL,FALSA
,,,,,,,,,6658d3384552a75abbc15f10,001,2024-06-30_08h15.43.855,empathy_intonation_perc,2024.1.4,Win32,238.0952381,,,,,,,,,,,,,,178,inichó,,,,,,116.6393,117.8338,0,1,0.6821,,0,7,7,177,1,pseudoword,0,REAL,FALSA
,,,,,,,,,6658d3384552a75abbc15f10,001,2024-06-30_08h15.43.855,empathy_intonation_perc,2024.1.4,Win32,238.0952381,,,,,,,,,,,,,,75,patada,,,,,,117.8344,118.6079,1,0,0.2648,,0,8,8,74,1,non_cognate,1,REAL,FALSA
,,,,,,,,,6658d3384552a75abbc15f10,001,2024-06-30_08h15.43.855,empathy_intonation_perc,2024.1.4,Win32,238.0952381,,,,,,,,,,,,,,159,trcia,,,,,,118.6085,119.2875,1,0,0.1693,,0,9,9,158,1,pseudoword,0,REAL,FALSA
,,,,,,,,,6658d3384552a75abbc15f10,001,2024-06-30_08h15.43.855,empathy_intonation_perc,2024.1.4,Win32,238.0952381,,,,,,,,,,,,,,17,clan,,,,,,119.2882,120.0888,0,1,0.292,,0,10,10,16,1,three_way_cognate,1,REAL,FALSA
,,,,,,,,,6658d3384552a75abbc15f10,001,2024-06-30_08h15.43.855,empathy_intonation_perc,2024.1.4,Win32,238.0952381,,,,,,,,,,,,,,73,llevar,,,,,,120.089,121.0512,0,1,0.4552,,0,11,11,72,1,non_cognate,1,REAL,FALSA
,,,,,,,,,6658d3384552a75abbc15f10,001,2024-06-30_08h15.43.855,empathy_intonation_perc,2024.1.4,Win32,238.0952381,,,,,,,,,,,,,,12,dogma,,,,,,121.0513,121.6349,1,0,0.0784,,0,12,12,11,1,three_way_cognate,1,REAL,FALSA
,,,,,,,,,6658d3384552a75abbc15f10,001,2024-06-30_08h15.43.855,empathy_intonation_perc,2024.1.4,Win32,238.0952381,,,,,,,,,,,,,,40,pelvis,,,,,,121.6351,122.4406,0,1,0.296,,0,13,13,39,1,two_way_cognate,1,REAL,FALSA
,,,,,,,,,6658d3384552a75abbc15f10,001,2024-06-30_08h15.43.855,empathy_intonation_perc,2024.1.4,Win32,238.0952381,,,,,,,,,,,,,,127,vien,,,,,,122.4412,123.9838,0,1,1.032,,0,14,14,126,1,pseudoword,0,REAL,FALSA
,,,,,,,,,6658d3384552a75abbc15f10,001,2024-06-30_08h15.43.855,empathy_intonation_perc,2024.1.4,Win32,238.0952381,,,,,,,,,,,,,,138,tator,,,,,,123.9843,124.7117,1,0,0.2186,,0,15,15,137,1,pseudoword,0,REAL,FALSA
,,,,,,,,,6658d3384552a75abbc15f10,001,2024-06-30_08h15.43.855,empathy_intonation_perc,2024.1.4,Win32,238.0952381,,,,,,,,,,,,,,112,samón,,,,,,124.7122,126.2728,1,0,1.0498,,0,16,16,111,1,pseudoword,0,REAL,FALSA
,,,,,,,,,6658d3384552a75abbc15f10,001,2024-06-30_08h15.43.855,empathy_intonation_perc,2024.1.4,Win32,238.0952381,,,,,,,,,,,,,,30,fiscal,,,,,,126.2731,127.0418,1,0,0.2611,,0,17,17,29,1,two_way_cognate,1,REAL,FALSA
,,,,,,,,,6658d3384552a75abbc15f10,001,2024-06-30_08h15.43.855,empathy_intonation_perc,2024.1.4,Win32,238.0952381,,,,,,,,,,,,,,80,cuenco,,,,,,127.0424,127.697,0,1,0.1484,,0,18,18,79,1,non_cognate,1,REAL,FALSA
,,,,,,,,,6658d3384552a75abbc15f10,001,2024-06-30_08h15.43.855,empathy_intonation_perc,2024.1.4,Win32,238.0952381,,,,,,,,,,,,,,55,maldad,,,,,,127.6972,128.4893,0,1,0.2842,,0,19,19,54,1,non_cognate,1,REAL,FALSA
,,,,,,,,,6658d3384552a75abbc15f10,001,2024-06-30_08h15.43.855,empathy_intonation_perc,2024.1.4,Win32,238.0952381,,,,,,,,,,,,,,143,hurcos,,,,,,128.4894,129.041,1,0,0.0396,,0,20,20,142,1,pseudoword,0,REAL,FALSA
,,,,,,,,,6658d3384552a75abbc15f10,001,2024-06-30_08h15.43.855,empathy_intonation_perc,2024.1.4,Win32,238.0952381,,,,,,,,,,,,,,150,cricó,,,,,,129.0416,129.8567,1,0,0.3084,,0,21,21,149,1,pseudoword,0,REAL,FALSA
,,,,,,,,,6658d3384552a75abbc15f10,001,2024-06-30_08h15.43.855,empathy_intonation_perc,2024.1.4,Win32,238.0952381,,,,,,,,,,,,,,24,retina,,,,,,129.8572,131.2503,1,0,0.8854,,0,22,22,23,1,three_way_cognate,1,REAL,FALSA
,,,,,,,,,6658d3384552a75abbc15f10,001,2024-06-30_08h15.43.855,empathy_intonation_perc,2024.1.4,Win32,238.0952381,,,,,,,,,,,,,,70,ánimo,,,,,,131.2503,132.0146,0,1,0.2553,,0,23,23,69,1,non_cognate,1,REAL,FALSA
,,,,,,,,,6658d3384552a75abbc15f10,001,2024-06-30_08h15.43.855,empathy_intonation_perc,2024.1.4,Win32,238.0952381,,,,,,,,,,,,,,139,sasos,,,,,,132.015,133.6241,0,1,1.1019,,0,24,24,138,1,pseudoword,0,REAL,FALSA
,,,,,,,,,6658d3384552a75abbc15f10,001,2024-06-30_08h15.43.855,empathy_intonation_perc,2024.1.4,Win32,238.0952381,,,,,,,,,,,,,,149,emén,,,,,,133.6247,134.1534,1,0,0.0189,,0,25,25,148,1,pseudoword,0,REAL,FALSA
,,,,,,,,,6658d3384552a75abbc15f10,001,2024-06-30_08h15.43.855,empathy_intonation_perc,2024.1.4,Win32,238.0952381,,,,,,,,,,,,,,1,moral,,,,,,134.154,134.9638,0,1,0.3027,,0,26,26,0,1,three_way_cognate,1,REAL,FALSA
,,,,,,,,,6658d3384552a75abbc15f10,001,2024-06-30_08h15.43.855,empathy_intonation_perc,2024.1.4,Win32,238.0952381,,,,,,,,,,,,,,63,hilo,,,,,,134.964,135.8533,0,1,0.3813,,0,27,27,62,1,non_cognate,1,REAL,FALSA
,,,,,,,,,6658d3384552a75abbc15f10,001,2024-06-30_08h15.43.855,empathy_intonation_perc,2024.1.4,Win32,238.0952381,,,,,,,,,,,,,,99,bugor,,,,,,135.8539,136.7187,1,0,0.3552,,0,28,28,98,1,pseudoword,0,REAL,FALSA
,,,,,,,,,6658d3384552a75abbc15f10,001,2024-06-30_08h15.43.855,empathy_intonation_perc,2024.1.4,Win32,238.0952381,,,,,,,,,,,,,,38,halo,,,,,,136.7194,137.4678,1,0,0.2376,,0,29,29,37,1,two_way_cognate,1,REAL,FALSA
,,,,,,,,,6658d3384552a75abbc15f10,001,2024-06-30_08h15.43.855,empathy_intonation_perc,2024.1.4,Win32,238.0952381,,,,,,,,,,,,,,148,gino,,,,,,137.4679,138.5987,1,0,0.6222,,0,30,30,147,1,pseudoword,0,REAL,FALSA
,,,,,,,,,6658d3384552a75abbc15f10,001,2024-06-30_08h15.43.855,empathy_intonation_perc,2024.1.4,Win32,238.0952381,,,,,,,,,,,,,,169,pitis,,,,,,138.5993,139.2973,0,1,0.192,,0,31,31,168,1,pseudoword,0,REAL,FALSA
,,,,,,,,,6658d3384552a75abbc15f10,001,2024-06-30_08h15.43.855,empathy_intonation_perc,2024.1.4,Win32,238.0952381,,,,,,,,,,,,,,170,diabo,,,,,,139.2975,140.1032,0,1,0.2972,,0,32,32,169,1,pseudoword,0,REAL,FALSA
,,,,,,,,,6658d3384552a75abbc15f10,001,2024-06-30_08h15.43.855,empathy_intonation_perc,2024.1.4,Win32,238.0952381,,,,,,,,,,,,,,51,listo,,,,,,140.1037,140.8744,0,1,0.2607,,0,33,33,50,1,non_cognate,1,REAL,FALSA
,,,,,,,,,6658d3384552a75abbc15f10,001,2024-06-30_08h15.43.855,empathy_intonation_perc,2024.1.4,Win32,238.0952381,,,,,,,,,,,,,,88,percha,,,,,,140.875,141.5681,1,0,0.1821,,0,34,34,87,1,non_cognate,1,REAL,FALSA
,,,,,,,,,6658d3384552a75abbc15f10,001,2024-06-30_08h15.43.855,empathy_intonation_perc,2024.1.4,Win32,238.0952381,,,,,,,,,,,,,,184,huenos,,,,,,141.5684,143.7346,1,0,1.6585,,0,35,35,183,1,pseudoword,0,REAL,FALSA
,,,,,,,,,6658d3384552a75abbc15f10,001,2024-06-30_08h15.43.855,empathy_intonation_perc,2024.1.4,Win32,238.0952381,,,,,,,,,,,,,,14,aura,,,,,,143.7348,144.7501,1,0,0.5029,,0,36,36,13,1,three_way_cognate,1,REAL,FALSA
,,,,,,,,,6658d3384552a75abbc15f10,001,2024-06-30_08h15.43.855,empathy_intonation_perc,2024.1.4,Win32,238.0952381,,,,,,,,,,,,,,83,hálito,,,,,,144.7505,145.6609,0,1,0.4008,,0,37,37,82,1,non_cognate,1,REAL,FALSA
,,,,,,,,,6658d3384552a75abbc15f10,001,2024-06-30_08h15.43.855,empathy_intonation_perc,2024.1.4,Win32,238.0952381,,,,,,,,,,,,,,46,mortal,,,,,,145.6613,146.4313,1,0,0.2612,,0,38,38,45,1,two_way_cognate,1,REAL,FALSA
,,,,,,,,,6658d3384552a75abbc15f10,001,2024-06-30_08h15.43.855,empathy_intonation_perc,2024.1.4,Win32,238.0952381,,,,,,,,,,,,,,82,brillo,,,,,,146.4321,147.594,0,1,0.6512,,0,39,39,81,1,non_cognate,1,REAL,FALSA
,,,,,,,,,6658d3384552a75abbc15f10,001,2024-06-30_08h15.43.855,empathy_intonation_perc,2024.1.4,Win32,238.0952381,,,,,,,,,,,,,,34,actor,,,,,,147.5943,149.0243,1,0,0.9228,,0,40,40,33,1,two_way_cognate,1,REAL,FALSA
,,,,,,,,,6658d3384552a75abbc15f10,001,2024-06-30_08h15.43.855,empathy_intonation_perc,2024.1.4,Win32,238.0952381,,,,,,,,,,,,,,67,llamar,,,,,,149.0248,150.5287,0,1,0.9957,,0,41,41,66,1,non_cognate,1,REAL,FALSA
,,,,,,,,,6658d3384552a75abbc15f10,001,2024-06-30_08h15.43.855,empathy_intonation_perc,2024.1.4,Win32,238.0952381,,,,,,,,,,,,,,109,laras,,,,,,150.5293,158.7527,1,0,7.7155,,0,42,42,108,1,pseudoword,0,REAL,FALSA
,,,,,,,,,6658d3384552a75abbc15f10,001,2024-06-30_08h15.43.855,empathy_intonation_perc,2024.1.4,Win32,238.0952381,,,,,,,,,,,,,,21,hotel,,,,,,158.7589,159.6869,1,0,0.4189,,0,43,43,20,1,three_way_cognate,1,REAL,FALSA
,,,,,,,,,6658d3384552a75abbc15f10,001,2024-06-30_08h15.43.855,empathy_intonation_perc,2024.1.4,Win32,238.0952381,,,,,,,,,,,,,,54,tapón,,,,,,159.6875,161.8172,0,1,1.6202,,0,44,44,53,1,non_cognate,1,REAL,FALSA
,,,,,,,,,6658d3384552a75abbc15f10,001,2024-06-30_08h15.43.855,empathy_intonation_perc,2024.1.4,Win32,238.0952381,,,,,,,,,,,,,,147,alla,,,,,,161.8178,162.6409,1,0,0.3135,,0,45,45,146,1,pseudoword,0,REAL,FALSA
,,,,,,,,,6658d3384552a75abbc15f10,001,2024-06-30_08h15.43.855,empathy_intonation_perc,2024.1.4,Win32,238.0952381,,,,,,,,,,,,,,26,enigma,,,,,,162.6416,163.4153,0,1,0.2671,,0,46,46,25,1,two_way_cognate,1,REAL,FALSA
,,,,,,,,,6658d3384552a75abbc15f10,001,2024-06-30_08h15.43.855,empathy_intonation_perc,2024.1.4,Win32,238.0952381,,,,,,,,,,,,,,85,enorme,,,,,,163.4158,164.2321,0,1,0.3058,,0,47,47,84,1,non_cognate,1,REAL,FALSA
,,,,,,,,,6658d3384552a75abbc15f10,001,2024-06-30_08h15.43.855,empathy_intonation_perc,2024.1.4,Win32,238.0952381,,,,,,,,,,,,,,187,nomata,,,,,,164.2326,165.0531,1,0,0.3095,,0,48,48,186,1,pseudoword,0,REAL,FALSA
,,,,,,,,,6658d3384552a75abbc15f10,001,2024-06-30_08h15.43.855,empathy_intonation_perc,2024.1.4,Win32,238.0952381,,,,,,,,,,,,,,123,arane,,,,,,165.0536,165.9653,1,0,0.4034,,0,49,49,122,1,pseudoword,0,REAL,FALSA
,,,,,,,,,6658d3384552a75abbc15f10,001,2024-06-30_08h15.43.855,empathy_intonation_perc,2024.1.4,Win32,238.0952381,,,,,,,,,,,,,,94,forro,,,,,,165.9656,166.6784,0,1,0.2062,,0,50,50,93,1,non_cognate,1,REAL,FALSA
,,,,,,,,,6658d3384552a75abbc15f10,001,2024-06-30_08h15.43.855,empathy_intonation_perc,2024.1.4,Win32,238.0952381,,,,,,,,,,,,,,128,pelí,,,,,,166.6789,167.6944,0,1,0.5053,,0,51,51,127,1,pseudoword,0,REAL,FALSA
,,,,,,,,,6658d3384552a75abbc15f10,001,2024-06-30_08h15.43.855,empathy_intonation_perc,2024.1.4,Win32,238.0952381,,,,,,,,,,,,,,104,estulo,,,,,,167.6949,168.3448,1,0,0.1431,,0,52,52,103,1,pseudoword,0,REAL,FALSA
,,,,,,,,,6658d3384552a75abbc15f10,001,2024-06-30_08h15.43.855,empathy_intonation_perc,2024.1.4,Win32,238.0952381,,,,,,,,,,,,,,108,jauda,,,,,,168.3453,169.0499,1,0,0.1988,,0,53,53,107,1,pseudoword,0,REAL,FALSA
,,,,,,,,,6658d3384552a75abbc15f10,001,2024-06-30_08h15.43.855,empathy_intonation_perc,2024.1.4,Win32,238.0952381,,,,,,,,,,,,,,43,honor,,,,,,169.0501,170.2471,1,0,0.687,,0,54,54,42,1,two_way_cognate,1,REAL,FALSA
,,,,,,,,,6658d3384552a75abbc15f10,001,2024-06-30_08h15.43.855,empathy_intonation_perc,2024.1.4,Win32,238.0952381,,,,,,,,,,,,,,121,barbs,,,,,,170.2477,171.6399,1,0,0.8845,,0,55,55,120,1,pseudoword,0,REAL,FALSA
,,,,,,,,,6658d3384552a75abbc15f10,001,2024-06-30_08h15.43.855,empathy_intonation_perc,2024.1.4,Win32,238.0952381,,,,,,,,,,,,,,35,aurora,,,,,,171.6405,173.3783,1,0,1.2268,,0,56,56,34,1,two_way_cognate,1,REAL,FALSA
,,,,,,,,,6658d3384552a75abbc15f10,001,2024-06-30_08h15.43.855,empathy_intonation_perc,2024.1.4,Win32,238.0952381,,,,,,,,,,,,,,134,molor,,,,,,173.3788,174.4643,0,1,0.5758,,0,57,57,133,1,pseudoword,0,REAL,FALSA
,,,,,,,,,6658d3384552a75abbc15f10,001,2024-06-30_08h15.43.855,empathy_intonation_perc,2024.1.4,Win32,238.0952381,,,,,,,,,,,,,,8,kilo,,,,,,174.4644,175.7659,0,1,0.793,,0,58,58,7,1,three_way_cognate,1,REAL,FALSA
,,,,,,,,,6658d3384552a75abbc15f10,001,2024-06-30_08h15.43.855,empathy_intonation_perc,2024.1.4,Win32,238.0952381,,,,,,,,,,,,,,135,panté,,,,,,175.7668,177.0413,0,1,0.7595,,0,59,59,134,1,pseudoword,0,REAL,FALSA
,,,,,,,,,6658d3384552a75abbc15f10,001,2024-06-30_08h15.43.855,empathy_intonation_perc,2024.1.4,Win32,238.0952381,,,,,,,,,,,,,,93,tapa,,,,,,177.0416,178.4015,0,1,0.8503,,0,60,60,92,1,non_cognate,1,REAL,FALSA
,,,,,,,,,6658d3384552a75abbc15f10,001,2024-06-30_08h15.43.855,empathy_intonation_perc,2024.1.4,Win32,238.0952381,,,,,,,,,,,,,,62,pegar,,,,,,178.4016,179.4159,1,0,0.5063,,0,61,61,61,1,non_cognate,1,REAL,FALSA
,,,,,,,,,6658d3384552a75abbc15f10,001,2024-06-30_08h15.43.855,empathy_intonation_perc,2024.1.4,Win32,238.0952381,,,,,,,,,,,,,,115,lidena,,,,,,179.4163,180.6491,1,0,0.7228,,0,62,62,114,1,pseudoword,0,REAL,FALSA
,,,,,,,,,6658d3384552a75abbc15f10,001,2024-06-30_08h15.43.855,empathy_intonation_perc,2024.1.4,Win32,238.0952381,,,,,,,,,,,,,,155,kugis,,,,,,180.6497,181.2012,0,1,0.0418,,0,63,63,154,1,pseudoword,0,REAL,FALSA
,,,,,,,,,6658d3384552a75abbc15f10,001,2024-06-30_08h15.43.855,empathy_intonation_perc,2024.1.4,Win32,238.0952381,,,,,,,,,,,,,,131,fuar,,,,,,181.2014,181.7671,0,1,0.0572,,0,64,64,130,1,pseudoword,0,REAL,FALSA
,,,,,,,,,6658d3384552a75abbc15f10,001,2024-06-30_08h15.43.855,empathy_intonation_perc,2024.1.4,Win32,238.0952381,,,,,,,,,,,,,,160,fomeó,,,,,,181.7676,182.6743,1,0,0.3978,,0,65,65,159,1,pseudoword,0,REAL,FALSA
,,,,,,,,,6658d3384552a75abbc15f10,001,2024-06-30_08h15.43.855,empathy_intonation_perc,2024.1.4,Win32,238.0952381,,,,,,,,,,,,,,5,extra,,,,,,182.6748,186.2408,0,1,3.0559,,0,66,66,4,1,three_way_cognate,1,REAL,FALSA
,,,,,,,,,6658d3384552a75abbc15f10,001,2024-06-30_08h15.43.855,empathy_intonation_perc,2024.1.4,Win32,238.0952381,,,,,,,,,,,,,,81,sacar,,,,,,186.2464,187.3448,1,0,0.5926,,0,67,67,80,1,non_cognate,1,REAL,FALSA
,,,,,,,,,6658d3384552a75abbc15f10,001,2024-06-30_08h15.43.855,empathy_intonation_perc,2024.1.4,Win32,238.0952381,,,,,,,,,,,,,,188,amplir,,,,,,187.3456,188.3449,0,1,0.4895,,0,68,68,187,1,pseudoword,0,REAL,FALSA
,,,,,,,,,6658d3384552a75abbc15f10,001,2024-06-30_08h15.43.855,empathy_intonation_perc,2024.1.4,Win32,238.0952381,,,,,,,,,,,,,,72,rostro,,,,,,188.3454,189.1848,0,1,0.3294,,0,69,69,71,1,non_cognate,1,REAL,FALSA
,,,,,,,,,6658d3384552a75abbc15f10,001,2024-06-30_08h15.43.855,empathy_intonation_perc,2024.1.4,Win32,238.0952381,,,,,,,,,,,,,,107,plago,,,,,,189.185,189.7838,1,0,0.0907,,0,70,70,106,1,pseudoword,0,REAL,FALSA
,,,,,,,,,6658d3384552a75abbc15f10,001,2024-06-30_08h15.43.855,empathy_intonation_perc,2024.1.4,Win32,238.0952381,,,,,,,,,,,,,,53,punta,,,,,,189.7844,190.5914,1,0,0.2978,,0,71,71,52,1,non_cognate,1,REAL,FALSA
,,,,,,,,,6658d3384552a75abbc15f10,001,2024-06-30_08h15.43.855,empathy_intonation_perc,2024.1.4,Win32,238.0952381,,,,,,,,,,,,,,44,editor,,,,,,190.592,191.4659,0,1,0.3683,,0,72,72,43,1,two_way_cognate,1,REAL,FALSA
,,,,,,,,,6658d3384552a75abbc15f10,001,2024-06-30_08h15.43.855,empathy_intonation_perc,2024.1.4,Win32,238.0952381,,,,,,,,,,,,,,16,chat,,,,,,191.4666,192.3639,0,1,0.3918,,0,73,73,15,1,three_way_cognate,1,REAL,FALSA
,,,,,,,,,6658d3384552a75abbc15f10,001,2024-06-30_08h15.43.855,empathy_intonation_perc,2024.1.4,Win32,238.0952381,,,,,,,,,,,,,,98,martir,,,,,,192.364,193.6472,0,1,0.7752,,0,74,74,97,1,pseudoword,0,REAL,FALSA
,,,,,,,,,6658d3384552a75abbc15f10,001,2024-06-30_08h15.43.855,empathy_intonation_perc,2024.1.4,Win32,238.0952381,,,,,,,,,,,,,,113,nasce,,,,,,193.6474,194.633,1,0,0.4758,,0,75,75,112,1,pseudoword,0,REAL,FALSA
,,,,,,,,,6658d3384552a75abbc15f10,001,2024-06-30_08h15.43.855,empathy_intonation_perc,2024.1.4,Win32,238.0952381,,,,,,,,,,,,,,124,lobe,,,,,,194.6333,195.6554,1,0,0.5124,,0,76,76,123,1,pseudoword,0,REAL,FALSA
,,,,,,,,,6658d3384552a75abbc15f10,001,2024-06-30_08h15.43.855,empathy_intonation_perc,2024.1.4,Win32,238.0952381,,,,,,,,,,,,,,116,grigir,,,,,,195.656,196.9625,1,0,0.7964,,0,77,77,115,1,pseudoword,0,REAL,FALSA
,,,,,,,,,6658d3384552a75abbc15f10,001,2024-06-30_08h15.43.855,empathy_intonation_perc,2024.1.4,Win32,238.0952381,,,,,,,,,,,,,,164,tecia,,,,,,196.9627,197.9656,0,1,0.4928,,0,78,78,163,1,pseudoword,0,REAL,FALSA
,,,,,,,,,6658d3384552a75abbc15f10,001,2024-06-30_08h15.43.855,empathy_intonation_perc,2024.1.4,Win32,238.0952381,,,,,,,,,,,,,,177,entodo,,,,,,197.9663,198.6072,1,0,0.1302,,0,79,79,176,1,pseudoword,0,REAL,FALSA
,,,,,,,,,6658d3384552a75abbc15f10,001,2024-06-30_08h15.43.855,empathy_intonation_perc,2024.1.4,Win32,238.0952381,,,,,,,,,,,,,,18,altar,,,,,,198.6076,199.4305,0,1,0.3126,,0,80,80,17,1,three_way_cognate,1,REAL,FALSA
,,,,,,,,,6658d3384552a75abbc15f10,001,2024-06-30_08h15.43.855,empathy_intonation_perc,2024.1.4,Win32,238.0952381,,,,,,,,,,,,,,90,venado,,,,,,199.4307,200.0471,0,1,0.1079,,0,81,81,89,1,non_cognate,1,REAL,FALSA
,,,,,,,,,6658d3384552a75abbc15f10,001,2024-06-30_08h15.43.855,empathy_intonation_perc,2024.1.4,Win32,238.0952381,,,,,,,,,,,,,,151,prías,,,,,,200.0472,200.9522,1,0,0.3969,,0,82,82,150,1,pseudoword,0,REAL,FALSA
,,,,,,,,,6658d3384552a75abbc15f10,001,2024-06-30_08h15.43.855,empathy_intonation_perc,2024.1.4,Win32,238.0952381,,,,,,,,,,,,,,2,tumor,,,,,,200.9529,201.5287,1,0,0.0649,,0,83,83,1,1,three_way_cognate,1,REAL,FALSA
,,,,,,,,,6658d3384552a75abbc15f10,001,2024-06-30_08h15.43.855,empathy_intonation_perc,2024.1.4,Win32,238.0952381,,,,,,,,,,,,,,50,sierra,,,,,,201.5294,202.6612,1,0,0.6221,,0,84,84,49,1,non_cognate,1,REAL,FALSA
,,,,,,,,,6658d3384552a75abbc15f10,001,2024-06-30_08h15.43.855,empathy_intonation_perc,2024.1.4,Win32,238.0952381,,,,,,,,,,,,,,102,coyo,,,,,,202.6618,203.3571,0,1,0.1846,,0,85,85,101,1,pseudoword,0,REAL,FALSA
,,,,,,,,,6658d3384552a75abbc15f10,001,2024-06-30_08h15.43.855,empathy_intonation_perc,2024.1.4,Win32,238.0952381,,,,,,,,,,,,,,165,chote,,,,,,203.3576,204.5735,1,0,0.7044,,0,86,86,164,1,pseudoword,0,REAL,FALSA
,,,,,,,,,6658d3384552a75abbc15f10,001,2024-06-30_08h15.43.855,empathy_intonation_perc,2024.1.4,Win32,238.0952381,,,,,,,,,,,,,,78,rendir,,,,,,204.5742,205.6076,0,1,0.522,,0,87,87,77,1,non_cognate,1,REAL,FALSA
,,,,,,,,,6658d3384552a75abbc15f10,001,2024-06-30_08h15.43.855,empathy_intonation_perc,2024.1.4,Win32,238.0952381,,,,,,,,,,,,,,7,albino,,,,,,205.6082,207.863,1,0,1.7442,,0,88,88,6,1,three_way_cognate,1,REAL,FALSA
,,,,,,,,,6658d3384552a75abbc15f10,001,2024-06-30_08h15.43.855,empathy_intonation_perc,2024.1.4,Win32,238.0952381,,,,,,,,,,,,,,86,cuenco,,,,,,207.8637,208.488,0,1,0.1186,,0,89,89,85,1,non_cognate,1,REAL,FALSA
,,,,,,,,,6658d3384552a75abbc15f10,001,2024-06-30_08h15.43.855,empathy_intonation_perc,2024.1.4,Win32,238.0952381,,,,,,,,,,,,,,154,harvé,,,,,,208.4882,209.5833,1,0,0.5862,,0,90,90,153,1,pseudoword,0,REAL,FALSA
,,,,,,,,,6658d3384552a75abbc15f10,001,2024-06-30_08h15.43.855,empathy_intonation_perc,2024.1.4,Win32,238.0952381,,,,,,,,,,,,,,161,civas,,,,,,209.5839,211.6496,0,1,1.5554,,0,91,91,160,1,pseudoword,0,REAL,FALSA
,,,,,,,,,6658d3384552a75abbc15f10,001,2024-06-30_08h15.43.855,empathy_intonation_perc,2024.1.4,Win32,238.0952381,,,,,,,,,,,,,,129,vinzó,,,,,,211.65,212.4468,1,0,0.2858,,0,92,92,128,1,pseudoword,0,REAL,FALSA
,,,,,,,,,6658d3384552a75abbc15f10,001,2024-06-30_08h15.43.855,empathy_intonation_perc,2024.1.4,Win32,238.0952381,,,,,,,,,,,,,,186,rizate,,,,,,212.4474,213.149,0,1,0.1935,,0,93,93,185,1,pseudoword,0,REAL,FALSA
,,,,,,,,,6658d3384552a75abbc15f10,001,2024-06-30_08h15.43.855,empathy_intonation_perc,2024.1.4,Win32,238.0952381,,,,,,,,,,,,,,79,suelo,,,,,,213.1495,214.1834,1,0,0.5238,,0,94,94,78,1,non_cognate,1,REAL,FALSA
,,,,,,,,,6658d3384552a75abbc15f10,001,2024-06-30_08h15.43.855,empathy_intonation_perc,2024.1.4,Win32,238.0952381,,,,,,,,,,,,,,3,disco,,,,,,214.1841,215.2405,0,1,0.5467,,0,95,95,2,1,three_way_cognate,1,REAL,FALSA
,,,,,,,,,6658d3384552a75abbc15f10,001,2024-06-30_08h15.43.855,empathy_intonation_perc,2024.1.4,Win32,238.0952381,,,,,,,,,,,,,,64,rizado,,,,,,215.2411,216.632,0,1,0.8807,,0,96,96,63,1,non_cognate,1,REAL,FALSA
,,,,,,,,,6658d3384552a75abbc15f10,001,2024-06-30_08h15.43.855,empathy_intonation_perc,2024.1.4,Win32,238.0952381,,,,,,,,,,,,,,13,plan,,,,,,216.6325,217.3449,1,0,0.2019,,0,97,97,12,1,three_way_cognate,1,REAL,FALSA
,,,,,,,,,6658d3384552a75abbc15f10,001,2024-06-30_08h15.43.855,empathy_intonation_perc,2024.1.4,Win32,238.0952381,,,,,,,,,,,,,,9,portal,,,,,,217.3454,218.2161,0,1,0.3601,,0,98,98,8,1,three_way_cognate,1,REAL,FALSA
,,,,,,,,,6658d3384552a75abbc15f10,001,2024-06-30_08h15.43.855,empathy_intonation_perc,2024.1.4,Win32,238.0952381,,,,,,,,,,,,,,19,mafia,,,,,,218.2168,218.8511,1,0,0.1285,,0,99,99,18,1,three_way_cognate,1,REAL,FALSA
,,,,,,,,,6658d3384552a75abbc15f10,001,2024-06-30_08h15.43.855,empathy_intonation_perc,2024.1.4,Win32,238.0952381,,,,,,,,,,,,,,141,virios,,,,,,218.8513,219.666,1,0,0.3063,,0,100,100,140,1,pseudoword,0,REAL,FALSA
,,,,,,,,,6658d3384552a75abbc15f10,001,2024-06-30_08h15.43.855,empathy_intonation_perc,2024.1.4,Win32,238.0952381,,,,,,,,,,,,,,140,chorde,,,,,,219.6666,220.3271,0,1,0.15,,0,101,101,139,1,pseudoword,0,REAL,FALSA
,,,,,,,,,6658d3384552a75abbc15f10,001,2024-06-30_08h15.43.855,empathy_intonation_perc,2024.1.4,Win32,238.0952381,,,,,,,,,,,,,,32,animal,,,,,,220.3274,220.9281,0,1,0.0933,,0,102,102,31,1,two_way_cognate,1,REAL,FALSA
,,,,,,,,,6658d3384552a75abbc15f10,001,2024-06-30_08h15.43.855,empathy_intonation_perc,2024.1.4,Win32,238.0952381,,,,,,,,,,,,,,106,diebro,,,,,,220.9289,222.2245,0,1,0.7859,,0,103,103,105,1,pseudoword,0,REAL,FALSA
,,,,,,,,,6658d3384552a75abbc15f10,001,2024-06-30_08h15.43.855,empathy_intonation_perc,2024.1.4,Win32,238.0952381,,,,,,,,,,,,,,163,olzan,,,,,,222.225,223.9114,1,0,1.1766,,0,104,104,162,1,pseudoword,0,REAL,FALSA
,,,,,,,,,6658d3384552a75abbc15f10,001,2024-06-30_08h15.43.855,empathy_intonation_perc,2024.1.4,Win32,238.0952381,,,,,,,,,,,,,,133,conso,,,,,,223.9119,225.0244,0,1,0.6022,,0,105,105,132,1,pseudoword,0,REAL,FALSA
,,,,,,,,,6658d3384552a75abbc15f10,001,2024-06-30_08h15.43.855,empathy_intonation_perc,2024.1.4,Win32,238.0952381,,,,,,,,,,,,,,192,próces,,,,,,225.0253,226.4387,1,0,0.9044,,0,106,106,191,1,pseudoword,0,REAL,FALSA
,,,,,,,,,6658d3384552a75abbc15f10,001,2024-06-30_08h15.43.855,empathy_intonation_perc,2024.1.4,Win32,238.0952381,,,,,,,,,,,,,,172,dogue,,,,,,226.439,227.7743,0,1,0.827,,0,107,107,171,1,pseudoword,0,REAL,FALSA
,,,,,,,,,6658d3384552a75abbc15f10,001,2024-06-30_08h15.43.855,empathy_intonation_perc,2024.1.4,Win32,238.0952381,,,,,,,,,,,,,,156,ozoso,,,,,,227.7749,229.0077,0,1,0.7229,,0,108,108,155,1,pseudoword,0,REAL,FALSA
,,,,,,,,,6658d3384552a75abbc15f10,001,2024-06-30_08h15.43.855,empathy_intonation_perc,2024.1.4,Win32,238.0952381,,,,,,,,,,,,,,97,nocita,,,,,,229.0082,230.0879,1,0,0.5689,,0,109,109,96,1,pseudoword,0,REAL,FALSA
,,,,,,,,,6658d3384552a75abbc15f10,001,2024-06-30_08h15.43.855,empathy_intonation_perc,2024.1.4,Win32,238.0952381,,,,,,,,,,,,,,91,equipo,,,,,,230.0884,231.1426,1,0,0.5453,,0,110,110,90,1,non_cognate,1,REAL,FALSA
,,,,,,,,,6658d3384552a75abbc15f10,001,2024-06-30_08h15.43.855,empathy_intonation_perc,2024.1.4,Win32,238.0952381,,,,,,,,,,,,,,22,mango,,,,,,231.1432,232.3294,1,0,0.6781,,0,111,111,21,1,three_way_cognate,1,REAL,FALSA
,,,,,,,,,6658d3384552a75abbc15f10,001,2024-06-30_08h15.43.855,empathy_intonation_perc,2024.1.4,Win32,238.0952381,,,,,,,,,,,,,,190,asumie,,,,,,232.3299,233.554,0,1,0.7139,,0,112,112,189,1,pseudoword,0,REAL,FALSA
,,,,,,,,,6658d3384552a75abbc15f10,001,2024-06-30_08h15.43.855,empathy_intonation_perc,2024.1.4,Win32,238.0952381,,,,,,,,,,,,,,41,pasta,,,,,,233.5543,234.6742,1,0,0.6102,,0,113,113,40,1,two_way_cognate,1,REAL,FALSA
,,,,,,,,,6658d3384552a75abbc15f10,001,2024-06-30_08h15.43.855,empathy_intonation_perc,2024.1.4,Win32,238.0952381,,,,,,,,,,,,,,145,rúo,,,,,,234.6747,235.8006,0,1,0.6159,,0,114,114,144,1,pseudoword,0,REAL,FALSA
,,,,,,,,,6658d3384552a75abbc15f10,001,2024-06-30_08h15.43.855,empathy_intonation_perc,2024.1.4,Win32,238.0952381,,,,,,,,,,,,,,15,test,,,,,,235.8013,236.8615,1,0,0.5511,,0,115,115,14,1,three_way_cognate,1,REAL,FALSA
,,,,,,,,,6658d3384552a75abbc15f10,001,2024-06-30_08h15.43.855,empathy_intonation_perc,2024.1.4,Win32,238.0952381,,,,,,,,,,,,,,158,babrá,,,,,,236.8621,239.2696,1,0,1.8971,,0,116,116,157,1,pseudoword,0,REAL,FALSA
,,,,,,,,,6658d3384552a75abbc15f10,001,2024-06-30_08h15.43.855,empathy_intonation_perc,2024.1.4,Win32,238.0952381,,,,,,,,,,,,,,144,diroco,,,,,,239.2754,240.5223,0,1,0.7377,,0,117,117,143,1,pseudoword,0,REAL,FALSA
,,,,,,,,,6658d3384552a75abbc15f10,001,2024-06-30_08h15.43.855,empathy_intonation_perc,2024.1.4,Win32,238.0952381,,,,,,,,,,,,,,74,ala,,,,,,240.5224,241.7254,0,1,0.6947,,0,118,118,73,1,non_cognate,1,REAL,FALSA
,,,,,,,,,6658d3384552a75abbc15f10,001,2024-06-30_08h15.43.855,empathy_intonation_perc,2024.1.4,Win32,238.0952381,,,,,,,,,,,,,,77,suave,,,,,,241.7258,242.786,1,0,0.5515,,0,119,119,76,1,non_cognate,1,REAL,FALSA
,,,,,,,,,6658d3384552a75abbc15f10,001,2024-06-30_08h15.43.855,empathy_intonation_perc,2024.1.4,Win32,238.0952381,,,,,,,,,,,,,,52,blando,,,,,,242.7866,244.1738,0,1,0.876,,0,120,120,51,1,non_cognate,1,REAL,FALSA
,,,,,,,,,6658d3384552a75abbc15f10,001,2024-06-30_08h15.43.855,empathy_intonation_perc,2024.1.4,Win32,238.0952381,,,,,,,,,,,,,,117,morrá,,,,,,244.1743,246.0167,1,0,1.3346,,0,121,121,116,1,pseudoword,0,REAL,FALSA
,,,,,,,,,6658d3384552a75abbc15f10,001,2024-06-30_08h15.43.855,empathy_intonation_perc,2024.1.4,Win32,238.0952381,,,,,,,,,,,,,,162,cengo,,,,,,246.0173,247.2694,0,1,0.7426,,0,122,122,161,1,pseudoword,0,REAL,FALSA
,,,,,,,,,6658d3384552a75abbc15f10,001,2024-06-30_08h15.43.855,empathy_intonation_perc,2024.1.4,Win32,238.0952381,,,,,,,,,,,,,,59,feo,,,,,,247.2699,248.7212,0,1,0.9406,,0,123,123,58,1,non_cognate,1,REAL,FALSA
,,,,,,,,,6658d3384552a75abbc15f10,001,2024-06-30_08h15.43.855,empathy_intonation_perc,2024.1.4,Win32,238.0952381,,,,,,,,,,,,,,142,parre,,,,,,248.7217,254.4205,0,1,5.1889,,0,124,124,141,1,pseudoword,0,REAL,FALSA
,,,,,,,,,6658d3384552a75abbc15f10,001,2024-06-30_08h15.43.855,empathy_intonation_perc,2024.1.4,Win32,238.0952381,,,,,,,,,,,,,,60,siglo,,,,,,254.426,255.54,0,1,0.6086,,0,125,125,59,1,non_cognate,1,REAL,FALSA
,,,,,,,,,6658d3384552a75abbc15f10,001,2024-06-30_08h15.43.855,empathy_intonation_perc,2024.1.4,Win32,238.0952381,,,,,,,,,,,,,,69,tiza,,,,,,255.5405,256.8958,0,1,0.844,,0,126,126,68,1,non_cognate,1,REAL,FALSA
,,,,,,,,,6658d3384552a75abbc15f10,001,2024-06-30_08h15.43.855,empathy_intonation_perc,2024.1.4,Win32,238.0952381,,,,,,,,,,,,,,28,ardor,,,,,,256.8963,258.1199,1,0,0.7141,,0,127,127,27,1,two_way_cognate,1,REAL,FALSA
,,,,,,,,,6658d3384552a75abbc15f10,001,2024-06-30_08h15.43.855,empathy_intonation_perc,2024.1.4,Win32,238.0952381,,,,,,,,,,,,,,180,pupica,,,,,,258.1204,259.3293,1,0,0.7024,,0,128,128,179,1,pseudoword,0,REAL,FALSA
,,,,,,,,,6658d3384552a75abbc15f10,001,2024-06-30_08h15.43.855,empathy_intonation_perc,2024.1.4,Win32,238.0952381,,,,,,,,,,,,,,57,regalo,,,,,,259.3299,260.7638,0,1,0.9287,,0,129,129,56,1,non_cognate,1,REAL,FALSA
,,,,,,,,,6658d3384552a75abbc15f10,001,2024-06-30_08h15.43.855,empathy_intonation_perc,2024.1.4,Win32,238.0952381,,,,,,,,,,,,,,111,monue,,,,,,260.764,267.8493,0,1,6.577,,0,130,130,110,1,pseudoword,0,REAL,FALSA
,,,,,,,,,6658d3384552a75abbc15f10,001,2024-06-30_08h15.43.855,empathy_intonation_perc,2024.1.4,Win32,238.0952381,,,,,,,,,,,,,,136,hueas,,,,,,267.8553,269.2142,0,1,0.8504,,0,131,131,135,1,pseudoword,0,REAL,FALSA
,,,,,,,,,6658d3384552a75abbc15f10,001,2024-06-30_08h15.43.855,empathy_intonation_perc,2024.1.4,Win32,238.0952381,,,,,,,,,,,,,,49,teñir,,,,,,269.2143,270.407,0,1,0.6844,,0,132,132,48,1,non_cognate,1,REAL,FALSA
,,,,,,,,,6658d3384552a75abbc15f10,001,2024-06-30_08h15.43.855,empathy_intonation_perc,2024.1.4,Win32,238.0952381,,,,,,,,,,,,,,4,flora,,,,,,270.4077,271.3202,1,0,0.4021,,0,133,133,3,1,three_way_cognate,1,REAL,FALSA
,,,,,,,,,6658d3384552a75abbc15f10,001,2024-06-30_08h15.43.855,empathy_intonation_perc,2024.1.4,Win32,238.0952381,,,,,,,,,,,,,,39,casual,,,,,,271.3208,272.3422,1,0,0.5111,,0,134,134,38,1,two_way_cognate,1,REAL,FALSA
,,,,,,,,,6658d3384552a75abbc15f10,001,2024-06-30_08h15.43.855,empathy_intonation_perc,2024.1.4,Win32,238.0952381,,,,,,,,,,,,,,84,aviso,,,,,,272.3424,273.4722,1,0,0.6211,,0,135,135,83,1,non_cognate,1,REAL,FALSA
,,,,,,,,,6658d3384552a75abbc15f10,001,2024-06-30_08h15.43.855,empathy_intonation_perc,2024.1.4,Win32,238.0952381,,,,,,,,,,,,,,166,anfia,,,,,,273.4724,276.1936,0,1,2.2152,,0,136,136,165,1,pseudoword,0,REAL,FALSA
,,,,,,,,,6658d3384552a75abbc15f10,001,2024-06-30_08h15.43.855,empathy_intonation_perc,2024.1.4,Win32,238.0952381,,,,,,,,,,,,,,36,viable,,,,,,276.1939,277.2418,1,0,0.5403,,0,137,137,35,1,two_way_cognate,1,REAL,FALSA
,,,,,,,,,6658d3384552a75abbc15f10,001,2024-06-30_08h15.43.855,empathy_intonation_perc,2024.1.4,Win32,238.0952381,,,,,,,,,,,,,,175,tradía,,,,,,277.2425,278.488,0,1,0.7366,,0,138,138,174,1,pseudoword,0,REAL,FALSA
,,,,,,,,,6658d3384552a75abbc15f10,001,2024-06-30_08h15.43.855,empathy_intonation_perc,2024.1.4,Win32,238.0952381,,,,,,,,,,,,,,174,pabea,,,,,,278.4885,279.729,0,1,0.7316,,0,139,139,173,1,pseudoword,0,REAL,FALSA
,,,,,,,,,6658d3384552a75abbc15f10,001,2024-06-30_08h15.43.855,empathy_intonation_perc,2024.1.4,Win32,238.0952381,,,,,,,,,,,,,,100,épinas,,,,,,279.7295,281.0407,0,1,0.8016,,0,140,140,99,1,pseudoword,0,REAL,FALSA
,,,,,,,,,6658d3384552a75abbc15f10,001,2024-06-30_08h15.43.855,empathy_intonation_perc,2024.1.4,Win32,238.0952381,,,,,,,,,,,,,,25,vigor,,,,,,281.0413,282.0722,1,0,0.5209,,0,141,141,24,1,two_way_cognate,1,REAL,FALSA
,,,,,,,,,6658d3384552a75abbc15f10,001,2024-06-30_08h15.43.855,empathy_intonation_perc,2024.1.4,Win32,238.0952381,,,,,,,,,,,,,,20,trauma,,,,,,282.0723,283.1536,1,0,0.5751,,0,142,142,19,1,three_way_cognate,1,REAL,FALSA
,,,,,,,,,6658d3384552a75abbc15f10,001,2024-06-30_08h15.43.855,empathy_intonation_perc,2024.1.4,Win32,238.0952381,,,,,,,,,,,,,,42,rumor,,,,,,283.1543,284.1521,1,0,0.4917,,0,143,143,41,1,two_way_cognate,1,REAL,FALSA
,,,,,,,,,6658d3384552a75abbc15f10,001,2024-06-30_08h15.43.855,empathy_intonation_perc,2024.1.4,Win32,238.0952381,,,,,,,,,,,,,,119,esís,,,,,,284.1523,285.2319,0,1,0.5721,,0,144,144,118,1,pseudoword,0,REAL,FALSA
,,,,,,,,,6658d3384552a75abbc15f10,001,2024-06-30_08h15.43.855,empathy_intonation_perc,2024.1.4,Win32,238.0952381,,,,,,,,,,,,,,48,pelvis,,,,,,285.2324,286.214,1,0,0.4712,,0,145,145,47,1,two_way_cognate,1,REAL,FALSA
,,,,,,,,,6658d3384552a75abbc15f10,001,2024-06-30_08h15.43.855,empathy_intonation_perc,2024.1.4,Win32,238.0952381,,,,,,,,,,,,,,185,aljizo,,,,,,286.2141,287.2313,0,1,0.5093,,0,146,146,184,1,pseudoword,0,REAL,FALSA
,,,,,,,,,6658d3384552a75abbc15f10,001,2024-06-30_08h15.43.855,empathy_intonation_perc,2024.1.4,Win32,238.0952381,,,,,,,,,,,,,,183,edioso,,,,,,287.2315,288.5936,0,1,0.8548,,0,147,147,182,1,pseudoword,0,REAL,FALSA
,,,,,,,,,6658d3384552a75abbc15f10,001,2024-06-30_08h15.43.855,empathy_intonation_perc,2024.1.4,Win32,238.0952381,,,,,,,,,,,,,,96,caro,,,,,,288.5938,290.9655,1,0,1.8639,,0,148,148,95,1,non_cognate,1,REAL,FALSA
,,,,,,,,,6658d3384552a75abbc15f10,001,2024-06-30_08h15.43.855,empathy_intonation_perc,2024.1.4,Win32,238.0952381,,,,,,,,,,,,,,137,trugo,,,,,,290.9663,292.0556,1,0,0.5821,,0,149,149,136,1,pseudoword,0,REAL,FALSA
,,,,,,,,,6658d3384552a75abbc15f10,001,2024-06-30_08h15.43.855,empathy_intonation_perc,2024.1.4,Win32,238.0952381,,,,,,,,,,,,,,125,ceme,,,,,,292.0559,293.0959,0,1,0.5318,,0,150,150,124,1,pseudoword,0,REAL,FALSA
,,,,,,,,,6658d3384552a75abbc15f10,001,2024-06-30_08h15.43.855,empathy_intonation_perc,2024.1.4,Win32,238.0952381,,,,,,,,,,,,,,95,listo,,,,,,293.0961,294.0971,1,0,0.4875,,0,151,151,94,1,non_cognate,1,REAL,FALSA
,,,,,,,,,6658d3384552a75abbc15f10,001,2024-06-30_08h15.43.855,empathy_intonation_perc,2024.1.4,Win32,238.0952381,,,,,,,,,,,,,,6,horror,,,,,,294.0974,295.3062,1,0,0.7002,,0,152,152,5,1,three_way_cognate,1,REAL,FALSA
,,,,,,,,,6658d3384552a75abbc15f10,001,2024-06-30_08h15.43.855,empathy_intonation_perc,2024.1.4,Win32,238.0952381,,,,,,,,,,,,,,182,desaro,,,,,,295.3065,296.8076,0,1,0.9926,,0,153,153,181,1,pseudoword,0,REAL,FALSA
,,,,,,,,,6658d3384552a75abbc15f10,001,2024-06-30_08h15.43.855,empathy_intonation_perc,2024.1.4,Win32,238.0952381,,,,,,,,,,,,,,176,gripar,,,,,,296.8082,298.3867,0,1,1.0686,,0,154,154,175,1,pseudoword,0,REAL,FALSA
,,,,,,,,,6658d3384552a75abbc15f10,001,2024-06-30_08h15.43.855,empathy_intonation_perc,2024.1.4,Win32,238.0952381,,,,,,,,,,,,,,146,gió,,,,,,298.3873,299.5631,1,0,0.6661,,0,155,155,145,1,pseudoword,0,REAL,FALSA
,,,,,,,,,6658d3384552a75abbc15f10,001,2024-06-30_08h15.43.855,empathy_intonation_perc,2024.1.4,Win32,238.0952381,,,,,,,,,,,,,,33,collar,,,,,,299.5632,300.5868,1,0,0.5146,,0,156,156,32,1,two_way_cognate,1,REAL,FALSA
,,,,,,,,,6658d3384552a75abbc15f10,001,2024-06-30_08h15.43.855,empathy_intonation_perc,2024.1.4,Win32,238.0952381,,,,,,,,,,,,,,120,mauja,,,,,,300.5873,301.7203,0,1,0.621,,0,157,157,119,1,pseudoword,0,REAL,FALSA
,,,,,,,,,6658d3384552a75abbc15f10,001,2024-06-30_08h15.43.855,empathy_intonation_perc,2024.1.4,Win32,238.0952381,,,,,,,,,,,,,,191,frasis,,,,,,301.7208,303.1128,0,1,0.8861,,0,158,158,190,1,pseudoword,0,REAL,FALSA
,,,,,,,,,6658d3384552a75abbc15f10,001,2024-06-30_08h15.43.855,empathy_intonation_perc,2024.1.4,Win32,238.0952381,,,,,,,,,,,,,,122,boñaz,,,,,,303.1135,305.3286,0,1,1.7091,,0,159,159,121,1,pseudoword,0,REAL,FALSA
,,,,,,,,,6658d3384552a75abbc15f10,001,2024-06-30_08h15.43.855,empathy_intonation_perc,2024.1.4,Win32,238.0952381,,,,,,,,,,,,,,173,mibro,,,,,,305.3293,307.8041,0,1,1.9669,,0,160,160,172,1,pseudoword,0,REAL,FALSA
,,,,,,,,,6658d3384552a75abbc15f10,001,2024-06-30_08h15.43.855,empathy_intonation_perc,2024.1.4,Win32,238.0952381,,,,,,,,,,,,,,126,tobre,,,,,,307.8047,308.7743,1,0,0.4602,,0,161,161,125,1,pseudoword,0,REAL,FALSA
,,,,,,,,,6658d3384552a75abbc15f10,001,2024-06-30_08h15.43.855,empathy_intonation_perc,2024.1.4,Win32,238.0952381,,,,,,,,,,,,,,157,seled,,,,,,308.7749,309.9349,0,1,0.6544,,0,162,162,156,1,pseudoword,0,REAL,FALSA
,,,,,,,,,6658d3384552a75abbc15f10,001,2024-06-30_08h15.43.855,empathy_intonation_perc,2024.1.4,Win32,238.0952381,,,,,,,,,,,,,,101,losco,,,,,,309.9351,311.2057,1,0,0.7625,,0,163,163,100,1,pseudoword,0,REAL,FALSA
,,,,,,,,,6658d3384552a75abbc15f10,001,2024-06-30_08h15.43.855,empathy_intonation_perc,2024.1.4,Win32,238.0952381,,,,,,,,,,,,,,61,aduana,,,,,,311.206,312.4416,1,0,0.7261,,0,164,164,60,1,non_cognate,1,REAL,FALSA
,,,,,,,,,6658d3384552a75abbc15f10,001,2024-06-30_08h15.43.855,empathy_intonation_perc,2024.1.4,Win32,238.0952381,,,,,,,,,,,,,,47,color,,,,,,312.4421,313.4391,1,0,0.4901,,0,165,165,46,1,two_way_cognate,1,REAL,FALSA
,,,,,,,,,6658d3384552a75abbc15f10,001,2024-06-30_08h15.43.855,empathy_intonation_perc,2024.1.4,Win32,238.0952381,,,,,,,,,,,,,,181,gravés,,,,,,313.4392,314.6639,0,1,0.7126,,0,166,166,180,1,pseudoword,0,REAL,FALSA
,,,,,,,,,6658d3384552a75abbc15f10,001,2024-06-30_08h15.43.855,empathy_intonation_perc,2024.1.4,Win32,238.0952381,,,,,,,,,,,,,,153,golla,,,,,,314.6641,316.4357,0,1,1.2623,0.0003,0,167,167,152,1,pseudoword,0,REAL,FALSA
,,,,,,,,,6658d3384552a75abbc15f10,001,2024-06-30_08h15.43.855,empathy_intonation_perc,2024.1.4,Win32,238.0952381,,,,,,,,,,,,,,11,golf,,,,,,316.4359,317.4259,1,0,0.4799,,0,168,168,10,1,three_way_cognate,1,REAL,FALSA
,,,,,,,,,6658d3384552a75abbc15f10,001,2024-06-30_08h15.43.855,empathy_intonation_perc,2024.1.4,Win32,238.0952381,,,,,,,,,,,,,,76,chocar,,,,,,317.4263,318.8084,0,1,0.8734,,0,169,169,75,1,non_cognate,1,REAL,FALSA
,,,,,,,,,6658d3384552a75abbc15f10,001,2024-06-30_08h15.43.855,empathy_intonation_perc,2024.1.4,Win32,238.0952381,,,,,,,,,,,,,,66,aleta,,,,,,318.8089,319.9023,1,0,0.5843,,0,170,170,65,1,non_cognate,1,REAL,FALSA
,,,,,,,,,6658d3384552a75abbc15f10,001,2024-06-30_08h15.43.855,empathy_intonation_perc,2024.1.4,Win32,238.0952381,,,,,,,,,,,,,,152,prave,,,,,,319.9029,321.1127,1,0,0.6986,,0,171,171,151,1,pseudoword,0,REAL,FALSA
,,,,,,,,,6658d3384552a75abbc15f10,001,2024-06-30_08h15.43.855,empathy_intonation_perc,2024.1.4,Win32,238.0952381,,,,,,,,,,,,,,37,torso,,,,,,321.1134,322.143,1,0,0.5206,,0,172,172,36,1,two_way_cognate,1,REAL,FALSA
,,,,,,,,,6658d3384552a75abbc15f10,001,2024-06-30_08h15.43.855,empathy_intonation_perc,2024.1.4,Win32,238.0952381,,,,,,,,,,,,,,103,vueras,,,,,,322.1435,323.2752,0,1,0.6212,,0,173,173,102,1,pseudoword,0,REAL,FALSA
,,,,,,,,,6658d3384552a75abbc15f10,001,2024-06-30_08h15.43.855,empathy_intonation_perc,2024.1.4,Win32,238.0952381,,,,,,,,,,,,,,171,gotro,,,,,,323.2754,324.5432,0,1,0.7588,,0,174,174,170,1,pseudoword,0,REAL,FALSA
,,,,,,,,,6658d3384552a75abbc15f10,001,2024-06-30_08h15.43.855,empathy_intonation_perc,2024.1.4,Win32,238.0952381,,,,,,,,,,,,,,118,bará,,,,,,324.5433,325.7115,0,1,0.6598,,0,175,175,117,1,pseudoword,0,REAL,FALSA
,,,,,,,,,6658d3384552a75abbc15f10,001,2024-06-30_08h15.43.855,empathy_intonation_perc,2024.1.4,Win32,238.0952381,,,,,,,,,,,,,,10,drama,,,,,,325.7121,326.7536,1,0,0.5313,,0,176,176,9,1,three_way_cognate,1,REAL,FALSA
,,,,,,,,,6658d3384552a75abbc15f10,001,2024-06-30_08h15.43.855,empathy_intonation_perc,2024.1.4,Win32,238.0952381,,,,,,,,,,,,,,168,cobén,,,,,,326.7541,328.0224,0,1,0.7581,,0,177,177,167,1,pseudoword,0,REAL,FALSA
,,,,,,,,,6658d3384552a75abbc15f10,001,2024-06-30_08h15.43.855,empathy_intonation_perc,2024.1.4,Win32,238.0952381,,,,,,,,,,,,,,23,plural,,,,,,328.0226,329.1674,1,0,0.6364,,0,178,178,22,1,three_way_cognate,1,REAL,FALSA
,,,,,,,,,6658d3384552a75abbc15f10,001,2024-06-30_08h15.43.855,empathy_intonation_perc,2024.1.4,Win32,238.0952381,,,,,,,,,,,,,,31,civil,,,,,,329.1679,330.3981,1,0,0.7217,,0,179,179,30,1,two_way_cognate,1,REAL,FALSA
,,,,,,,,,6658d3384552a75abbc15f10,001,2024-06-30_08h15.43.855,empathy_intonation_perc,2024.1.4,Win32,238.0952381,,,,,,,,,,,,,,65,guerra,,,,,,330.3986,331.9549,1,0,1.0489,,0,180,180,64,1,non_cognate,1,REAL,FALSA
,,,,,,,,,6658d3384552a75abbc15f10,001,2024-06-30_08h15.43.855,empathy_intonation_perc,2024.1.4,Win32,238.0952381,,,,,,,,,,,,,,105,leniz,,,,,,331.9555,333.0745,0,1,0.6093,,0,181,181,104,1,pseudoword,0,REAL,FALSA
,,,,,,,,,6658d3384552a75abbc15f10,001,2024-06-30_08h15.43.855,empathy_intonation_perc,2024.1.4,Win32,238.0952381,,,,,,,,,,,,,,167,dobbo,,,,,,333.0751,334.3537,0,1,0.772,,0,182,182,166,1,pseudoword,0,REAL,FALSA
,,,,,,,,,6658d3384552a75abbc15f10,001,2024-06-30_08h15.43.855,empathy_intonation_perc,2024.1.4,Win32,238.0952381,,,,,,,,,,,,,,89,muñeca,,,,,,334.3542,335.6019,0,1,0.7381,,0,183,183,88,1,non_cognate,1,REAL,FALSA
,,,,,,,,,6658d3384552a75abbc15f10,001,2024-06-30_08h15.43.855,empathy_intonation_perc,2024.1.4,Win32,238.0952381,,,,,,,,,,,,,,45,total,,,,,,335.6021,336.6614,1,0,0.5527,,0,184,184,44,1,two_way_cognate,1,REAL,FALSA
,,,,,,,,,6658d3384552a75abbc15f10,001,2024-06-30_08h15.43.855,empathy_intonation_perc,2024.1.4,Win32,238.0952381,,,,,,,,,,,,,,87,muleta,,,,,,336.662,337.7556,0,1,0.5874,,0,185,185,86,1,non_cognate,1,REAL,FALSA
,,,,,,,,,6658d3384552a75abbc15f10,001,2024-06-30_08h15.43.855,empathy_intonation_perc,2024.1.4,Win32,238.0952381,,,,,,,,,,,,,,58,colcha,,,,,,337.7558,339.2083,1,0,0.9442,,0,186,186,57,1,non_cognate,1,REAL,FALSA
,,,,,,,,,6658d3384552a75abbc15f10,001,2024-06-30_08h15.43.855,empathy_intonation_perc,2024.1.4,Win32,238.0952381,,,,,,,,,,,,,,189,medium,,,,,,339.209,340.2894,1,0,0.5747,,0,187,187,188,1,pseudoword,0,REAL,FALSA
,,,,,,,,,6658d3384552a75abbc15f10,001,2024-06-30_08h15.43.855,empathy_intonation_perc,2024.1.4,Win32,238.0952381,,,,,,,,,,,,,,132,nocó,,,,,,340.2896,341.4891,0,1,0.6921,,0,188,188,131,1,pseudoword,0,REAL,FALSA
,,,,,,,,,6658d3384552a75abbc15f10,001,2024-06-30_08h15.43.855,empathy_intonation_perc,2024.1.4,Win32,238.0952381,,,,,,,,,,,,,,71,torta,,,,,,341.4893,342.7635,0,1,0.7665,,0,189,189,70,1,non_cognate,1,REAL,FALSA
,,,,,,,,,6658d3384552a75abbc15f10,001,2024-06-30_08h15.43.855,empathy_intonation_perc,2024.1.4,Win32,238.0952381,,,,,,,,,,,,,,68,puñal,,,,,,342.7638,343.91,0,1,0.6379,,0,190,190,67,1,non_cognate,1,REAL,FALSA
,,,,,,,,,6658d3384552a75abbc15f10,001,2024-06-30_08h15.43.855,empathy_intonation_perc,2024.1.4,Win32,238.0952381,,,,,,,,,,,,,,29,clamor,,,,,,343.9101,344.9655,1,0,0.5426,,0,191,191,28,1,two_way_cognate,1,REAL,FALSA
