lextale_instructions.started,lextale_instructions.stopped,lextale_instructions_loop.thisRepN,lextale_instructions_loop.thisTrialN,lextale_instructions_loop.thisN,lextale_instructions_loop.thisIndex,lextale_instructions_loop.ran,instructions_text,continue_text,participant,session,date,expName,psychopyVersion,OS,frameRate,lextale_practice.started,lextale_practice.stopped,key_resp_lextale_practice.keys,key_resp_lextale_practice.corr,key_resp_lextale_practice.rt,key_resp_lextale_practice.duration,lextale_practice_feedback.started,lextale_practice_feedback.stopped,lextale_practice_trials.thisRepN,lextale_practice_trials.thisTrialN,lextale_practice_trials.thisN,lextale_practice_trials.thisIndex,lextale_practice_trials.ran,stim,word,correct_response,prac_button_real,prac_button_false,lextale_check.started,lextale_check.stopped,lextale_trial.started,lextale_trial.stopped,key_resp_lextale_trial.keys,key_resp_lextale_trial.corr,key_resp_lextale_trial.rt,key_resp_lextale_trial.duration,lextail_trials.thisRepN,lextail_trials.thisTrialN,lextail_trials.thisN,lextail_trials.thisIndex,lextail_trials.ran,type,correct_reponse,button_real,button_false
0.002,4.051,0,0,0,0,1,"Este es un test de vocabulario en español. 
  
  A continuación vas a ver 90 secuencias de letras que parecen 'españolas'.
  
  Solo algunas de ellas son palabras de verdad.",(presiona la barra espaciadora para continuar),665af528082e8340b28b6c63,001,2024-06-30_10h28.52.133,empathy_intonation_perc,2024.1.4,Linux x86_64,58.82352941,,,,,,,,,,,,,,,,,,,,,,,,,,,,,,,,,,,
4.052,7.562,0,1,1,1,1,"Por favor, señala las palabras que tú conoces (aquellas que estás convencido que son palabras españolas, incluso aunque no seas capaz de dar el significado preciso).",(presiona la barra espaciadora para continuar),665af528082e8340b28b6c63,001,2024-06-30_10h28.52.133,empathy_intonation_perc,2024.1.4,Linux x86_64,58.82352941,,,,,,,,,,,,,,,,,,,,,,,,,,,,,,,,,,,
7.563,10.774,0,2,2,2,1,Pero cuidado: los errores se penalizan. Por eso no tiene sentido tratar de incrementar tu puntuación marcando como reales palabras que nunca has visto.,(presiona la barra espaciadora para continuar),665af528082e8340b28b6c63,001,2024-06-30_10h28.52.133,empathy_intonation_perc,2024.1.4,Linux x86_64,58.82352941,,,,,,,,,,,,,,,,,,,,,,,,,,,,,,,,,,,
10.775,14.253,0,3,3,3,1,"Presiona la tecla 1 si piensas que es una palabra real y la tecla 
  0 si piensas que es una palabra falsa. 
  
  Vamos a practicar un poco...",(presiona la barra espaciadora para continuar),665af528082e8340b28b6c63,001,2024-06-30_10h28.52.133,empathy_intonation_perc,2024.1.4,Linux x86_64,58.82352941,,,,,,,,,,,,,,,,,,,,,,,,,,,,,,,,,,,
,,,,,,,,,665af528082e8340b28b6c63,001,2024-06-30_10h28.52.133,empathy_intonation_perc,2024.1.4,Linux x86_64,58.82352941,14.258,17.498,1,0,2.715,,17.498,18.497,0,0,0,0,1,0,depiste,0,REAL,FALSA,,,,,,,,,,,,,,,,,
,,,,,,,,,665af528082e8340b28b6c63,001,2024-06-30_10h28.52.133,empathy_intonation_perc,2024.1.4,Linux x86_64,58.82352941,18.498,20.062,1,1,1.033,,20.062,21.061,0,1,1,1,1,0,sí,1,REAL,FALSA,,,,,,,,,,,,,,,,,
,,,,,,,,,665af528082e8340b28b6c63,001,2024-06-30_10h28.52.133,empathy_intonation_perc,2024.1.4,Linux x86_64,58.82352941,21.061,24.125,1,0,2.55,,24.125,25.123,0,2,2,2,1,0,coné,0,REAL,FALSA,,,,,,,,,,,,,,,,,
,,,,,,,,,665af528082e8340b28b6c63,001,2024-06-30_10h28.52.133,empathy_intonation_perc,2024.1.4,Linux x86_64,58.82352941,25.124,26.823,0,1,1.161,,26.823,27.822,0,3,3,3,1,0,calpar,0,REAL,FALSA,,,,,,,,,,,,,,,,,
,,,,,,,,,665af528082e8340b28b6c63,001,2024-06-30_10h28.52.133,empathy_intonation_perc,2024.1.4,Linux x86_64,58.82352941,27.822,29.121,0,1,0.766,,29.122,30.119,0,4,4,4,1,0,joten,0,REAL,FALSA,,,,,,,,,,,,,,,,,
,,,,,,,,,665af528082e8340b28b6c63,001,2024-06-30_10h28.52.133,empathy_intonation_perc,2024.1.4,Linux x86_64,58.82352941,30.121,31.617,1,1,0.971,,31.618,32.617,0,5,5,5,1,0,sacapuntas,1,REAL,FALSA,,,,,,,,,,,,,,,,,
,,,,,,,,,665af528082e8340b28b6c63,001,2024-06-30_10h28.52.133,empathy_intonation_perc,2024.1.4,Linux x86_64,58.82352941,32.618,34.032,0,1,0.887,,34.032,35.03,0,6,6,6,1,0,priba,0,REAL,FALSA,,,,,,,,,,,,,,,,,
,,,,,,,,,665af528082e8340b28b6c63,001,2024-06-30_10h28.52.133,empathy_intonation_perc,2024.1.4,Linux x86_64,58.82352941,35.031,36.43,0,1,0.878,,36.43,37.429,0,7,7,7,1,0,pelasula,0,REAL,FALSA,,,,,,,,,,,,,,,,,
,,,,,,,,,665af528082e8340b28b6c63,001,2024-06-30_10h28.52.133,empathy_intonation_perc,2024.1.4,Linux x86_64,58.82352941,37.43,38.911,0,0,0.952,,38.911,39.91,0,8,8,8,1,0,bien,1,REAL,FALSA,,,,,,,,,,,,,,,,,
,,,,,,,,,665af528082e8340b28b6c63,001,2024-06-30_10h28.52.133,empathy_intonation_perc,2024.1.4,Linux x86_64,58.82352941,39.911,41.026,1,1,0.589,,41.026,42.025,0,9,9,9,1,0,casa,1,REAL,FALSA,,,,,,,,,,,,,,,,,
,,,,,,,,,665af528082e8340b28b6c63,001,2024-06-30_10h28.52.133,empathy_intonation_perc,2024.1.4,Linux x86_64,58.82352941,42.026,43.375,1,0,0.827,,43.375,44.373,0,10,10,10,1,0,lejo,0,REAL,FALSA,,,,,,,,,,,,,,,,,
,,,,,,,,,665af528082e8340b28b6c63,001,2024-06-30_10h28.52.133,empathy_intonation_perc,2024.1.4,Linux x86_64,58.82352941,44.374,45.823,0,1,0.912,,45.823,46.822,0,11,11,11,1,0,pretantas,0,REAL,FALSA,,,,,,,,,,,,,,,,,
,,,,,,,,,665af528082e8340b28b6c63,001,2024-06-30_10h28.52.133,empathy_intonation_perc,2024.1.4,Linux x86_64,58.82352941,,,,,,,,,,,,,,,,,,,46.822,48.77,,,,,,,,,,,,,,,
,,,,,,,,,665af528082e8340b28b6c63,001,2024-06-30_10h28.52.133,empathy_intonation_perc,2024.1.4,Linux x86_64,58.82352941,,,,,,,,,,,,,,23,plural,,,,,,48.799,50.653,1,0,1.329,,0,0,0,22,1,three_way_cognate,1,REAL,FALSA
,,,,,,,,,665af528082e8340b28b6c63,001,2024-06-30_10h28.52.133,empathy_intonation_perc,2024.1.4,Linux x86_64,58.82352941,,,,,,,,,,,,,,30,fiscal,,,,,,50.653,52.435,1,0,1.251,,0,1,1,29,1,two_way_cognate,1,REAL,FALSA
,,,,,,,,,665af528082e8340b28b6c63,001,2024-06-30_10h28.52.133,empathy_intonation_perc,2024.1.4,Linux x86_64,58.82352941,,,,,,,,,,,,,,4,flora,,,,,,52.436,53.683,1,0,0.718,,0,2,2,3,1,three_way_cognate,1,REAL,FALSA
,,,,,,,,,665af528082e8340b28b6c63,001,2024-06-30_10h28.52.133,empathy_intonation_perc,2024.1.4,Linux x86_64,58.82352941,,,,,,,,,,,,,,114,dibrea,,,,,,53.684,54.984,0,1,0.779,,0,3,3,113,1,pseudoword,0,REAL,FALSA
,,,,,,,,,665af528082e8340b28b6c63,001,2024-06-30_10h28.52.133,empathy_intonation_perc,2024.1.4,Linux x86_64,58.82352941,,,,,,,,,,,,,,171,gotro,,,,,,54.984,56.532,0,1,1.013,,0,4,4,170,1,pseudoword,0,REAL,FALSA
,,,,,,,,,665af528082e8340b28b6c63,001,2024-06-30_10h28.52.133,empathy_intonation_perc,2024.1.4,Linux x86_64,58.82352941,,,,,,,,,,,,,,165,chote,,,,,,56.533,57.814,0,1,0.752,,0,5,5,164,1,pseudoword,0,REAL,FALSA
,,,,,,,,,665af528082e8340b28b6c63,001,2024-06-30_10h28.52.133,empathy_intonation_perc,2024.1.4,Linux x86_64,58.82352941,,,,,,,,,,,,,,133,conso,,,,,,57.815,59.131,0,1,0.78,,0,6,6,132,1,pseudoword,0,REAL,FALSA
,,,,,,,,,665af528082e8340b28b6c63,001,2024-06-30_10h28.52.133,empathy_intonation_perc,2024.1.4,Linux x86_64,58.82352941,,,,,,,,,,,,,,144,diroco,,,,,,59.131,60.563,0,1,0.901,,0,7,7,143,1,pseudoword,0,REAL,FALSA
,,,,,,,,,665af528082e8340b28b6c63,001,2024-06-30_10h28.52.133,empathy_intonation_perc,2024.1.4,Linux x86_64,58.82352941,,,,,,,,,,,,,,120,mauja,,,,,,60.564,61.779,0,1,0.682,,0,8,8,119,1,pseudoword,0,REAL,FALSA
,,,,,,,,,665af528082e8340b28b6c63,001,2024-06-30_10h28.52.133,empathy_intonation_perc,2024.1.4,Linux x86_64,58.82352941,,,,,,,,,,,,,,117,morrá,,,,,,61.78,63.478,0,1,1.161,,0,9,9,116,1,pseudoword,0,REAL,FALSA
,,,,,,,,,665af528082e8340b28b6c63,001,2024-06-30_10h28.52.133,empathy_intonation_perc,2024.1.4,Linux x86_64,58.82352941,,,,,,,,,,,,,,118,bará,,,,,,63.482,64.644,1,0,0.638,,0,10,10,117,1,pseudoword,0,REAL,FALSA
,,,,,,,,,665af528082e8340b28b6c63,001,2024-06-30_10h28.52.133,empathy_intonation_perc,2024.1.4,Linux x86_64,58.82352941,,,,,,,,,,,,,,176,gripar,,,,,,64.645,65.861,1,0,0.68,,0,11,11,175,1,pseudoword,0,REAL,FALSA
,,,,,,,,,665af528082e8340b28b6c63,001,2024-06-30_10h28.52.133,empathy_intonation_perc,2024.1.4,Linux x86_64,58.82352941,,,,,,,,,,,,,,68,puñal,,,,,,65.862,66.96,1,0,0.564,,0,12,12,67,1,non_cognate,1,REAL,FALSA
,,,,,,,,,665af528082e8340b28b6c63,001,2024-06-30_10h28.52.133,empathy_intonation_perc,2024.1.4,Linux x86_64,58.82352941,,,,,,,,,,,,,,90,venado,,,,,,66.962,68.209,1,0,0.71,,0,13,13,89,1,non_cognate,1,REAL,FALSA
,,,,,,,,,665af528082e8340b28b6c63,001,2024-06-30_10h28.52.133,empathy_intonation_perc,2024.1.4,Linux x86_64,58.82352941,,,,,,,,,,,,,,83,hálito,,,,,,68.21,69.358,1,0,0.621,,0,14,14,82,1,non_cognate,1,REAL,FALSA
,,,,,,,,,665af528082e8340b28b6c63,001,2024-06-30_10h28.52.133,empathy_intonation_perc,2024.1.4,Linux x86_64,58.82352941,,,,,,,,,,,,,,108,jauda,,,,,,69.359,70.542,1,0,0.657,,0,15,15,107,1,pseudoword,0,REAL,FALSA
,,,,,,,,,665af528082e8340b28b6c63,001,2024-06-30_10h28.52.133,empathy_intonation_perc,2024.1.4,Linux x86_64,58.82352941,,,,,,,,,,,,,,136,hueas,,,,,,70.543,72.107,1,0,1.034,,0,16,16,135,1,pseudoword,0,REAL,FALSA
,,,,,,,,,665af528082e8340b28b6c63,001,2024-06-30_10h28.52.133,empathy_intonation_perc,2024.1.4,Linux x86_64,58.82352941,,,,,,,,,,,,,,145,rúo,,,,,,72.108,73.174,1,0,0.54,,0,17,17,144,1,pseudoword,0,REAL,FALSA
,,,,,,,,,665af528082e8340b28b6c63,001,2024-06-30_10h28.52.133,empathy_intonation_perc,2024.1.4,Linux x86_64,58.82352941,,,,,,,,,,,,,,125,ceme,,,,,,73.175,74.373,0,1,0.664,,0,18,18,124,1,pseudoword,0,REAL,FALSA
,,,,,,,,,665af528082e8340b28b6c63,001,2024-06-30_10h28.52.133,empathy_intonation_perc,2024.1.4,Linux x86_64,58.82352941,,,,,,,,,,,,,,95,listo,,,,,,74.374,75.555,1,0,0.648,,0,19,19,94,1,non_cognate,1,REAL,FALSA
,,,,,,,,,665af528082e8340b28b6c63,001,2024-06-30_10h28.52.133,empathy_intonation_perc,2024.1.4,Linux x86_64,58.82352941,,,,,,,,,,,,,,127,vien,,,,,,75.557,76.671,1,0,0.588,,0,20,20,126,1,pseudoword,0,REAL,FALSA
,,,,,,,,,665af528082e8340b28b6c63,001,2024-06-30_10h28.52.133,empathy_intonation_perc,2024.1.4,Linux x86_64,58.82352941,,,,,,,,,,,,,,43,honor,,,,,,76.672,78.387,1,0,1.181,,0,21,21,42,1,two_way_cognate,1,REAL,FALSA
,,,,,,,,,665af528082e8340b28b6c63,001,2024-06-30_10h28.52.133,empathy_intonation_perc,2024.1.4,Linux x86_64,58.82352941,,,,,,,,,,,,,,53,punta,,,,,,78.388,79.453,1,0,0.533,,0,22,22,52,1,non_cognate,1,REAL,FALSA
,,,,,,,,,665af528082e8340b28b6c63,001,2024-06-30_10h28.52.133,empathy_intonation_perc,2024.1.4,Linux x86_64,58.82352941,,,,,,,,,,,,,,148,gino,,,,,,79.453,80.619,1,0,0.63,,0,23,23,147,1,pseudoword,0,REAL,FALSA
,,,,,,,,,665af528082e8340b28b6c63,001,2024-06-30_10h28.52.133,empathy_intonation_perc,2024.1.4,Linux x86_64,58.82352941,,,,,,,,,,,,,,72,rostro,,,,,,80.619,81.952,0,1,0.801,,0,24,24,71,1,non_cognate,1,REAL,FALSA
,,,,,,,,,665af528082e8340b28b6c63,001,2024-06-30_10h28.52.133,empathy_intonation_perc,2024.1.4,Linux x86_64,58.82352941,,,,,,,,,,,,,,36,viable,,,,,,81.952,84.584,0,1,2.097,,0,25,25,35,1,two_way_cognate,1,REAL,FALSA
,,,,,,,,,665af528082e8340b28b6c63,001,2024-06-30_10h28.52.133,empathy_intonation_perc,2024.1.4,Linux x86_64,58.82352941,,,,,,,,,,,,,,69,tiza,,,,,,84.585,86.049,0,1,0.936,,0,26,26,68,1,non_cognate,1,REAL,FALSA
,,,,,,,,,665af528082e8340b28b6c63,001,2024-06-30_10h28.52.133,empathy_intonation_perc,2024.1.4,Linux x86_64,58.82352941,,,,,,,,,,,,,,57,regalo,,,,,,86.05,87.2,1,0,0.628,,0,27,27,56,1,non_cognate,1,REAL,FALSA
,,,,,,,,,665af528082e8340b28b6c63,001,2024-06-30_10h28.52.133,empathy_intonation_perc,2024.1.4,Linux x86_64,58.82352941,,,,,,,,,,,,,,168,cobén,,,,,,87.2,88.449,1,0,0.713,,0,28,28,167,1,pseudoword,0,REAL,FALSA
,,,,,,,,,665af528082e8340b28b6c63,001,2024-06-30_10h28.52.133,empathy_intonation_perc,2024.1.4,Linux x86_64,58.82352941,,,,,,,,,,,,,,51,listo,,,,,,88.45,89.699,1,0,0.713,,0,29,29,50,1,non_cognate,1,REAL,FALSA
,,,,,,,,,665af528082e8340b28b6c63,001,2024-06-30_10h28.52.133,empathy_intonation_perc,2024.1.4,Linux x86_64,58.82352941,,,,,,,,,,,,,,13,plan,,,,,,89.699,91.782,1,0,1.552,,0,30,30,12,1,three_way_cognate,1,REAL,FALSA
,,,,,,,,,665af528082e8340b28b6c63,001,2024-06-30_10h28.52.133,empathy_intonation_perc,2024.1.4,Linux x86_64,58.82352941,,,,,,,,,,,,,,45,total,,,,,,91.783,93.081,0,1,0.768,,0,31,31,44,1,two_way_cognate,1,REAL,FALSA
,,,,,,,,,665af528082e8340b28b6c63,001,2024-06-30_10h28.52.133,empathy_intonation_perc,2024.1.4,Linux x86_64,58.82352941,,,,,,,,,,,,,,77,suave,,,,,,93.081,94.263,1,0,0.648,,0,32,32,76,1,non_cognate,1,REAL,FALSA
,,,,,,,,,665af528082e8340b28b6c63,001,2024-06-30_10h28.52.133,empathy_intonation_perc,2024.1.4,Linux x86_64,58.82352941,,,,,,,,,,,,,,5,extra,,,,,,94.263,95.362,1,0,0.584,,0,33,33,4,1,three_way_cognate,1,REAL,FALSA
,,,,,,,,,665af528082e8340b28b6c63,001,2024-06-30_10h28.52.133,empathy_intonation_perc,2024.1.4,Linux x86_64,58.82352941,,,,,,,,,,,,,,185,aljizo,,,,,,95.363,96.729,0,1,0.85,,0,34,34,184,1,pseudoword,0,REAL,FALSA
,,,,,,,,,665af528082e8340b28b6c63,001,2024-06-30_10h28.52.133,empathy_intonation_perc,2024.1.4,Linux x86_64,58.82352941,,,,,,,,,,,,,,128,pelí,,,,,,96.733,98.012,1,0,0.748,,0,35,35,127,1,pseudoword,0,REAL,FALSA
,,,,,,,,,665af528082e8340b28b6c63,001,2024-06-30_10h28.52.133,empathy_intonation_perc,2024.1.4,Linux x86_64,58.82352941,,,,,,,,,,,,,,107,plago,,,,,,98.012,99.178,1,0,0.649,,0,36,36,106,1,pseudoword,0,REAL,FALSA
,,,,,,,,,665af528082e8340b28b6c63,001,2024-06-30_10h28.52.133,empathy_intonation_perc,2024.1.4,Linux x86_64,58.82352941,,,,,,,,,,,,,,79,suelo,,,,,,99.178,100.244,1,0,0.531,,0,37,37,78,1,non_cognate,1,REAL,FALSA
,,,,,,,,,665af528082e8340b28b6c63,001,2024-06-30_10h28.52.133,empathy_intonation_perc,2024.1.4,Linux x86_64,58.82352941,,,,,,,,,,,,,,158,babrá,,,,,,100.245,101.427,1,0,0.645,,0,38,38,157,1,pseudoword,0,REAL,FALSA
,,,,,,,,,665af528082e8340b28b6c63,001,2024-06-30_10h28.52.133,empathy_intonation_perc,2024.1.4,Linux x86_64,58.82352941,,,,,,,,,,,,,,20,trauma,,,,,,101.428,102.743,1,0,0.782,,0,39,39,19,1,three_way_cognate,1,REAL,FALSA
,,,,,,,,,665af528082e8340b28b6c63,001,2024-06-30_10h28.52.133,empathy_intonation_perc,2024.1.4,Linux x86_64,58.82352941,,,,,,,,,,,,,,42,rumor,,,,,,102.744,104.709,1,0,1.435,,0,40,40,41,1,two_way_cognate,1,REAL,FALSA
,,,,,,,,,665af528082e8340b28b6c63,001,2024-06-30_10h28.52.133,empathy_intonation_perc,2024.1.4,Linux x86_64,58.82352941,,,,,,,,,,,,,,38,halo,,,,,,104.71,105.86,1,0,0.613,,0,41,41,37,1,two_way_cognate,1,REAL,FALSA
,,,,,,,,,665af528082e8340b28b6c63,001,2024-06-30_10h28.52.133,empathy_intonation_perc,2024.1.4,Linux x86_64,58.82352941,,,,,,,,,,,,,,65,guerra,,,,,,105.86,106.958,1,0,0.563,,0,42,42,64,1,non_cognate,1,REAL,FALSA
,,,,,,,,,665af528082e8340b28b6c63,001,2024-06-30_10h28.52.133,empathy_intonation_perc,2024.1.4,Linux x86_64,58.82352941,,,,,,,,,,,,,,7,albino,,,,,,106.959,108.258,1,0,0.79,,0,43,43,6,1,three_way_cognate,1,REAL,FALSA
,,,,,,,,,665af528082e8340b28b6c63,001,2024-06-30_10h28.52.133,empathy_intonation_perc,2024.1.4,Linux x86_64,58.82352941,,,,,,,,,,,,,,14,aura,,,,,,108.259,109.34,1,0,0.547,,0,44,44,13,1,three_way_cognate,1,REAL,FALSA
,,,,,,,,,665af528082e8340b28b6c63,001,2024-06-30_10h28.52.133,empathy_intonation_perc,2024.1.4,Linux x86_64,58.82352941,,,,,,,,,,,,,,119,esís,,,,,,109.341,110.39,1,0,0.538,,0,45,45,118,1,pseudoword,0,REAL,FALSA
,,,,,,,,,665af528082e8340b28b6c63,001,2024-06-30_10h28.52.133,empathy_intonation_perc,2024.1.4,Linux x86_64,58.82352941,,,,,,,,,,,,,,6,horror,,,,,,110.39,111.556,1,0,0.647,,0,46,46,5,1,three_way_cognate,1,REAL,FALSA
,,,,,,,,,665af528082e8340b28b6c63,001,2024-06-30_10h28.52.133,empathy_intonation_perc,2024.1.4,Linux x86_64,58.82352941,,,,,,,,,,,,,,56,pico,,,,,,111.557,112.677,1,0,0.602,,0,47,47,55,1,non_cognate,1,REAL,FALSA
,,,,,,,,,665af528082e8340b28b6c63,001,2024-06-30_10h28.52.133,empathy_intonation_perc,2024.1.4,Linux x86_64,58.82352941,,,,,,,,,,,,,,76,chocar,,,,,,112.677,113.78,1,0,0.581,,0,48,48,75,1,non_cognate,1,REAL,FALSA
,,,,,,,,,665af528082e8340b28b6c63,001,2024-06-30_10h28.52.133,empathy_intonation_perc,2024.1.4,Linux x86_64,58.82352941,,,,,,,,,,,,,,78,rendir,,,,,,113.781,114.785,1,0,0.485,,0,49,49,77,1,non_cognate,1,REAL,FALSA
,,,,,,,,,665af528082e8340b28b6c63,001,2024-06-30_10h28.52.133,empathy_intonation_perc,2024.1.4,Linux x86_64,58.82352941,,,,,,,,,,,,,,50,sierra,,,,,,114.785,115.789,0,1,0.489,,0,50,50,49,1,non_cognate,1,REAL,FALSA
,,,,,,,,,665af528082e8340b28b6c63,001,2024-06-30_10h28.52.133,empathy_intonation_perc,2024.1.4,Linux x86_64,58.82352941,,,,,,,,,,,,,,41,pasta,,,,,,115.789,116.978,1,0,0.666,,0,51,51,40,1,two_way_cognate,1,REAL,FALSA
,,,,,,,,,665af528082e8340b28b6c63,001,2024-06-30_10h28.52.133,empathy_intonation_perc,2024.1.4,Linux x86_64,58.82352941,,,,,,,,,,,,,,80,cuenco,,,,,,116.978,118.148,1,0,0.659,,0,52,52,79,1,non_cognate,1,REAL,FALSA
,,,,,,,,,665af528082e8340b28b6c63,001,2024-06-30_10h28.52.133,empathy_intonation_perc,2024.1.4,Linux x86_64,58.82352941,,,,,,,,,,,,,,21,hotel,,,,,,118.148,119.485,1,0,0.825,,0,53,53,20,1,three_way_cognate,1,REAL,FALSA
,,,,,,,,,665af528082e8340b28b6c63,001,2024-06-30_10h28.52.133,empathy_intonation_perc,2024.1.4,Linux x86_64,58.82352941,,,,,,,,,,,,,,137,trugo,,,,,,119.485,120.741,1,0,0.735,,0,54,54,136,1,pseudoword,0,REAL,FALSA
,,,,,,,,,665af528082e8340b28b6c63,001,2024-06-30_10h28.52.133,empathy_intonation_perc,2024.1.4,Linux x86_64,58.82352941,,,,,,,,,,,,,,181,gravés,,,,,,120.741,121.911,1,0,0.654,,0,55,55,180,1,pseudoword,0,REAL,FALSA
,,,,,,,,,665af528082e8340b28b6c63,001,2024-06-30_10h28.52.133,empathy_intonation_perc,2024.1.4,Linux x86_64,58.82352941,,,,,,,,,,,,,,162,cengo,,,,,,121.912,123.031,0,1,0.582,,0,56,56,161,1,pseudoword,0,REAL,FALSA
,,,,,,,,,665af528082e8340b28b6c63,001,2024-06-30_10h28.52.133,empathy_intonation_perc,2024.1.4,Linux x86_64,58.82352941,,,,,,,,,,,,,,31,civil,,,,,,123.032,124.82,1,0,1.275,,0,57,57,30,1,two_way_cognate,1,REAL,FALSA
,,,,,,,,,665af528082e8340b28b6c63,001,2024-06-30_10h28.52.133,empathy_intonation_perc,2024.1.4,Linux x86_64,58.82352941,,,,,,,,,,,,,,8,kilo,,,,,,124.82,125.99,1,0,0.65,,0,58,58,7,1,three_way_cognate,1,REAL,FALSA
,,,,,,,,,665af528082e8340b28b6c63,001,2024-06-30_10h28.52.133,empathy_intonation_perc,2024.1.4,Linux x86_64,58.82352941,,,,,,,,,,,,,,40,pelvis,,,,,,125.991,128.026,0,1,1.5,,0,59,59,39,1,two_way_cognate,1,REAL,FALSA
,,,,,,,,,665af528082e8340b28b6c63,001,2024-06-30_10h28.52.133,empathy_intonation_perc,2024.1.4,Linux x86_64,58.82352941,,,,,,,,,,,,,,74,ala,,,,,,128.027,129.282,1,0,0.738,,0,60,60,73,1,non_cognate,1,REAL,FALSA
,,,,,,,,,665af528082e8340b28b6c63,001,2024-06-30_10h28.52.133,empathy_intonation_perc,2024.1.4,Linux x86_64,58.82352941,,,,,,,,,,,,,,167,dobbo,,,,,,129.286,130.518,0,1,0.698,,0,61,61,166,1,pseudoword,0,REAL,FALSA
,,,,,,,,,665af528082e8340b28b6c63,001,2024-06-30_10h28.52.133,empathy_intonation_perc,2024.1.4,Linux x86_64,58.82352941,,,,,,,,,,,,,,142,parre,,,,,,130.519,132.172,1,0,1.132,,0,62,62,141,1,pseudoword,0,REAL,FALSA
,,,,,,,,,665af528082e8340b28b6c63,001,2024-06-30_10h28.52.133,empathy_intonation_perc,2024.1.4,Linux x86_64,58.82352941,,,,,,,,,,,,,,87,muleta,,,,,,132.172,133.392,1,0,0.695,,0,63,63,86,1,non_cognate,1,REAL,FALSA
,,,,,,,,,665af528082e8340b28b6c63,001,2024-06-30_10h28.52.133,empathy_intonation_perc,2024.1.4,Linux x86_64,58.82352941,,,,,,,,,,,,,,89,muñeca,,,,,,133.392,134.527,1,0,0.621,,0,64,64,88,1,non_cognate,1,REAL,FALSA
,,,,,,,,,665af528082e8340b28b6c63,001,2024-06-30_10h28.52.133,empathy_intonation_perc,2024.1.4,Linux x86_64,58.82352941,,,,,,,,,,,,,,71,torta,,,,,,134.528,135.913,1,0,0.871,,0,65,65,70,1,non_cognate,1,REAL,FALSA
,,,,,,,,,665af528082e8340b28b6c63,001,2024-06-30_10h28.52.133,empathy_intonation_perc,2024.1.4,Linux x86_64,58.82352941,,,,,,,,,,,,,,52,blando,,,,,,135.914,137.247,1,0,0.822,,0,66,66,51,1,non_cognate,1,REAL,FALSA
,,,,,,,,,665af528082e8340b28b6c63,001,2024-06-30_10h28.52.133,empathy_intonation_perc,2024.1.4,Linux x86_64,58.82352941,,,,,,,,,,,,,,160,fomeó,,,,,,137.248,139.154,1,0,1.393,,0,67,67,159,1,pseudoword,0,REAL,FALSA
,,,,,,,,,665af528082e8340b28b6c63,001,2024-06-30_10h28.52.133,empathy_intonation_perc,2024.1.4,Linux x86_64,58.82352941,,,,,,,,,,,,,,44,editor,,,,,,139.155,140.623,1,0,0.933,,0,68,68,43,1,two_way_cognate,1,REAL,FALSA
,,,,,,,,,665af528082e8340b28b6c63,001,2024-06-30_10h28.52.133,empathy_intonation_perc,2024.1.4,Linux x86_64,58.82352941,,,,,,,,,,,,,,192,próces,,,,,,140.624,141.858,1,0,0.702,,0,69,69,191,1,pseudoword,0,REAL,FALSA
,,,,,,,,,665af528082e8340b28b6c63,001,2024-06-30_10h28.52.133,empathy_intonation_perc,2024.1.4,Linux x86_64,58.82352941,,,,,,,,,,,,,,164,tecia,,,,,,141.859,143.544,0,1,1.17,,0,70,70,163,1,pseudoword,0,REAL,FALSA
,,,,,,,,,665af528082e8340b28b6c63,001,2024-06-30_10h28.52.133,empathy_intonation_perc,2024.1.4,Linux x86_64,58.82352941,,,,,,,,,,,,,,93,tapa,,,,,,143.545,144.931,1,0,0.862,,0,71,71,92,1,non_cognate,1,REAL,FALSA
,,,,,,,,,665af528082e8340b28b6c63,001,2024-06-30_10h28.52.133,empathy_intonation_perc,2024.1.4,Linux x86_64,58.82352941,,,,,,,,,,,,,,2,tumor,,,,,,144.931,146.25,1,0,0.801,,0,72,72,1,1,three_way_cognate,1,REAL,FALSA
,,,,,,,,,665af528082e8340b28b6c63,001,2024-06-30_10h28.52.133,empathy_intonation_perc,2024.1.4,Linux x86_64,58.82352941,,,,,,,,,,,,,,84,aviso,,,,,,146.251,147.317,1,0,0.535,,0,73,73,83,1,non_cognate,1,REAL,FALSA
,,,,,,,,,665af528082e8340b28b6c63,001,2024-06-30_10h28.52.133,empathy_intonation_perc,2024.1.4,Linux x86_64,58.82352941,,,,,,,,,,,,,,63,hilo,,,,,,147.318,148.335,1,0,0.505,,0,74,74,62,1,non_cognate,1,REAL,FALSA
,,,,,,,,,665af528082e8340b28b6c63,001,2024-06-30_10h28.52.133,empathy_intonation_perc,2024.1.4,Linux x86_64,58.82352941,,,,,,,,,,,,,,141,virios,,,,,,148.336,152.107,0,1,3.262,,0,75,75,140,1,pseudoword,0,REAL,FALSA
,,,,,,,,,665af528082e8340b28b6c63,001,2024-06-30_10h28.52.133,empathy_intonation_perc,2024.1.4,Linux x86_64,58.82352941,,,,,,,,,,,,,,129,vinzó,,,,,,152.108,153.809,1,0,1.19,,0,76,76,128,1,pseudoword,0,REAL,FALSA
,,,,,,,,,665af528082e8340b28b6c63,001,2024-06-30_10h28.52.133,empathy_intonation_perc,2024.1.4,Linux x86_64,58.82352941,,,,,,,,,,,,,,105,leniz,,,,,,153.81,155.394,0,1,1.056,,0,77,77,104,1,pseudoword,0,REAL,FALSA
,,,,,,,,,665af528082e8340b28b6c63,001,2024-06-30_10h28.52.133,empathy_intonation_perc,2024.1.4,Linux x86_64,58.82352941,,,,,,,,,,,,,,70,ánimo,,,,,,155.395,156.947,1,0,1.036,,0,78,78,69,1,non_cognate,1,REAL,FALSA
,,,,,,,,,665af528082e8340b28b6c63,001,2024-06-30_10h28.52.133,empathy_intonation_perc,2024.1.4,Linux x86_64,58.82352941,,,,,,,,,,,,,,55,maldad,,,,,,156.947,158.665,0,1,1.198,,0,79,79,54,1,non_cognate,1,REAL,FALSA
,,,,,,,,,665af528082e8340b28b6c63,001,2024-06-30_10h28.52.133,empathy_intonation_perc,2024.1.4,Linux x86_64,58.82352941,,,,,,,,,,,,,,73,llevar,,,,,,158.665,159.934,0,1,0.757,,0,80,80,72,1,non_cognate,1,REAL,FALSA
,,,,,,,,,665af528082e8340b28b6c63,001,2024-06-30_10h28.52.133,empathy_intonation_perc,2024.1.4,Linux x86_64,58.82352941,,,,,,,,,,,,,,174,pabea,,,,,,159.935,161.184,0,1,0.715,,0,81,81,173,1,pseudoword,0,REAL,FALSA
,,,,,,,,,665af528082e8340b28b6c63,001,2024-06-30_10h28.52.133,empathy_intonation_perc,2024.1.4,Linux x86_64,58.82352941,,,,,,,,,,,,,,186,rizate,,,,,,161.185,162.286,0,1,0.589,,0,82,82,185,1,pseudoword,0,REAL,FALSA
,,,,,,,,,665af528082e8340b28b6c63,001,2024-06-30_10h28.52.133,empathy_intonation_perc,2024.1.4,Linux x86_64,58.82352941,,,,,,,,,,,,,,62,pegar,,,,,,162.29,163.387,0,1,0.573,,0,83,83,61,1,non_cognate,1,REAL,FALSA
,,,,,,,,,665af528082e8340b28b6c63,001,2024-06-30_10h28.52.133,empathy_intonation_perc,2024.1.4,Linux x86_64,58.82352941,,,,,,,,,,,,,,150,cricó,,,,,,163.388,164.622,1,0,0.707,,0,84,84,149,1,pseudoword,0,REAL,FALSA
,,,,,,,,,665af528082e8340b28b6c63,001,2024-06-30_10h28.52.133,empathy_intonation_perc,2024.1.4,Linux x86_64,58.82352941,,,,,,,,,,,,,,29,clamor,,,,,,164.622,166.139,1,0,0.997,,0,85,85,28,1,two_way_cognate,1,REAL,FALSA
,,,,,,,,,665af528082e8340b28b6c63,001,2024-06-30_10h28.52.133,empathy_intonation_perc,2024.1.4,Linux x86_64,58.82352941,,,,,,,,,,,,,,18,altar,,,,,,166.14,167.356,1,0,0.688,,0,86,86,17,1,three_way_cognate,1,REAL,FALSA
,,,,,,,,,665af528082e8340b28b6c63,001,2024-06-30_10h28.52.133,empathy_intonation_perc,2024.1.4,Linux x86_64,58.82352941,,,,,,,,,,,,,,3,disco,,,,,,167.358,168.558,0,1,0.663,,0,87,87,2,1,three_way_cognate,1,REAL,FALSA
,,,,,,,,,665af528082e8340b28b6c63,001,2024-06-30_10h28.52.133,empathy_intonation_perc,2024.1.4,Linux x86_64,58.82352941,,,,,,,,,,,,,,112,samón,,,,,,168.559,169.642,1,0,0.552,,0,88,88,111,1,pseudoword,0,REAL,FALSA
,,,,,,,,,665af528082e8340b28b6c63,001,2024-06-30_10h28.52.133,empathy_intonation_perc,2024.1.4,Linux x86_64,58.82352941,,,,,,,,,,,,,,131,fuar,,,,,,169.642,170.893,0,1,0.736,,0,89,89,130,1,pseudoword,0,REAL,FALSA
,,,,,,,,,665af528082e8340b28b6c63,001,2024-06-30_10h28.52.133,empathy_intonation_perc,2024.1.4,Linux x86_64,58.82352941,,,,,,,,,,,,,,169,pitis,,,,,,170.894,172.094,0,1,0.665,,0,90,90,168,1,pseudoword,0,REAL,FALSA
,,,,,,,,,665af528082e8340b28b6c63,001,2024-06-30_10h28.52.133,empathy_intonation_perc,2024.1.4,Linux x86_64,58.82352941,,,,,,,,,,,,,,25,vigor,,,,,,172.094,173.462,1,0,0.848,,0,91,91,24,1,two_way_cognate,1,REAL,FALSA
,,,,,,,,,665af528082e8340b28b6c63,001,2024-06-30_10h28.52.133,empathy_intonation_perc,2024.1.4,Linux x86_64,58.82352941,,,,,,,,,,,,,,178,inichó,,,,,,173.463,174.829,0,1,0.849,,0,92,92,177,1,pseudoword,0,REAL,FALSA
,,,,,,,,,665af528082e8340b28b6c63,001,2024-06-30_10h28.52.133,empathy_intonation_perc,2024.1.4,Linux x86_64,58.82352941,,,,,,,,,,,,,,161,civas,,,,,,174.83,176.564,1,0,1.201,,0,93,93,160,1,pseudoword,0,REAL,FALSA
,,,,,,,,,665af528082e8340b28b6c63,001,2024-06-30_10h28.52.133,empathy_intonation_perc,2024.1.4,Linux x86_64,58.82352941,,,,,,,,,,,,,,59,feo,,,,,,176.564,177.898,0,1,0.818,,0,94,94,58,1,non_cognate,1,REAL,FALSA
,,,,,,,,,665af528082e8340b28b6c63,001,2024-06-30_10h28.52.133,empathy_intonation_perc,2024.1.4,Linux x86_64,58.82352941,,,,,,,,,,,,,,9,portal,,,,,,177.899,179.233,1,0,0.818,,0,95,95,8,1,three_way_cognate,1,REAL,FALSA
,,,,,,,,,665af528082e8340b28b6c63,001,2024-06-30_10h28.52.133,empathy_intonation_perc,2024.1.4,Linux x86_64,58.82352941,,,,,,,,,,,,,,113,nasce,,,,,,179.233,180.517,1,0,0.775,,0,96,96,112,1,pseudoword,0,REAL,FALSA
,,,,,,,,,665af528082e8340b28b6c63,001,2024-06-30_10h28.52.133,empathy_intonation_perc,2024.1.4,Linux x86_64,58.82352941,,,,,,,,,,,,,,190,asumie,,,,,,180.517,181.785,1,0,0.731,,0,97,97,189,1,pseudoword,0,REAL,FALSA
,,,,,,,,,665af528082e8340b28b6c63,001,2024-06-30_10h28.52.133,empathy_intonation_perc,2024.1.4,Linux x86_64,58.82352941,,,,,,,,,,,,,,134,molor,,,,,,181.785,183.302,1,0,0.98,,0,98,98,133,1,pseudoword,0,REAL,FALSA
,,,,,,,,,665af528082e8340b28b6c63,001,2024-06-30_10h28.52.133,empathy_intonation_perc,2024.1.4,Linux x86_64,58.82352941,,,,,,,,,,,,,,180,pupica,,,,,,183.303,185.203,1,0,1.364,,0,99,99,179,1,pseudoword,0,REAL,FALSA
,,,,,,,,,665af528082e8340b28b6c63,001,2024-06-30_10h28.52.133,empathy_intonation_perc,2024.1.4,Linux x86_64,58.82352941,,,,,,,,,,,,,,102,coyo,,,,,,185.204,187.121,0,1,1.383,,0,100,100,101,1,pseudoword,0,REAL,FALSA
,,,,,,,,,665af528082e8340b28b6c63,001,2024-06-30_10h28.52.133,empathy_intonation_perc,2024.1.4,Linux x86_64,58.82352941,,,,,,,,,,,,,,46,mortal,,,,,,187.121,188.521,1,0,0.881,,0,101,101,45,1,two_way_cognate,1,REAL,FALSA
,,,,,,,,,665af528082e8340b28b6c63,001,2024-06-30_10h28.52.133,empathy_intonation_perc,2024.1.4,Linux x86_64,58.82352941,,,,,,,,,,,,,,132,nocó,,,,,,188.521,189.622,1,0,0.582,,0,102,102,131,1,pseudoword,0,REAL,FALSA
,,,,,,,,,665af528082e8340b28b6c63,001,2024-06-30_10h28.52.133,empathy_intonation_perc,2024.1.4,Linux x86_64,58.82352941,,,,,,,,,,,,,,10,drama,,,,,,189.622,190.706,1,0,0.547,,0,103,103,9,1,three_way_cognate,1,REAL,FALSA
,,,,,,,,,665af528082e8340b28b6c63,001,2024-06-30_10h28.52.133,empathy_intonation_perc,2024.1.4,Linux x86_64,58.82352941,,,,,,,,,,,,,,147,alla,,,,,,190.707,191.773,1,0,0.534,,0,104,104,146,1,pseudoword,0,REAL,FALSA
,,,,,,,,,665af528082e8340b28b6c63,001,2024-06-30_10h28.52.133,empathy_intonation_perc,2024.1.4,Linux x86_64,58.82352941,,,,,,,,,,,,,,16,chat,,,,,,191.774,193.174,1,0,0.868,,0,105,105,15,1,three_way_cognate,1,REAL,FALSA
,,,,,,,,,665af528082e8340b28b6c63,001,2024-06-30_10h28.52.133,empathy_intonation_perc,2024.1.4,Linux x86_64,58.82352941,,,,,,,,,,,,,,170,diabo,,,,,,193.174,194.424,1,0,0.72,,0,106,106,169,1,pseudoword,0,REAL,FALSA
,,,,,,,,,665af528082e8340b28b6c63,001,2024-06-30_10h28.52.133,empathy_intonation_perc,2024.1.4,Linux x86_64,58.82352941,,,,,,,,,,,,,,106,diebro,,,,,,194.425,195.609,1,0,0.664,,0,107,107,105,1,pseudoword,0,REAL,FALSA
,,,,,,,,,665af528082e8340b28b6c63,001,2024-06-30_10h28.52.133,empathy_intonation_perc,2024.1.4,Linux x86_64,58.82352941,,,,,,,,,,,,,,179,suelet,,,,,,195.613,196.942,0,1,0.798,,0,108,108,178,1,pseudoword,0,REAL,FALSA
,,,,,,,,,665af528082e8340b28b6c63,001,2024-06-30_10h28.52.133,empathy_intonation_perc,2024.1.4,Linux x86_64,58.82352941,,,,,,,,,,,,,,34,actor,,,,,,196.943,198.059,1,0,0.605,,0,109,109,33,1,two_way_cognate,1,REAL,FALSA
,,,,,,,,,665af528082e8340b28b6c63,001,2024-06-30_10h28.52.133,empathy_intonation_perc,2024.1.4,Linux x86_64,58.82352941,,,,,,,,,,,,,,163,olzan,,,,,,198.06,199.377,0,1,0.792,,0,110,110,162,1,pseudoword,0,REAL,FALSA
,,,,,,,,,665af528082e8340b28b6c63,001,2024-06-30_10h28.52.133,empathy_intonation_perc,2024.1.4,Linux x86_64,58.82352941,,,,,,,,,,,,,,27,piano,,,,,,199.378,201.477,0,1,1.564,,0,111,111,26,1,two_way_cognate,1,REAL,FALSA
,,,,,,,,,665af528082e8340b28b6c63,001,2024-06-30_10h28.52.133,empathy_intonation_perc,2024.1.4,Linux x86_64,58.82352941,,,,,,,,,,,,,,156,ozoso,,,,,,201.479,202.91,0,1,0.915,,0,112,112,155,1,pseudoword,0,REAL,FALSA
,,,,,,,,,665af528082e8340b28b6c63,001,2024-06-30_10h28.52.133,empathy_intonation_perc,2024.1.4,Linux x86_64,58.82352941,,,,,,,,,,,,,,139,sasos,,,,,,202.911,204.678,1,0,1.257,,0,113,113,138,1,pseudoword,0,REAL,FALSA
,,,,,,,,,665af528082e8340b28b6c63,001,2024-06-30_10h28.52.133,empathy_intonation_perc,2024.1.4,Linux x86_64,58.82352941,,,,,,,,,,,,,,39,casual,,,,,,204.679,207.845,1,0,2.64,,0,114,114,38,1,two_way_cognate,1,REAL,FALSA
,,,,,,,,,665af528082e8340b28b6c63,001,2024-06-30_10h28.52.133,empathy_intonation_perc,2024.1.4,Linux x86_64,58.82352941,,,,,,,,,,,,,,103,vueras,,,,,,207.847,208.93,1,0,0.55,,0,115,115,102,1,pseudoword,0,REAL,FALSA
,,,,,,,,,665af528082e8340b28b6c63,001,2024-06-30_10h28.52.133,empathy_intonation_perc,2024.1.4,Linux x86_64,58.82352941,,,,,,,,,,,,,,110,densó,,,,,,208.931,210.813,1,0,1.349,,0,116,116,109,1,pseudoword,0,REAL,FALSA
,,,,,,,,,665af528082e8340b28b6c63,001,2024-06-30_10h28.52.133,empathy_intonation_perc,2024.1.4,Linux x86_64,58.82352941,,,,,,,,,,,,,,54,tapón,,,,,,210.814,211.831,1,0,0.491,,0,117,117,53,1,non_cognate,1,REAL,FALSA
,,,,,,,,,665af528082e8340b28b6c63,001,2024-06-30_10h28.52.133,empathy_intonation_perc,2024.1.4,Linux x86_64,58.82352941,,,,,,,,,,,,,,48,pelvis,,,,,,211.832,213.465,1,0,1.108,,0,118,118,47,1,two_way_cognate,1,REAL,FALSA
,,,,,,,,,665af528082e8340b28b6c63,001,2024-06-30_10h28.52.133,empathy_intonation_perc,2024.1.4,Linux x86_64,58.82352941,,,,,,,,,,,,,,104,estulo,,,,,,213.466,214.765,1,0,0.785,,0,119,119,103,1,pseudoword,0,REAL,FALSA
,,,,,,,,,665af528082e8340b28b6c63,001,2024-06-30_10h28.52.133,empathy_intonation_perc,2024.1.4,Linux x86_64,58.82352941,,,,,,,,,,,,,,143,hurcos,,,,,,214.765,216.132,0,1,0.854,,0,120,120,142,1,pseudoword,0,REAL,FALSA
,,,,,,,,,665af528082e8340b28b6c63,001,2024-06-30_10h28.52.133,empathy_intonation_perc,2024.1.4,Linux x86_64,58.82352941,,,,,,,,,,,,,,35,aurora,,,,,,216.132,217.466,1,0,0.819,,0,121,121,34,1,two_way_cognate,1,REAL,FALSA
,,,,,,,,,665af528082e8340b28b6c63,001,2024-06-30_10h28.52.133,empathy_intonation_perc,2024.1.4,Linux x86_64,58.82352941,,,,,,,,,,,,,,172,dogue,,,,,,217.466,219.05,1,0,1.054,,0,122,122,171,1,pseudoword,0,REAL,FALSA
,,,,,,,,,665af528082e8340b28b6c63,001,2024-06-30_10h28.52.133,empathy_intonation_perc,2024.1.4,Linux x86_64,58.82352941,,,,,,,,,,,,,,37,torso,,,,,,219.05,220.166,1,0,0.607,,0,123,123,36,1,two_way_cognate,1,REAL,FALSA
,,,,,,,,,665af528082e8340b28b6c63,001,2024-06-30_10h28.52.133,empathy_intonation_perc,2024.1.4,Linux x86_64,58.82352941,,,,,,,,,,,,,,81,sacar,,,,,,220.167,221.467,0,1,0.772,,0,124,124,80,1,non_cognate,1,REAL,FALSA
,,,,,,,,,665af528082e8340b28b6c63,001,2024-06-30_10h28.52.133,empathy_intonation_perc,2024.1.4,Linux x86_64,58.82352941,,,,,,,,,,,,,,91,equipo,,,,,,221.467,223.468,0,1,1.472,,0,125,125,90,1,non_cognate,1,REAL,FALSA
,,,,,,,,,665af528082e8340b28b6c63,001,2024-06-30_10h28.52.133,empathy_intonation_perc,2024.1.4,Linux x86_64,58.82352941,,,,,,,,,,,,,,184,huenos,,,,,,223.469,225.252,1,0,1.251,,0,126,126,183,1,pseudoword,0,REAL,FALSA
,,,,,,,,,665af528082e8340b28b6c63,001,2024-06-30_10h28.52.133,empathy_intonation_perc,2024.1.4,Linux x86_64,58.82352941,,,,,,,,,,,,,,188,amplir,,,,,,225.252,226.468,0,1,0.689,,0,127,127,187,1,pseudoword,0,REAL,FALSA
,,,,,,,,,665af528082e8340b28b6c63,001,2024-06-30_10h28.52.133,empathy_intonation_perc,2024.1.4,Linux x86_64,58.82352941,,,,,,,,,,,,,,33,collar,,,,,,226.468,227.769,0,1,0.781,,0,128,128,32,1,two_way_cognate,1,REAL,FALSA
,,,,,,,,,665af528082e8340b28b6c63,001,2024-06-30_10h28.52.133,empathy_intonation_perc,2024.1.4,Linux x86_64,58.82352941,,,,,,,,,,,,,,166,anfia,,,,,,227.77,229.037,0,1,0.737,,0,129,129,165,1,pseudoword,0,REAL,FALSA
,,,,,,,,,665af528082e8340b28b6c63,001,2024-06-30_10h28.52.133,empathy_intonation_perc,2024.1.4,Linux x86_64,58.82352941,,,,,,,,,,,,,,155,kugis,,,,,,229.04,230.254,0,1,0.678,,0,130,130,154,1,pseudoword,0,REAL,FALSA
,,,,,,,,,665af528082e8340b28b6c63,001,2024-06-30_10h28.52.133,empathy_intonation_perc,2024.1.4,Linux x86_64,58.82352941,,,,,,,,,,,,,,182,desaro,,,,,,230.254,232.036,0,1,1.272,,0,131,131,181,1,pseudoword,0,REAL,FALSA
,,,,,,,,,665af528082e8340b28b6c63,001,2024-06-30_10h28.52.133,empathy_intonation_perc,2024.1.4,Linux x86_64,58.82352941,,,,,,,,,,,,,,19,mafia,,,,,,232.037,233.17,1,0,0.605,,0,132,132,18,1,three_way_cognate,1,REAL,FALSA
,,,,,,,,,665af528082e8340b28b6c63,001,2024-06-30_10h28.52.133,empathy_intonation_perc,2024.1.4,Linux x86_64,58.82352941,,,,,,,,,,,,,,138,tator,,,,,,233.171,234.738,0,1,1.03,,0,133,133,137,1,pseudoword,0,REAL,FALSA
,,,,,,,,,665af528082e8340b28b6c63,001,2024-06-30_10h28.52.133,empathy_intonation_perc,2024.1.4,Linux x86_64,58.82352941,,,,,,,,,,,,,,154,harvé,,,,,,234.738,235.887,1,0,0.637,,0,134,134,153,1,pseudoword,0,REAL,FALSA
,,,,,,,,,665af528082e8340b28b6c63,001,2024-06-30_10h28.52.133,empathy_intonation_perc,2024.1.4,Linux x86_64,58.82352941,,,,,,,,,,,,,,122,boñaz,,,,,,235.887,237.072,1,0,0.664,,0,135,135,121,1,pseudoword,0,REAL,FALSA
,,,,,,,,,665af528082e8340b28b6c63,001,2024-06-30_10h28.52.133,empathy_intonation_perc,2024.1.4,Linux x86_64,58.82352941,,,,,,,,,,,,,,121,barbs,,,,,,237.072,238.588,0,1,0.98,,0,136,136,120,1,pseudoword,0,REAL,FALSA
,,,,,,,,,665af528082e8340b28b6c63,001,2024-06-30_10h28.52.133,empathy_intonation_perc,2024.1.4,Linux x86_64,58.82352941,,,,,,,,,,,,,,88,percha,,,,,,238.588,239.673,1,0,0.563,,0,137,137,87,1,non_cognate,1,REAL,FALSA
,,,,,,,,,665af528082e8340b28b6c63,001,2024-06-30_10h28.52.133,empathy_intonation_perc,2024.1.4,Linux x86_64,58.82352941,,,,,,,,,,,,,,64,rizado,,,,,,239.673,240.867,0,1,0.66,,0,138,138,63,1,non_cognate,1,REAL,FALSA
,,,,,,,,,665af528082e8340b28b6c63,001,2024-06-30_10h28.52.133,empathy_intonation_perc,2024.1.4,Linux x86_64,58.82352941,,,,,,,,,,,,,,99,bugor,,,,,,240.868,242.014,0,1,0.611,,0,139,139,98,1,pseudoword,0,REAL,FALSA
,,,,,,,,,665af528082e8340b28b6c63,001,2024-06-30_10h28.52.133,empathy_intonation_perc,2024.1.4,Linux x86_64,58.82352941,,,,,,,,,,,,,,85,enorme,,,,,,242.014,243.126,0,1,0.586,,0,140,140,84,1,non_cognate,1,REAL,FALSA
,,,,,,,,,665af528082e8340b28b6c63,001,2024-06-30_10h28.52.133,empathy_intonation_perc,2024.1.4,Linux x86_64,58.82352941,,,,,,,,,,,,,,61,aduana,,,,,,243.126,244.422,1,0,0.76,,0,141,141,60,1,non_cognate,1,REAL,FALSA
,,,,,,,,,665af528082e8340b28b6c63,001,2024-06-30_10h28.52.133,empathy_intonation_perc,2024.1.4,Linux x86_64,58.82352941,,,,,,,,,,,,,,1,moral,,,,,,244.422,245.567,1,0,0.618,,0,142,142,0,1,three_way_cognate,1,REAL,FALSA
,,,,,,,,,665af528082e8340b28b6c63,001,2024-06-30_10h28.52.133,empathy_intonation_perc,2024.1.4,Linux x86_64,58.82352941,,,,,,,,,,,,,,67,llamar,,,,,,245.568,246.664,0,1,0.571,,0,143,143,66,1,non_cognate,1,REAL,FALSA
,,,,,,,,,665af528082e8340b28b6c63,001,2024-06-30_10h28.52.133,empathy_intonation_perc,2024.1.4,Linux x86_64,58.82352941,,,,,,,,,,,,,,66,aleta,,,,,,246.665,247.959,1,0,0.772,,0,144,144,65,1,non_cognate,1,REAL,FALSA
,,,,,,,,,665af528082e8340b28b6c63,001,2024-06-30_10h28.52.133,empathy_intonation_perc,2024.1.4,Linux x86_64,58.82352941,,,,,,,,,,,,,,109,laras,,,,,,247.96,249.688,1,0,1.193,,0,145,145,108,1,pseudoword,0,REAL,FALSA
,,,,,,,,,665af528082e8340b28b6c63,001,2024-06-30_10h28.52.133,empathy_intonation_perc,2024.1.4,Linux x86_64,58.82352941,,,,,,,,,,,,,,183,edioso,,,,,,249.689,251.018,0,1,0.796,,0,146,146,182,1,pseudoword,0,REAL,FALSA
,,,,,,,,,665af528082e8340b28b6c63,001,2024-06-30_10h28.52.133,empathy_intonation_perc,2024.1.4,Linux x86_64,58.82352941,,,,,,,,,,,,,,159,trcia,,,,,,251.019,252.364,0,1,0.817,,0,147,147,158,1,pseudoword,0,REAL,FALSA
,,,,,,,,,665af528082e8340b28b6c63,001,2024-06-30_10h28.52.133,empathy_intonation_perc,2024.1.4,Linux x86_64,58.82352941,,,,,,,,,,,,,,32,animal,,,,,,252.364,254.027,0,1,1.128,,0,148,148,31,1,two_way_cognate,1,REAL,FALSA
,,,,,,,,,665af528082e8340b28b6c63,001,2024-06-30_10h28.52.133,empathy_intonation_perc,2024.1.4,Linux x86_64,58.82352941,,,,,,,,,,,,,,187,nomata,,,,,,254.028,255.539,1,0,0.979,,0,149,149,186,1,pseudoword,0,REAL,FALSA
,,,,,,,,,665af528082e8340b28b6c63,001,2024-06-30_10h28.52.133,empathy_intonation_perc,2024.1.4,Linux x86_64,58.82352941,,,,,,,,,,,,,,75,patada,,,,,,255.54,257.018,0,1,0.956,,0,150,150,74,1,non_cognate,1,REAL,FALSA
,,,,,,,,,665af528082e8340b28b6c63,001,2024-06-30_10h28.52.133,empathy_intonation_perc,2024.1.4,Linux x86_64,58.82352941,,,,,,,,,,,,,,24,retina,,,,,,257.019,258.715,0,1,1.162,,0,151,151,23,1,three_way_cognate,1,REAL,FALSA
,,,,,,,,,665af528082e8340b28b6c63,001,2024-06-30_10h28.52.133,empathy_intonation_perc,2024.1.4,Linux x86_64,58.82352941,,,,,,,,,,,,,,86,cuenco,,,,,,258.716,260.012,1,0,0.763,,0,152,152,85,1,non_cognate,1,REAL,FALSA
,,,,,,,,,665af528082e8340b28b6c63,001,2024-06-30_10h28.52.133,empathy_intonation_perc,2024.1.4,Linux x86_64,58.82352941,,,,,,,,,,,,,,130,dubo,,,,,,260.013,261.193,0,1,0.656,,0,153,153,129,1,pseudoword,0,REAL,FALSA
,,,,,,,,,665af528082e8340b28b6c63,001,2024-06-30_10h28.52.133,empathy_intonation_perc,2024.1.4,Linux x86_64,58.82352941,,,,,,,,,,,,,,17,clan,,,,,,261.194,262.541,1,0,0.813,,0,154,154,16,1,three_way_cognate,1,REAL,FALSA
,,,,,,,,,665af528082e8340b28b6c63,001,2024-06-30_10h28.52.133,empathy_intonation_perc,2024.1.4,Linux x86_64,58.82352941,,,,,,,,,,,,,,47,color,,,,,,262.544,263.637,0,1,0.568,,0,155,155,46,1,two_way_cognate,1,REAL,FALSA
,,,,,,,,,665af528082e8340b28b6c63,001,2024-06-30_10h28.52.133,empathy_intonation_perc,2024.1.4,Linux x86_64,58.82352941,,,,,,,,,,,,,,123,arane,,,,,,263.638,265.101,0,1,0.928,,0,156,156,122,1,pseudoword,0,REAL,FALSA
,,,,,,,,,665af528082e8340b28b6c63,001,2024-06-30_10h28.52.133,empathy_intonation_perc,2024.1.4,Linux x86_64,58.82352941,,,,,,,,,,,,,,100,épinas,,,,,,265.102,266.399,1,0,0.761,,0,157,157,99,1,pseudoword,0,REAL,FALSA
,,,,,,,,,665af528082e8340b28b6c63,001,2024-06-30_10h28.52.133,empathy_intonation_perc,2024.1.4,Linux x86_64,58.82352941,,,,,,,,,,,,,,11,golf,,,,,,266.401,268.612,0,1,1.681,,0,158,158,10,1,three_way_cognate,1,REAL,FALSA
,,,,,,,,,665af528082e8340b28b6c63,001,2024-06-30_10h28.52.133,empathy_intonation_perc,2024.1.4,Linux x86_64,58.82352941,,,,,,,,,,,,,,49,teñir,,,,,,268.614,269.776,1,0,0.638,,0,159,159,48,1,non_cognate,1,REAL,FALSA
,,,,,,,,,665af528082e8340b28b6c63,001,2024-06-30_10h28.52.133,empathy_intonation_perc,2024.1.4,Linux x86_64,58.82352941,,,,,,,,,,,,,,149,emén,,,,,,269.777,271.59,0,1,1.286,,0,160,160,148,1,pseudoword,0,REAL,FALSA
,,,,,,,,,665af528082e8340b28b6c63,001,2024-06-30_10h28.52.133,empathy_intonation_perc,2024.1.4,Linux x86_64,58.82352941,,,,,,,,,,,,,,94,forro,,,,,,271.591,272.754,0,1,0.631,,0,161,161,93,1,non_cognate,1,REAL,FALSA
,,,,,,,,,665af528082e8340b28b6c63,001,2024-06-30_10h28.52.133,empathy_intonation_perc,2024.1.4,Linux x86_64,58.82352941,,,,,,,,,,,,,,146,gió,,,,,,272.756,273.92,0,1,0.63,,0,162,162,145,1,pseudoword,0,REAL,FALSA
,,,,,,,,,665af528082e8340b28b6c63,001,2024-06-30_10h28.52.133,empathy_intonation_perc,2024.1.4,Linux x86_64,58.82352941,,,,,,,,,,,,,,111,monue,,,,,,273.921,275.502,0,1,1.045,,0,163,163,110,1,pseudoword,0,REAL,FALSA
,,,,,,,,,665af528082e8340b28b6c63,001,2024-06-30_10h28.52.133,empathy_intonation_perc,2024.1.4,Linux x86_64,58.82352941,,,,,,,,,,,,,,60,siglo,,,,,,275.503,277.131,1,0,1.095,,0,164,164,59,1,non_cognate,1,REAL,FALSA
,,,,,,,,,665af528082e8340b28b6c63,001,2024-06-30_10h28.52.133,empathy_intonation_perc,2024.1.4,Linux x86_64,58.82352941,,,,,,,,,,,,,,22,mango,,,,,,277.134,278.929,1,0,1.259,,0,165,165,21,1,three_way_cognate,1,REAL,FALSA
,,,,,,,,,665af528082e8340b28b6c63,001,2024-06-30_10h28.52.133,empathy_intonation_perc,2024.1.4,Linux x86_64,58.82352941,,,,,,,,,,,,,,151,prías,,,,,,278.93,280.244,1,0,0.789,,0,166,166,150,1,pseudoword,0,REAL,FALSA
,,,,,,,,,665af528082e8340b28b6c63,001,2024-06-30_10h28.52.133,empathy_intonation_perc,2024.1.4,Linux x86_64,58.82352941,,,,,,,,,,,,,,157,seled,,,,,,280.245,281.51,0,1,0.732,,0,167,167,156,1,pseudoword,0,REAL,FALSA
,,,,,,,,,665af528082e8340b28b6c63,001,2024-06-30_10h28.52.133,empathy_intonation_perc,2024.1.4,Linux x86_64,58.82352941,,,,,,,,,,,,,,126,tobre,,,,,,281.511,283.308,1,0,1.272,,0,168,168,125,1,pseudoword,0,REAL,FALSA
,,,,,,,,,665af528082e8340b28b6c63,001,2024-06-30_10h28.52.133,empathy_intonation_perc,2024.1.4,Linux x86_64,58.82352941,,,,,,,,,,,,,,101,losco,,,,,,283.309,285.622,1,0,1.785,,0,169,169,100,1,pseudoword,0,REAL,FALSA
,,,,,,,,,665af528082e8340b28b6c63,001,2024-06-30_10h28.52.133,empathy_intonation_perc,2024.1.4,Linux x86_64,58.82352941,,,,,,,,,,,,,,124,lobe,,,,,,285.622,287.202,1,0,1.051,,0,170,170,123,1,pseudoword,0,REAL,FALSA
,,,,,,,,,665af528082e8340b28b6c63,001,2024-06-30_10h28.52.133,empathy_intonation_perc,2024.1.4,Linux x86_64,58.82352941,,,,,,,,,,,,,,191,frasis,,,,,,287.203,288.783,0,1,1.049,,0,171,171,190,1,pseudoword,0,REAL,FALSA
,,,,,,,,,665af528082e8340b28b6c63,001,2024-06-30_10h28.52.133,empathy_intonation_perc,2024.1.4,Linux x86_64,58.82352941,,,,,,,,,,,,,,189,medium,,,,,,288.784,290.482,0,1,1.163,,0,172,172,188,1,pseudoword,0,REAL,FALSA
,,,,,,,,,665af528082e8340b28b6c63,001,2024-06-30_10h28.52.133,empathy_intonation_perc,2024.1.4,Linux x86_64,58.82352941,,,,,,,,,,,,,,116,grigir,,,,,,290.482,292.214,0,1,1.221,,0,173,173,115,1,pseudoword,0,REAL,FALSA
,,,,,,,,,665af528082e8340b28b6c63,001,2024-06-30_10h28.52.133,empathy_intonation_perc,2024.1.4,Linux x86_64,58.82352941,,,,,,,,,,,,,,135,panté,,,,,,292.215,293.762,1,0,1.017,,0,174,174,134,1,pseudoword,0,REAL,FALSA
,,,,,,,,,665af528082e8340b28b6c63,001,2024-06-30_10h28.52.133,empathy_intonation_perc,2024.1.4,Linux x86_64,58.82352941,,,,,,,,,,,,,,12,dogma,,,,,,293.763,295.761,0,1,1.461,,0,175,175,11,1,three_way_cognate,1,REAL,FALSA
,,,,,,,,,665af528082e8340b28b6c63,001,2024-06-30_10h28.52.133,empathy_intonation_perc,2024.1.4,Linux x86_64,58.82352941,,,,,,,,,,,,,,82,brillo,,,,,,295.765,297.211,0,1,0.912,,0,176,176,81,1,non_cognate,1,REAL,FALSA
,,,,,,,,,665af528082e8340b28b6c63,001,2024-06-30_10h28.52.133,empathy_intonation_perc,2024.1.4,Linux x86_64,58.82352941,,,,,,,,,,,,,,177,entodo,,,,,,297.212,299.957,0,1,2.213,,0,177,177,176,1,pseudoword,0,REAL,FALSA
,,,,,,,,,665af528082e8340b28b6c63,001,2024-06-30_10h28.52.133,empathy_intonation_perc,2024.1.4,Linux x86_64,58.82352941,,,,,,,,,,,,,,153,golla,,,,,,299.958,301.29,0,1,0.807,,0,178,178,152,1,pseudoword,0,REAL,FALSA
,,,,,,,,,665af528082e8340b28b6c63,001,2024-06-30_10h28.52.133,empathy_intonation_perc,2024.1.4,Linux x86_64,58.82352941,,,,,,,,,,,,,,26,enigma,,,,,,301.29,303.004,1,0,1.179,,0,179,179,25,1,two_way_cognate,1,REAL,FALSA
,,,,,,,,,665af528082e8340b28b6c63,001,2024-06-30_10h28.52.133,empathy_intonation_perc,2024.1.4,Linux x86_64,58.82352941,,,,,,,,,,,,,,15,test,,,,,,303.005,304.703,0,1,1.17,,0,180,180,14,1,three_way_cognate,1,REAL,FALSA
,,,,,,,,,665af528082e8340b28b6c63,001,2024-06-30_10h28.52.133,empathy_intonation_perc,2024.1.4,Linux x86_64,58.82352941,,,,,,,,,,,,,,175,tradía,,,,,,304.704,307.136,1,0,1.896,,0,181,181,174,1,pseudoword,0,REAL,FALSA
,,,,,,,,,665af528082e8340b28b6c63,001,2024-06-30_10h28.52.133,empathy_intonation_perc,2024.1.4,Linux x86_64,58.82352941,,,,,,,,,,,,,,96,caro,,,,,,307.137,308.251,0,1,0.58,,0,182,182,95,1,non_cognate,1,REAL,FALSA
,,,,,,,,,665af528082e8340b28b6c63,001,2024-06-30_10h28.52.133,empathy_intonation_perc,2024.1.4,Linux x86_64,58.82352941,,,,,,,,,,,,,,140,chorde,,,,,,308.252,309.6,0,1,0.815,,0,183,183,139,1,pseudoword,0,REAL,FALSA
,,,,,,,,,665af528082e8340b28b6c63,001,2024-06-30_10h28.52.133,empathy_intonation_perc,2024.1.4,Linux x86_64,58.82352941,,,,,,,,,,,,,,92,flecha,,,,,,309.601,310.667,0,1,0.531,,0,184,184,91,1,non_cognate,1,REAL,FALSA
,,,,,,,,,665af528082e8340b28b6c63,001,2024-06-30_10h28.52.133,empathy_intonation_perc,2024.1.4,Linux x86_64,58.82352941,,,,,,,,,,,,,,115,lidena,,,,,,310.668,311.766,0,1,0.564,,0,185,185,114,1,pseudoword,0,REAL,FALSA
,,,,,,,,,665af528082e8340b28b6c63,001,2024-06-30_10h28.52.133,empathy_intonation_perc,2024.1.4,Linux x86_64,58.82352941,,,,,,,,,,,,,,97,nocita,,,,,,311.767,313.313,1,0,1.011,,0,186,186,96,1,pseudoword,0,REAL,FALSA
,,,,,,,,,665af528082e8340b28b6c63,001,2024-06-30_10h28.52.133,empathy_intonation_perc,2024.1.4,Linux x86_64,58.82352941,,,,,,,,,,,,,,58,colcha,,,,,,313.314,314.58,1,0,0.747,,0,187,187,57,1,non_cognate,1,REAL,FALSA
,,,,,,,,,665af528082e8340b28b6c63,001,2024-06-30_10h28.52.133,empathy_intonation_perc,2024.1.4,Linux x86_64,58.82352941,,,,,,,,,,,,,,28,ardor,,,,,,314.581,315.796,1,0,0.68,,0,188,188,27,1,two_way_cognate,1,REAL,FALSA
,,,,,,,,,665af528082e8340b28b6c63,001,2024-06-30_10h28.52.133,empathy_intonation_perc,2024.1.4,Linux x86_64,58.82352941,,,,,,,,,,,,,,152,prave,,,,,,315.796,317.162,1,0,0.828,,0,189,189,151,1,pseudoword,0,REAL,FALSA
,,,,,,,,,665af528082e8340b28b6c63,001,2024-06-30_10h28.52.133,empathy_intonation_perc,2024.1.4,Linux x86_64,58.82352941,,,,,,,,,,,,,,173,mibro,,,,,,317.163,318.277,1,0,0.585,,0,190,190,172,1,pseudoword,0,REAL,FALSA
,,,,,,,,,665af528082e8340b28b6c63,001,2024-06-30_10h28.52.133,empathy_intonation_perc,2024.1.4,Linux x86_64,58.82352941,,,,,,,,,,,,,,98,martir,,,,,,318.278,320.527,0,1,1.721,,0,191,191,97,1,pseudoword,0,REAL,FALSA
