lextale_instructions.started,lextale_instructions.stopped,lextale_instructions_loop.thisRepN,lextale_instructions_loop.thisTrialN,lextale_instructions_loop.thisN,lextale_instructions_loop.thisIndex,lextale_instructions_loop.ran,instructions_text,continue_text,participant,session,date,expName,psychopyVersion,OS,frameRate,lextale_practice.started,lextale_practice.stopped,key_resp_lextale_practice.keys,key_resp_lextale_practice.corr,key_resp_lextale_practice.rt,key_resp_lextale_practice.duration,lextale_practice_feedback.started,lextale_practice_feedback.stopped,lextale_practice_trials.thisRepN,lextale_practice_trials.thisTrialN,lextale_practice_trials.thisN,lextale_practice_trials.thisIndex,lextale_practice_trials.ran,stim,word,correct_response,prac_button_real,prac_button_false,lextale_check.started,lextale_check.stopped,lextale_trial.started,lextale_trial.stopped,key_resp_lextale_trial.keys,key_resp_lextale_trial.corr,key_resp_lextale_trial.rt,key_resp_lextale_trial.duration,lextail_trials.thisRepN,lextail_trials.thisTrialN,lextail_trials.thisN,lextail_trials.thisIndex,lextail_trials.ran,type,correct_reponse,button_real,button_false
0.0072,12.214,0,0,0,0,1,"Este es un test de vocabulario en español. 
  
  A continuación vas a ver 90 secuencias de letras que parecen 'españolas'.
  
  Solo algunas de ellas son palabras de verdad.",(presiona la barra espaciadora para continuar),66706f8563d2ad360ad3de67,001,2024-06-30_07h10.39.444,empathy_intonation_perc,2024.1.4,Win32,7.479431563,,,,,,,,,,,,,,,,,,,,,,,,,,,,,,,,,,,
12.2148,31.2443,0,1,1,1,1,"Por favor, señala las palabras que tú conoces (aquellas que estás convencido que son palabras españolas, incluso aunque no seas capaz de dar el significado preciso).",(presiona la barra espaciadora para continuar),66706f8563d2ad360ad3de67,001,2024-06-30_07h10.39.444,empathy_intonation_perc,2024.1.4,Win32,7.479431563,,,,,,,,,,,,,,,,,,,,,,,,,,,,,,,,,,,
31.253,35.5998,0,2,2,2,1,Pero cuidado: los errores se penalizan. Por eso no tiene sentido tratar de incrementar tu puntuación marcando como reales palabras que nunca has visto.,(presiona la barra espaciadora para continuar),66706f8563d2ad360ad3de67,001,2024-06-30_07h10.39.444,empathy_intonation_perc,2024.1.4,Win32,7.479431563,,,,,,,,,,,,,,,,,,,,,,,,,,,,,,,,,,,
35.6001,38.5785,0,3,3,3,1,"Presiona la tecla 1 si piensas que es una palabra real y la tecla 
  0 si piensas que es una palabra falsa. 
  
  Vamos a practicar un poco...",(presiona la barra espaciadora para continuar),66706f8563d2ad360ad3de67,001,2024-06-30_07h10.39.444,empathy_intonation_perc,2024.1.4,Win32,7.479431563,,,,,,,,,,,,,,,,,,,,,,,,,,,,,,,,,,,
,,,,,,,,,66706f8563d2ad360ad3de67,001,2024-06-30_07h10.39.444,empathy_intonation_perc,2024.1.4,Win32,7.479431563,38.5889,51.0068,1,0,11.7485,,51.0155,51.9349,0,0,0,0,1,0,depiste,0,REAL,FALSA,,,,,,,,,,,,,,,,,
,,,,,,,,,66706f8563d2ad360ad3de67,001,2024-06-30_07h10.39.444,empathy_intonation_perc,2024.1.4,Win32,7.479431563,51.9353,60.8441,1,1,8.2436,,60.8442,61.7834,0,1,1,1,1,0,sí,1,REAL,FALSA,,,,,,,,,,,,,,,,,
,,,,,,,,,66706f8563d2ad360ad3de67,001,2024-06-30_07h10.39.444,empathy_intonation_perc,2024.1.4,Win32,7.479431563,61.7921,129.3474,0,1,66.8936,,129.3474,130.2674,0,2,2,2,1,0,coné,0,REAL,FALSA,,,,,,,,,,,,,,,,,
,,,,,,,,,66706f8563d2ad360ad3de67,001,2024-06-30_07h10.39.444,empathy_intonation_perc,2024.1.4,Win32,7.479431563,130.2762,140.4773,0,1,9.5302,,140.4773,141.405,0,3,3,3,1,0,calpar,0,REAL,FALSA,,,,,,,,,,,,,,,,,
,,,,,,,,,66706f8563d2ad360ad3de67,001,2024-06-30_07h10.39.444,empathy_intonation_perc,2024.1.4,Win32,7.479431563,141.4137,152.0128,0,1,9.9411,,152.0128,152.9375,0,4,4,4,1,0,joten,0,REAL,FALSA,,,,,,,,,,,,,,,,,
,,,,,,,,,66706f8563d2ad360ad3de67,001,2024-06-30_07h10.39.444,empathy_intonation_perc,2024.1.4,Win32,7.479431563,152.9461,167.2841,1,1,13.6776,,167.2841,168.2027,0,5,5,5,1,0,sacapuntas,1,REAL,FALSA,,,,,,,,,,,,,,,,,
,,,,,,,,,66706f8563d2ad360ad3de67,001,2024-06-30_07h10.39.444,empathy_intonation_perc,2024.1.4,Win32,7.479431563,168.2113,177.4289,0,1,8.5612,,177.429,178.3468,0,6,6,6,1,0,priba,0,REAL,FALSA,,,,,,,,,,,,,,,,,
,,,,,,,,,66706f8563d2ad360ad3de67,001,2024-06-30_07h10.39.444,empathy_intonation_perc,2024.1.4,Win32,7.479431563,178.3557,189.527,0,1,10.5022,,189.5271,190.4451,0,7,7,7,1,0,pelasula,0,REAL,FALSA,,,,,,,,,,,,,,,,,
,,,,,,,,,66706f8563d2ad360ad3de67,001,2024-06-30_07h10.39.444,empathy_intonation_perc,2024.1.4,Win32,7.479431563,190.4563,197.6479,1,1,6.5332,,197.6479,198.5689,0,8,8,8,1,0,bien,1,REAL,FALSA,,,,,,,,,,,,,,,,,
,,,,,,,,,66706f8563d2ad360ad3de67,001,2024-06-30_07h10.39.444,empathy_intonation_perc,2024.1.4,Win32,7.479431563,198.5775,201.8258,1,1,2.5827,0.0003,201.8258,202.7532,0,9,9,9,1,0,casa,1,REAL,FALSA,,,,,,,,,,,,,,,,,
,,,,,,,,,66706f8563d2ad360ad3de67,001,2024-06-30_07h10.39.444,empathy_intonation_perc,2024.1.4,Win32,7.479431563,202.7633,213.9825,1,0,10.5562,,213.9826,214.9076,0,10,10,10,1,0,lejo,0,REAL,FALSA,,,,,,,,,,,,,,,,,
,,,,,,,,,66706f8563d2ad360ad3de67,001,2024-06-30_07h10.39.444,empathy_intonation_perc,2024.1.4,Win32,7.479431563,214.9162,227.4536,0,1,11.8752,,227.4536,228.3759,0,11,11,11,1,0,pretantas,0,REAL,FALSA,,,,,,,,,,,,,,,,,
,,,,,,,,,66706f8563d2ad360ad3de67,001,2024-06-30_07h10.39.444,empathy_intonation_perc,2024.1.4,Win32,7.479431563,,,,,,,,,,,,,,,,,,,228.3765,236.1813,,,,,,,,,,,,,,,
,,,,,,,,,66706f8563d2ad360ad3de67,001,2024-06-30_07h10.39.444,empathy_intonation_perc,2024.1.4,Win32,7.479431563,,,,,,,,,,,,,,31,civil,,,,,,236.2002,240.3399,1,0,3.4878,,0,0,0,30,1,two_way_cognate,1,REAL,FALSA
,,,,,,,,,66706f8563d2ad360ad3de67,001,2024-06-30_07h10.39.444,empathy_intonation_perc,2024.1.4,Win32,7.479431563,,,,,,,,,,,,,,50,sierra,,,,,,240.3482,243.8289,1,0,2.8252,0,0,1,1,49,1,non_cognate,1,REAL,FALSA
,,,,,,,,,66706f8563d2ad360ad3de67,001,2024-06-30_07h10.39.444,empathy_intonation_perc,2024.1.4,Win32,7.479431563,,,,,,,,,,,,,,102,coyo,,,,,,243.837,253.3708,1,0,8.8769,,0,2,2,101,1,pseudoword,0,REAL,FALSA
,,,,,,,,,66706f8563d2ad360ad3de67,001,2024-06-30_07h10.39.444,empathy_intonation_perc,2024.1.4,Win32,7.479431563,,,,,,,,,,,,,,175,tradía,,,,,,253.3796,262.2371,0,1,8.2072,,0,3,3,174,1,pseudoword,0,REAL,FALSA
,,,,,,,,,66706f8563d2ad360ad3de67,001,2024-06-30_07h10.39.444,empathy_intonation_perc,2024.1.4,Win32,7.479431563,,,,,,,,,,,,,,161,civas,,,,,,262.2455,270.5474,0,1,7.6526,,0,4,4,160,1,pseudoword,0,REAL,FALSA
,,,,,,,,,66706f8563d2ad360ad3de67,001,2024-06-30_07h10.39.444,empathy_intonation_perc,2024.1.4,Win32,7.479431563,,,,,,,,,,,,,,45,total,,,,,,270.5555,282.6341,1,0,11.4269,,0,5,5,44,1,two_way_cognate,1,REAL,FALSA
,,,,,,,,,66706f8563d2ad360ad3de67,001,2024-06-30_07h10.39.444,empathy_intonation_perc,2024.1.4,Win32,7.479431563,,,,,,,,,,,,,,186,rizate,,,,,,282.6444,292.56,0,1,9.2654,0.0002,0,6,6,185,1,pseudoword,0,REAL,FALSA
,,,,,,,,,66706f8563d2ad360ad3de67,001,2024-06-30_07h10.39.444,empathy_intonation_perc,2024.1.4,Win32,7.479431563,,,,,,,,,,,,,,125,ceme,,,,,,292.57,300.6012,0,1,7.3815,,0,7,7,124,1,pseudoword,0,REAL,FALSA
,,,,,,,,,66706f8563d2ad360ad3de67,001,2024-06-30_07h10.39.444,empathy_intonation_perc,2024.1.4,Win32,7.479431563,,,,,,,,,,,,,,153,golla,,,,,,300.6092,308.5085,0,1,7.2503,,0,8,8,152,1,pseudoword,0,REAL,FALSA
,,,,,,,,,66706f8563d2ad360ad3de67,001,2024-06-30_07h10.39.444,empathy_intonation_perc,2024.1.4,Win32,7.479431563,,,,,,,,,,,,,,122,boñaz,,,,,,308.5171,327.205,0,1,18.0385,,0,9,9,121,1,pseudoword,0,REAL,FALSA
,,,,,,,,,66706f8563d2ad360ad3de67,001,2024-06-30_07h10.39.444,empathy_intonation_perc,2024.1.4,Win32,7.479431563,,,,,,,,,,,,,,91,equipo,,,,,,327.2175,342.2247,1,0,14.3266,,0,10,10,90,1,non_cognate,1,REAL,FALSA
,,,,,,,,,66706f8563d2ad360ad3de67,001,2024-06-30_07h10.39.444,empathy_intonation_perc,2024.1.4,Win32,7.479431563,,,,,,,,,,,,,,185,aljizo,,,,,,342.2347,352.8498,0,1,9.963,,0,11,11,184,1,pseudoword,0,REAL,FALSA
,,,,,,,,,66706f8563d2ad360ad3de67,001,2024-06-30_07h10.39.444,empathy_intonation_perc,2024.1.4,Win32,7.479431563,,,,,,,,,,,,,,144,diroco,,,,,,352.8611,367.0272,0,1,13.4921,0.0002,0,12,12,143,1,pseudoword,0,REAL,FALSA
,,,,,,,,,66706f8563d2ad360ad3de67,001,2024-06-30_07h10.39.444,empathy_intonation_perc,2024.1.4,Win32,7.479431563,,,,,,,,,,,,,,74,ala,,,,,,367.0358,372.9085,1,0,5.2256,,0,13,13,73,1,non_cognate,1,REAL,FALSA
,,,,,,,,,66706f8563d2ad360ad3de67,001,2024-06-30_07h10.39.444,empathy_intonation_perc,2024.1.4,Win32,7.479431563,,,,,,,,,,,,,,34,actor,,,,,,372.9168,376.5325,1,0,2.9601,,0,14,14,33,1,two_way_cognate,1,REAL,FALSA
,,,,,,,,,66706f8563d2ad360ad3de67,001,2024-06-30_07h10.39.444,empathy_intonation_perc,2024.1.4,Win32,7.479431563,,,,,,,,,,,,,,67,llamar,,,,,,376.5428,379.6143,1,0,2.4194,,0,15,15,66,1,non_cognate,1,REAL,FALSA
,,,,,,,,,66706f8563d2ad360ad3de67,001,2024-06-30_07h10.39.444,empathy_intonation_perc,2024.1.4,Win32,7.479431563,,,,,,,,,,,,,,19,mafia,,,,,,379.6145,384.3473,1,0,4.079,,0,16,16,18,1,three_way_cognate,1,REAL,FALSA
,,,,,,,,,66706f8563d2ad360ad3de67,001,2024-06-30_07h10.39.444,empathy_intonation_perc,2024.1.4,Win32,7.479431563,,,,,,,,,,,,,,54,tapón,,,,,,384.3562,393.337,1,0,8.3264,,0,17,17,53,1,non_cognate,1,REAL,FALSA
,,,,,,,,,66706f8563d2ad360ad3de67,001,2024-06-30_07h10.39.444,empathy_intonation_perc,2024.1.4,Win32,7.479431563,,,,,,,,,,,,,,118,bará,,,,,,393.3455,411.308,1,0,17.3067,,0,18,18,117,1,pseudoword,0,REAL,FALSA
,,,,,,,,,66706f8563d2ad360ad3de67,001,2024-06-30_07h10.39.444,empathy_intonation_perc,2024.1.4,Win32,7.479431563,,,,,,,,,,,,,,16,chat,,,,,,411.3166,426.8544,0,1,14.8805,,0,19,19,15,1,three_way_cognate,1,REAL,FALSA
,,,,,,,,,66706f8563d2ad360ad3de67,001,2024-06-30_07h10.39.444,empathy_intonation_perc,2024.1.4,Win32,7.479431563,,,,,,,,,,,,,,61,aduana,,,,,,426.8644,449.6795,1,0,22.1612,,0,20,20,60,1,non_cognate,1,REAL,FALSA
,,,,,,,,,66706f8563d2ad360ad3de67,001,2024-06-30_07h10.39.444,empathy_intonation_perc,2024.1.4,Win32,7.479431563,,,,,,,,,,,,,,110,densó,,,,,,449.6879,466.5721,0,1,16.235,,0,21,21,109,1,pseudoword,0,REAL,FALSA
,,,,,,,,,66706f8563d2ad360ad3de67,001,2024-06-30_07h10.39.444,empathy_intonation_perc,2024.1.4,Win32,7.479431563,,,,,,,,,,,,,,117,morrá,,,,,,466.5812,474.8964,1,0,7.6634,,0,22,22,116,1,pseudoword,0,REAL,FALSA
,,,,,,,,,66706f8563d2ad360ad3de67,001,2024-06-30_07h10.39.444,empathy_intonation_perc,2024.1.4,Win32,7.479431563,,,,,,,,,,,,,,69,tiza,,,,,,474.9045,482.1157,1,0,6.55,,0,23,23,68,1,non_cognate,1,REAL,FALSA
,,,,,,,,,66706f8563d2ad360ad3de67,001,2024-06-30_07h10.39.444,empathy_intonation_perc,2024.1.4,Win32,7.479431563,,,,,,,,,,,,,,164,tecia,,,,,,482.1267,491.0864,0,1,8.306,,0,24,24,163,1,pseudoword,0,REAL,FALSA
,,,,,,,,,66706f8563d2ad360ad3de67,001,2024-06-30_07h10.39.444,empathy_intonation_perc,2024.1.4,Win32,7.479431563,,,,,,,,,,,,,,150,cricó,,,,,,491.0951,495.7786,1,0,4.0324,,0,25,25,149,1,pseudoword,0,REAL,FALSA
,,,,,,,,,66706f8563d2ad360ad3de67,001,2024-06-30_07h10.39.444,empathy_intonation_perc,2024.1.4,Win32,7.479431563,,,,,,,,,,,,,,174,pabea,,,,,,495.7867,498.5948,1,0,2.1548,,0,26,26,173,1,pseudoword,0,REAL,FALSA
,,,,,,,,,66706f8563d2ad360ad3de67,001,2024-06-30_07h10.39.444,empathy_intonation_perc,2024.1.4,Win32,7.479431563,,,,,,,,,,,,,,131,fuar,,,,,,498.5951,511.0991,0,1,11.8445,,0,27,27,130,1,pseudoword,0,REAL,FALSA
,,,,,,,,,66706f8563d2ad360ad3de67,001,2024-06-30_07h10.39.444,empathy_intonation_perc,2024.1.4,Win32,7.479431563,,,,,,,,,,,,,,8,kilo,,,,,,511.1076,514.8523,1,0,3.0934,,0,28,28,7,1,three_way_cognate,1,REAL,FALSA
,,,,,,,,,66706f8563d2ad360ad3de67,001,2024-06-30_07h10.39.444,empathy_intonation_perc,2024.1.4,Win32,7.479431563,,,,,,,,,,,,,,28,ardor,,,,,,514.8527,522.6099,1,0,7.1019,,0,29,29,27,1,two_way_cognate,1,REAL,FALSA
,,,,,,,,,66706f8563d2ad360ad3de67,001,2024-06-30_07h10.39.444,empathy_intonation_perc,2024.1.4,Win32,7.479431563,,,,,,,,,,,,,,100,épinas,,,,,,522.6183,534.4338,1,0,11.1652,,0,30,30,99,1,pseudoword,0,REAL,FALSA
,,,,,,,,,66706f8563d2ad360ad3de67,001,2024-06-30_07h10.39.444,empathy_intonation_perc,2024.1.4,Win32,7.479431563,,,,,,,,,,,,,,35,aurora,,,,,,534.4424,537.1287,1,0,2.0264,,0,31,31,34,1,two_way_cognate,1,REAL,FALSA
,,,,,,,,,66706f8563d2ad360ad3de67,001,2024-06-30_07h10.39.444,empathy_intonation_perc,2024.1.4,Win32,7.479431563,,,,,,,,,,,,,,63,hilo,,,,,,537.129,543.2906,1,0,5.5028,,0,32,32,62,1,non_cognate,1,REAL,FALSA
,,,,,,,,,66706f8563d2ad360ad3de67,001,2024-06-30_07h10.39.444,empathy_intonation_perc,2024.1.4,Win32,7.479431563,,,,,,,,,,,,,,49,teñir,,,,,,543.3013,555.9045,0,1,11.9424,,0,33,33,48,1,non_cognate,1,REAL,FALSA
,,,,,,,,,66706f8563d2ad360ad3de67,001,2024-06-30_07h10.39.444,empathy_intonation_perc,2024.1.4,Win32,7.479431563,,,,,,,,,,,,,,115,lidena,,,,,,555.9129,581.3733,0,1,24.8067,,0,34,34,114,1,pseudoword,0,REAL,FALSA
,,,,,,,,,66706f8563d2ad360ad3de67,001,2024-06-30_07h10.39.444,empathy_intonation_perc,2024.1.4,Win32,7.479431563,,,,,,,,,,,,,,4,flora,,,,,,581.3839,583.8933,1,0,1.8646,,0,35,35,3,1,three_way_cognate,1,REAL,FALSA
,,,,,,,,,66706f8563d2ad360ad3de67,001,2024-06-30_07h10.39.444,empathy_intonation_perc,2024.1.4,Win32,7.479431563,,,,,,,,,,,,,,184,huenos,,,,,,583.8936,586.5733,1,0,2.0226,,0,36,36,183,1,pseudoword,0,REAL,FALSA
,,,,,,,,,66706f8563d2ad360ad3de67,001,2024-06-30_07h10.39.444,empathy_intonation_perc,2024.1.4,Win32,7.479431563,,,,,,,,,,,,,,46,mortal,,,,,,586.5736,589.3727,1,0,2.1474,,0,37,37,45,1,two_way_cognate,1,REAL,FALSA
,,,,,,,,,66706f8563d2ad360ad3de67,001,2024-06-30_07h10.39.444,empathy_intonation_perc,2024.1.4,Win32,7.479431563,,,,,,,,,,,,,,119,esís,,,,,,589.373,603.0631,0,1,13.0399,,0,38,38,118,1,pseudoword,0,REAL,FALSA
,,,,,,,,,66706f8563d2ad360ad3de67,001,2024-06-30_07h10.39.444,empathy_intonation_perc,2024.1.4,Win32,7.479431563,,,,,,,,,,,,,,171,gotro,,,,,,603.0742,605.4738,0,1,1.7488,,0,39,39,170,1,pseudoword,0,REAL,FALSA
,,,,,,,,,66706f8563d2ad360ad3de67,001,2024-06-30_07h10.39.444,empathy_intonation_perc,2024.1.4,Win32,7.479431563,,,,,,,,,,,,,,158,babrá,,,,,,605.4742,608.8068,1,0,2.6709,,0,40,40,157,1,pseudoword,0,REAL,FALSA
,,,,,,,,,66706f8563d2ad360ad3de67,001,2024-06-30_07h10.39.444,empathy_intonation_perc,2024.1.4,Win32,7.479431563,,,,,,,,,,,,,,104,estulo,,,,,,608.8072,611.996,1,0,2.5281,,0,41,41,103,1,pseudoword,0,REAL,FALSA
,,,,,,,,,66706f8563d2ad360ad3de67,001,2024-06-30_07h10.39.444,empathy_intonation_perc,2024.1.4,Win32,7.479431563,,,,,,,,,,,,,,113,nasce,,,,,,611.9964,620.4378,1,0,7.7863,,0,42,42,112,1,pseudoword,0,REAL,FALSA
,,,,,,,,,66706f8563d2ad360ad3de67,001,2024-06-30_07h10.39.444,empathy_intonation_perc,2024.1.4,Win32,7.479431563,,,,,,,,,,,,,,192,próces,,,,,,620.4463,625.1107,1,0,4.0111,,0,43,43,191,1,pseudoword,0,REAL,FALSA
,,,,,,,,,66706f8563d2ad360ad3de67,001,2024-06-30_07h10.39.444,empathy_intonation_perc,2024.1.4,Win32,7.479431563,,,,,,,,,,,,,,126,tobre,,,,,,625.119,630.4497,1,0,4.6692,,0,44,44,125,1,pseudoword,0,REAL,FALSA
,,,,,,,,,66706f8563d2ad360ad3de67,001,2024-06-30_07h10.39.444,empathy_intonation_perc,2024.1.4,Win32,7.479431563,,,,,,,,,,,,,,135,panté,,,,,,630.4579,641.2989,1,0,10.1895,,0,45,45,134,1,pseudoword,0,REAL,FALSA
,,,,,,,,,66706f8563d2ad360ad3de67,001,2024-06-30_07h10.39.444,empathy_intonation_perc,2024.1.4,Win32,7.479431563,,,,,,,,,,,,,,52,blando,,,,,,641.3078,649.588,1,0,7.6274,,0,46,46,51,1,non_cognate,1,REAL,FALSA
,,,,,,,,,66706f8563d2ad360ad3de67,001,2024-06-30_07h10.39.444,empathy_intonation_perc,2024.1.4,Win32,7.479431563,,,,,,,,,,,,,,156,ozoso,,,,,,649.5962,652.6512,1,0,2.4061,,0,47,47,155,1,pseudoword,0,REAL,FALSA
,,,,,,,,,66706f8563d2ad360ad3de67,001,2024-06-30_07h10.39.444,empathy_intonation_perc,2024.1.4,Win32,7.479431563,,,,,,,,,,,,,,64,rizado,,,,,,652.6594,656.4689,1,0,3.1549,0.0003,0,48,48,63,1,non_cognate,1,REAL,FALSA
,,,,,,,,,66706f8563d2ad360ad3de67,001,2024-06-30_07h10.39.444,empathy_intonation_perc,2024.1.4,Win32,7.479431563,,,,,,,,,,,,,,138,tator,,,,,,656.4692,668.0787,0,1,10.9399,,0,49,49,137,1,pseudoword,0,REAL,FALSA
,,,,,,,,,66706f8563d2ad360ad3de67,001,2024-06-30_07h10.39.444,empathy_intonation_perc,2024.1.4,Win32,7.479431563,,,,,,,,,,,,,,112,samón,,,,,,668.0896,671.4097,1,0,2.669,,0,50,50,111,1,pseudoword,0,REAL,FALSA
,,,,,,,,,66706f8563d2ad360ad3de67,001,2024-06-30_07h10.39.444,empathy_intonation_perc,2024.1.4,Win32,7.479431563,,,,,,,,,,,,,,11,golf,,,,,,671.41,673.4205,1,0,1.3585,,0,51,51,10,1,three_way_cognate,1,REAL,FALSA
,,,,,,,,,66706f8563d2ad360ad3de67,001,2024-06-30_07h10.39.444,empathy_intonation_perc,2024.1.4,Win32,7.479431563,,,,,,,,,,,,,,151,prías,,,,,,673.4208,675.5611,1,0,1.484,,0,52,52,150,1,pseudoword,0,REAL,FALSA
,,,,,,,,,66706f8563d2ad360ad3de67,001,2024-06-30_07h10.39.444,empathy_intonation_perc,2024.1.4,Win32,7.479431563,,,,,,,,,,,,,,42,rumor,,,,,,675.5614,677.4122,1,0,1.2028,,0,53,53,41,1,two_way_cognate,1,REAL,FALSA
,,,,,,,,,66706f8563d2ad360ad3de67,001,2024-06-30_07h10.39.444,empathy_intonation_perc,2024.1.4,Win32,7.479431563,,,,,,,,,,,,,,123,arane,,,,,,677.4125,683.5792,1,0,5.5166,,0,54,54,122,1,pseudoword,0,REAL,FALSA
,,,,,,,,,66706f8563d2ad360ad3de67,001,2024-06-30_07h10.39.444,empathy_intonation_perc,2024.1.4,Win32,7.479431563,,,,,,,,,,,,,,5,extra,,,,,,683.5874,685.1862,1,0,0.9414,,0,55,55,4,1,three_way_cognate,1,REAL,FALSA
,,,,,,,,,66706f8563d2ad360ad3de67,001,2024-06-30_07h10.39.444,empathy_intonation_perc,2024.1.4,Win32,7.479431563,,,,,,,,,,,,,,93,tapa,,,,,,685.1866,693.6979,1,0,7.8586,,0,56,56,92,1,non_cognate,1,REAL,FALSA
,,,,,,,,,66706f8563d2ad360ad3de67,001,2024-06-30_07h10.39.444,empathy_intonation_perc,2024.1.4,Win32,7.479431563,,,,,,,,,,,,,,127,vien,,,,,,693.7064,697.3116,1,0,2.9472,,0,57,57,126,1,pseudoword,0,REAL,FALSA
,,,,,,,,,66706f8563d2ad360ad3de67,001,2024-06-30_07h10.39.444,empathy_intonation_perc,2024.1.4,Win32,7.479431563,,,,,,,,,,,,,,85,enorme,,,,,,697.312,705.7393,1,0,7.7714,,0,58,58,84,1,non_cognate,1,REAL,FALSA
,,,,,,,,,66706f8563d2ad360ad3de67,001,2024-06-30_07h10.39.444,empathy_intonation_perc,2024.1.4,Win32,7.479431563,,,,,,,,,,,,,,149,emén,,,,,,705.7479,725.4279,1,0,19.0307,,0,59,59,148,1,pseudoword,0,REAL,FALSA
,,,,,,,,,66706f8563d2ad360ad3de67,001,2024-06-30_07h10.39.444,empathy_intonation_perc,2024.1.4,Win32,7.479431563,,,,,,,,,,,,,,177,entodo,,,,,,725.4387,731.9735,1,0,5.8865,,0,60,60,176,1,pseudoword,0,REAL,FALSA
,,,,,,,,,66706f8563d2ad360ad3de67,001,2024-06-30_07h10.39.444,empathy_intonation_perc,2024.1.4,Win32,7.479431563,,,,,,,,,,,,,,89,muñeca,,,,,,731.9856,735.5533,1,0,2.8673,,0,61,61,88,1,non_cognate,1,REAL,FALSA
,,,,,,,,,66706f8563d2ad360ad3de67,001,2024-06-30_07h10.39.444,empathy_intonation_perc,2024.1.4,Win32,7.479431563,,,,,,,,,,,,,,168,cobén,,,,,,735.5649,739.5842,0,1,3.3556,,0,62,62,167,1,pseudoword,0,REAL,FALSA
,,,,,,,,,66706f8563d2ad360ad3de67,001,2024-06-30_07h10.39.444,empathy_intonation_perc,2024.1.4,Win32,7.479431563,,,,,,,,,,,,,,32,animal,,,,,,739.5937,741.6113,1,0,1.3679,,0,63,63,31,1,two_way_cognate,1,REAL,FALSA
,,,,,,,,,66706f8563d2ad360ad3de67,001,2024-06-30_07h10.39.444,empathy_intonation_perc,2024.1.4,Win32,7.479431563,,,,,,,,,,,,,,96,caro,,,,,,741.6115,743.3367,1,0,1.073,0.0002,0,64,64,95,1,non_cognate,1,REAL,FALSA
,,,,,,,,,66706f8563d2ad360ad3de67,001,2024-06-30_07h10.39.444,empathy_intonation_perc,2024.1.4,Win32,7.479431563,,,,,,,,,,,,,,183,edioso,,,,,,743.3371,744.9371,1,0,0.9469,,0,65,65,182,1,pseudoword,0,REAL,FALSA
,,,,,,,,,66706f8563d2ad360ad3de67,001,2024-06-30_07h10.39.444,empathy_intonation_perc,2024.1.4,Win32,7.479431563,,,,,,,,,,,,,,17,clan,,,,,,744.9374,746.9238,1,0,1.3327,,0,66,66,16,1,three_way_cognate,1,REAL,FALSA
,,,,,,,,,66706f8563d2ad360ad3de67,001,2024-06-30_07h10.39.444,empathy_intonation_perc,2024.1.4,Win32,7.479431563,,,,,,,,,,,,,,43,honor,,,,,,746.9242,748.5284,1,0,0.9456,,0,67,67,42,1,two_way_cognate,1,REAL,FALSA
,,,,,,,,,66706f8563d2ad360ad3de67,001,2024-06-30_07h10.39.444,empathy_intonation_perc,2024.1.4,Win32,7.479431563,,,,,,,,,,,,,,36,viable,,,,,,748.5289,749.9981,1,0,0.8071,,0,68,68,35,1,two_way_cognate,1,REAL,FALSA
,,,,,,,,,66706f8563d2ad360ad3de67,001,2024-06-30_07h10.39.444,empathy_intonation_perc,2024.1.4,Win32,7.479431563,,,,,,,,,,,,,,124,lobe,,,,,,749.9984,751.8497,0,1,1.1971,,0,69,69,123,1,pseudoword,0,REAL,FALSA
,,,,,,,,,66706f8563d2ad360ad3de67,001,2024-06-30_07h10.39.444,empathy_intonation_perc,2024.1.4,Win32,7.479431563,,,,,,,,,,,,,,142,parre,,,,,,751.85,753.4523,0,1,0.9356,,0,70,70,141,1,pseudoword,0,REAL,FALSA
,,,,,,,,,66706f8563d2ad360ad3de67,001,2024-06-30_07h10.39.444,empathy_intonation_perc,2024.1.4,Win32,7.479431563,,,,,,,,,,,,,,108,jauda,,,,,,753.4526,755.0482,0,1,0.9467,,0,71,71,107,1,pseudoword,0,REAL,FALSA
,,,,,,,,,66706f8563d2ad360ad3de67,001,2024-06-30_07h10.39.444,empathy_intonation_perc,2024.1.4,Win32,7.479431563,,,,,,,,,,,,,,14,aura,,,,,,755.0485,756.5175,1,0,0.8125,,0,72,72,13,1,three_way_cognate,1,REAL,FALSA
,,,,,,,,,66706f8563d2ad360ad3de67,001,2024-06-30_07h10.39.444,empathy_intonation_perc,2024.1.4,Win32,7.479431563,,,,,,,,,,,,,,24,retina,,,,,,756.5178,758.1038,1,0,0.9328,,0,73,73,23,1,three_way_cognate,1,REAL,FALSA
,,,,,,,,,66706f8563d2ad360ad3de67,001,2024-06-30_07h10.39.444,empathy_intonation_perc,2024.1.4,Win32,7.479431563,,,,,,,,,,,,,,77,suave,,,,,,758.104,759.7021,1,0,0.9338,,0,74,74,76,1,non_cognate,1,REAL,FALSA
,,,,,,,,,66706f8563d2ad360ad3de67,001,2024-06-30_07h10.39.444,empathy_intonation_perc,2024.1.4,Win32,7.479431563,,,,,,,,,,,,,,80,cuenco,,,,,,759.7024,761.5722,0,1,1.2181,,0,75,75,79,1,non_cognate,1,REAL,FALSA
,,,,,,,,,66706f8563d2ad360ad3de67,001,2024-06-30_07h10.39.444,empathy_intonation_perc,2024.1.4,Win32,7.479431563,,,,,,,,,,,,,,57,regalo,,,,,,761.5725,763.4327,0,1,1.2057,1E-04,0,76,76,56,1,non_cognate,1,REAL,FALSA
,,,,,,,,,66706f8563d2ad360ad3de67,001,2024-06-30_07h10.39.444,empathy_intonation_perc,2024.1.4,Win32,7.479431563,,,,,,,,,,,,,,130,dubo,,,,,,763.433,765.4192,0,1,1.3348,,0,77,77,129,1,pseudoword,0,REAL,FALSA
,,,,,,,,,66706f8563d2ad360ad3de67,001,2024-06-30_07h10.39.444,empathy_intonation_perc,2024.1.4,Win32,7.479431563,,,,,,,,,,,,,,88,percha,,,,,,765.4195,767.5476,1,0,1.4772,0.0003,0,78,78,87,1,non_cognate,1,REAL,FALSA
,,,,,,,,,66706f8563d2ad360ad3de67,001,2024-06-30_07h10.39.444,empathy_intonation_perc,2024.1.4,Win32,7.479431563,,,,,,,,,,,,,,178,inichó,,,,,,767.5478,770.477,1,0,2.2788,,0,79,79,177,1,pseudoword,0,REAL,FALSA
,,,,,,,,,66706f8563d2ad360ad3de67,001,2024-06-30_07h10.39.444,empathy_intonation_perc,2024.1.4,Win32,7.479431563,,,,,,,,,,,,,,90,venado,,,,,,770.4853,772.2075,0,1,1.0738,,0,80,80,89,1,non_cognate,1,REAL,FALSA
,,,,,,,,,66706f8563d2ad360ad3de67,001,2024-06-30_07h10.39.444,empathy_intonation_perc,2024.1.4,Win32,7.479431563,,,,,,,,,,,,,,38,halo,,,,,,772.208,773.7991,1,0,0.935,,0,81,81,37,1,two_way_cognate,1,REAL,FALSA
,,,,,,,,,66706f8563d2ad360ad3de67,001,2024-06-30_07h10.39.444,empathy_intonation_perc,2024.1.4,Win32,7.479431563,,,,,,,,,,,,,,145,rúo,,,,,,773.7994,775.5278,0,1,1.0688,,0,82,82,144,1,pseudoword,0,REAL,FALSA
,,,,,,,,,66706f8563d2ad360ad3de67,001,2024-06-30_07h10.39.444,empathy_intonation_perc,2024.1.4,Win32,7.479431563,,,,,,,,,,,,,,170,diabo,,,,,,775.5281,777.6617,0,1,1.4828,,0,83,83,169,1,pseudoword,0,REAL,FALSA
,,,,,,,,,66706f8563d2ad360ad3de67,001,2024-06-30_07h10.39.444,empathy_intonation_perc,2024.1.4,Win32,7.479431563,,,,,,,,,,,,,,98,martir,,,,,,777.662,779.6746,1,0,1.3583,,0,84,84,97,1,pseudoword,0,REAL,FALSA
,,,,,,,,,66706f8563d2ad360ad3de67,001,2024-06-30_07h10.39.444,empathy_intonation_perc,2024.1.4,Win32,7.479431563,,,,,,,,,,,,,,40,pelvis,,,,,,779.6749,781.2669,1,0,0.94,,0,85,85,39,1,two_way_cognate,1,REAL,FALSA
,,,,,,,,,66706f8563d2ad360ad3de67,001,2024-06-30_07h10.39.444,empathy_intonation_perc,2024.1.4,Win32,7.479431563,,,,,,,,,,,,,,53,punta,,,,,,781.2671,782.8671,1,0,0.9403,,0,86,86,52,1,non_cognate,1,REAL,FALSA
,,,,,,,,,66706f8563d2ad360ad3de67,001,2024-06-30_07h10.39.444,empathy_intonation_perc,2024.1.4,Win32,7.479431563,,,,,,,,,,,,,,111,monue,,,,,,782.8673,784.5981,1,0,1.0757,,0,87,87,110,1,pseudoword,0,REAL,FALSA
,,,,,,,,,66706f8563d2ad360ad3de67,001,2024-06-30_07h10.39.444,empathy_intonation_perc,2024.1.4,Win32,7.479431563,,,,,,,,,,,,,,59,feo,,,,,,784.5983,789.1289,0,1,3.8791,,0,88,88,58,1,non_cognate,1,REAL,FALSA
,,,,,,,,,66706f8563d2ad360ad3de67,001,2024-06-30_07h10.39.444,empathy_intonation_perc,2024.1.4,Win32,7.479431563,,,,,,,,,,,,,,7,albino,,,,,,789.1369,790.8649,1,0,1.0763,,0,89,89,6,1,three_way_cognate,1,REAL,FALSA
,,,,,,,,,66706f8563d2ad360ad3de67,001,2024-06-30_07h10.39.444,empathy_intonation_perc,2024.1.4,Win32,7.479431563,,,,,,,,,,,,,,79,suelo,,,,,,790.8652,793.2603,1,0,1.7387,,0,90,90,78,1,non_cognate,1,REAL,FALSA
,,,,,,,,,66706f8563d2ad360ad3de67,001,2024-06-30_07h10.39.444,empathy_intonation_perc,2024.1.4,Win32,7.479431563,,,,,,,,,,,,,,107,plago,,,,,,793.2607,794.9941,0,1,1.0806,,0,91,91,106,1,pseudoword,0,REAL,FALSA
,,,,,,,,,66706f8563d2ad360ad3de67,001,2024-06-30_07h10.39.444,empathy_intonation_perc,2024.1.4,Win32,7.479431563,,,,,,,,,,,,,,9,portal,,,,,,794.9945,796.73,1,0,1.0755,,0,92,92,8,1,three_way_cognate,1,REAL,FALSA
,,,,,,,,,66706f8563d2ad360ad3de67,001,2024-06-30_07h10.39.444,empathy_intonation_perc,2024.1.4,Win32,7.479431563,,,,,,,,,,,,,,133,conso,,,,,,796.7304,798.4593,1,0,1.0675,,0,93,93,132,1,pseudoword,0,REAL,FALSA
,,,,,,,,,66706f8563d2ad360ad3de67,001,2024-06-30_07h10.39.444,empathy_intonation_perc,2024.1.4,Win32,7.479431563,,,,,,,,,,,,,,65,guerra,,,,,,798.4596,800.1817,0,1,1.0694,,0,94,94,64,1,non_cognate,1,REAL,FALSA
,,,,,,,,,66706f8563d2ad360ad3de67,001,2024-06-30_07h10.39.444,empathy_intonation_perc,2024.1.4,Win32,7.479431563,,,,,,,,,,,,,,84,aviso,,,,,,800.1821,803.1304,0,1,2.2866,0.0004,0,95,95,83,1,non_cognate,1,REAL,FALSA
,,,,,,,,,66706f8563d2ad360ad3de67,001,2024-06-30_07h10.39.444,empathy_intonation_perc,2024.1.4,Win32,7.479431563,,,,,,,,,,,,,,191,frasis,,,,,,803.1307,805.7945,0,1,2.0078,,0,96,96,190,1,pseudoword,0,REAL,FALSA
,,,,,,,,,66706f8563d2ad360ad3de67,001,2024-06-30_07h10.39.444,empathy_intonation_perc,2024.1.4,Win32,7.479431563,,,,,,,,,,,,,,179,suelet,,,,,,805.7948,807.3918,0,1,0.9408,,0,97,97,178,1,pseudoword,0,REAL,FALSA
,,,,,,,,,66706f8563d2ad360ad3de67,001,2024-06-30_07h10.39.444,empathy_intonation_perc,2024.1.4,Win32,7.479431563,,,,,,,,,,,,,,29,clamor,,,,,,807.3921,809.5104,1,0,1.468,,0,98,98,28,1,two_way_cognate,1,REAL,FALSA
,,,,,,,,,66706f8563d2ad360ad3de67,001,2024-06-30_07h10.39.444,empathy_intonation_perc,2024.1.4,Win32,7.479431563,,,,,,,,,,,,,,41,pasta,,,,,,809.5108,811.1036,1,0,0.9413,,0,99,99,40,1,two_way_cognate,1,REAL,FALSA
,,,,,,,,,66706f8563d2ad360ad3de67,001,2024-06-30_07h10.39.444,empathy_intonation_perc,2024.1.4,Win32,7.479431563,,,,,,,,,,,,,,181,gravés,,,,,,811.1038,812.844,1,0,1.0858,,0,100,100,180,1,pseudoword,0,REAL,FALSA
,,,,,,,,,66706f8563d2ad360ad3de67,001,2024-06-30_07h10.39.444,empathy_intonation_perc,2024.1.4,Win32,7.479431563,,,,,,,,,,,,,,76,chocar,,,,,,812.8442,814.9774,0,1,1.468,,0,101,101,75,1,non_cognate,1,REAL,FALSA
,,,,,,,,,66706f8563d2ad360ad3de67,001,2024-06-30_07h10.39.444,empathy_intonation_perc,2024.1.4,Win32,7.479431563,,,,,,,,,,,,,,146,gió,,,,,,814.9777,816.5695,0,1,0.9375,,0,102,102,145,1,pseudoword,0,REAL,FALSA
,,,,,,,,,66706f8563d2ad360ad3de67,001,2024-06-30_07h10.39.444,empathy_intonation_perc,2024.1.4,Win32,7.479431563,,,,,,,,,,,,,,132,nocó,,,,,,816.5698,818.5579,0,1,1.3366,,0,103,103,131,1,pseudoword,0,REAL,FALSA
,,,,,,,,,66706f8563d2ad360ad3de67,001,2024-06-30_07h10.39.444,empathy_intonation_perc,2024.1.4,Win32,7.479431563,,,,,,,,,,,,,,30,fiscal,,,,,,818.5582,820.6913,0,1,1.4798,,0,104,104,29,1,two_way_cognate,1,REAL,FALSA
,,,,,,,,,66706f8563d2ad360ad3de67,001,2024-06-30_07h10.39.444,empathy_intonation_perc,2024.1.4,Win32,7.479431563,,,,,,,,,,,,,,134,molor,,,,,,820.6916,822.2886,0,1,0.9463,,0,105,105,133,1,pseudoword,0,REAL,FALSA
,,,,,,,,,66706f8563d2ad360ad3de67,001,2024-06-30_07h10.39.444,empathy_intonation_perc,2024.1.4,Win32,7.479431563,,,,,,,,,,,,,,165,chote,,,,,,822.2889,823.877,0,1,0.9357,,0,106,106,164,1,pseudoword,0,REAL,FALSA
,,,,,,,,,66706f8563d2ad360ad3de67,001,2024-06-30_07h10.39.444,empathy_intonation_perc,2024.1.4,Win32,7.479431563,,,,,,,,,,,,,,182,desaro,,,,,,823.8773,825.338,0,1,0.8071,,0,107,107,181,1,pseudoword,0,REAL,FALSA
,,,,,,,,,66706f8563d2ad360ad3de67,001,2024-06-30_07h10.39.444,empathy_intonation_perc,2024.1.4,Win32,7.479431563,,,,,,,,,,,,,,23,plural,,,,,,825.3384,826.9306,1,0,0.9375,,0,108,108,22,1,three_way_cognate,1,REAL,FALSA
,,,,,,,,,66706f8563d2ad360ad3de67,001,2024-06-30_07h10.39.444,empathy_intonation_perc,2024.1.4,Win32,7.479431563,,,,,,,,,,,,,,172,dogue,,,,,,826.9309,828.9255,1,0,1.3391,,0,109,109,171,1,pseudoword,0,REAL,FALSA
,,,,,,,,,66706f8563d2ad360ad3de67,001,2024-06-30_07h10.39.444,empathy_intonation_perc,2024.1.4,Win32,7.479431563,,,,,,,,,,,,,,152,prave,,,,,,828.9258,830.6457,1,0,1.0663,,0,110,110,151,1,pseudoword,0,REAL,FALSA
,,,,,,,,,66706f8563d2ad360ad3de67,001,2024-06-30_07h10.39.444,empathy_intonation_perc,2024.1.4,Win32,7.479431563,,,,,,,,,,,,,,105,leniz,,,,,,830.646,833.8426,0,1,2.5444,,0,111,111,104,1,pseudoword,0,REAL,FALSA
,,,,,,,,,66706f8563d2ad360ad3de67,001,2024-06-30_07h10.39.444,empathy_intonation_perc,2024.1.4,Win32,7.479431563,,,,,,,,,,,,,,167,dobbo,,,,,,833.8507,835.3014,0,1,0.8043,,0,112,112,166,1,pseudoword,0,REAL,FALSA
,,,,,,,,,66706f8563d2ad360ad3de67,001,2024-06-30_07h10.39.444,empathy_intonation_perc,2024.1.4,Win32,7.479431563,,,,,,,,,,,,,,99,bugor,,,,,,835.3017,836.8953,0,1,0.9402,,0,113,113,98,1,pseudoword,0,REAL,FALSA
,,,,,,,,,66706f8563d2ad360ad3de67,001,2024-06-30_07h10.39.444,empathy_intonation_perc,2024.1.4,Win32,7.479431563,,,,,,,,,,,,,,94,forro,,,,,,836.8958,838.217,0,1,0.6674,,0,114,114,93,1,non_cognate,1,REAL,FALSA
,,,,,,,,,66706f8563d2ad360ad3de67,001,2024-06-30_07h10.39.444,empathy_intonation_perc,2024.1.4,Win32,7.479431563,,,,,,,,,,,,,,18,altar,,,,,,838.2173,839.8087,1,0,0.939,,0,115,115,17,1,three_way_cognate,1,REAL,FALSA
,,,,,,,,,66706f8563d2ad360ad3de67,001,2024-06-30_07h10.39.444,empathy_intonation_perc,2024.1.4,Win32,7.479431563,,,,,,,,,,,,,,154,harvé,,,,,,839.809,841.535,0,1,1.0703,,0,116,116,153,1,pseudoword,0,REAL,FALSA
,,,,,,,,,66706f8563d2ad360ad3de67,001,2024-06-30_07h10.39.444,empathy_intonation_perc,2024.1.4,Win32,7.479431563,,,,,,,,,,,,,,173,mibro,,,,,,841.5354,842.9893,0,1,0.8016,,0,117,117,172,1,pseudoword,0,REAL,FALSA
,,,,,,,,,66706f8563d2ad360ad3de67,001,2024-06-30_07h10.39.444,empathy_intonation_perc,2024.1.4,Win32,7.479431563,,,,,,,,,,,,,,187,nomata,,,,,,842.9895,844.5877,0,1,0.9378,0.0003,0,118,118,186,1,pseudoword,0,REAL,FALSA
,,,,,,,,,66706f8563d2ad360ad3de67,001,2024-06-30_07h10.39.444,empathy_intonation_perc,2024.1.4,Win32,7.479431563,,,,,,,,,,,,,,22,mango,,,,,,844.5879,846.2247,1,0,0.9785,1E-04,0,119,119,21,1,three_way_cognate,1,REAL,FALSA
,,,,,,,,,66706f8563d2ad360ad3de67,001,2024-06-30_07h10.39.444,empathy_intonation_perc,2024.1.4,Win32,7.479431563,,,,,,,,,,,,,,83,hálito,,,,,,846.2251,848.3666,1,0,1.4728,,0,120,120,82,1,non_cognate,1,REAL,FALSA
,,,,,,,,,66706f8563d2ad360ad3de67,001,2024-06-30_07h10.39.444,empathy_intonation_perc,2024.1.4,Win32,7.479431563,,,,,,,,,,,,,,87,muleta,,,,,,848.367,851.9701,0,1,2.9484,,0,121,121,86,1,non_cognate,1,REAL,FALSA
,,,,,,,,,66706f8563d2ad360ad3de67,001,2024-06-30_07h10.39.444,empathy_intonation_perc,2024.1.4,Win32,7.479431563,,,,,,,,,,,,,,10,drama,,,,,,851.981,854.0967,1,0,1.4691,,0,122,122,9,1,three_way_cognate,1,REAL,FALSA
,,,,,,,,,66706f8563d2ad360ad3de67,001,2024-06-30_07h10.39.444,empathy_intonation_perc,2024.1.4,Win32,7.479431563,,,,,,,,,,,,,,21,hotel,,,,,,854.097,855.5545,1,0,0.8071,,0,123,123,20,1,three_way_cognate,1,REAL,FALSA
,,,,,,,,,66706f8563d2ad360ad3de67,001,2024-06-30_07h10.39.444,empathy_intonation_perc,2024.1.4,Win32,7.479431563,,,,,,,,,,,,,,159,trcia,,,,,,855.5547,858.8793,0,1,2.6725,0.0003,0,124,124,158,1,pseudoword,0,REAL,FALSA
,,,,,,,,,66706f8563d2ad360ad3de67,001,2024-06-30_07h10.39.444,empathy_intonation_perc,2024.1.4,Win32,7.479431563,,,,,,,,,,,,,,86,cuenco,,,,,,858.8877,860.4825,0,1,0.9454,,0,125,125,85,1,non_cognate,1,REAL,FALSA
,,,,,,,,,66706f8563d2ad360ad3de67,001,2024-06-30_07h10.39.444,empathy_intonation_perc,2024.1.4,Win32,7.479431563,,,,,,,,,,,,,,166,anfia,,,,,,860.4829,862.2146,0,1,1.069,,0,126,126,165,1,pseudoword,0,REAL,FALSA
,,,,,,,,,66706f8563d2ad360ad3de67,001,2024-06-30_07h10.39.444,empathy_intonation_perc,2024.1.4,Win32,7.479431563,,,,,,,,,,,,,,60,siglo,,,,,,862.2148,863.8199,0,1,0.9405,,0,127,127,59,1,non_cognate,1,REAL,FALSA
,,,,,,,,,66706f8563d2ad360ad3de67,001,2024-06-30_07h10.39.444,empathy_intonation_perc,2024.1.4,Win32,7.479431563,,,,,,,,,,,,,,141,virios,,,,,,863.8203,865.9652,0,1,1.4803,,0,128,128,140,1,pseudoword,0,REAL,FALSA
,,,,,,,,,66706f8563d2ad360ad3de67,001,2024-06-30_07h10.39.444,empathy_intonation_perc,2024.1.4,Win32,7.479431563,,,,,,,,,,,,,,12,dogma,,,,,,865.9655,867.4325,0,1,0.8094,,0,129,129,11,1,three_way_cognate,1,REAL,FALSA
,,,,,,,,,66706f8563d2ad360ad3de67,001,2024-06-30_07h10.39.444,empathy_intonation_perc,2024.1.4,Win32,7.479431563,,,,,,,,,,,,,,73,llevar,,,,,,867.4328,869.5481,0,1,1.4639,,0,130,130,72,1,non_cognate,1,REAL,FALSA
,,,,,,,,,66706f8563d2ad360ad3de67,001,2024-06-30_07h10.39.444,empathy_intonation_perc,2024.1.4,Win32,7.479431563,,,,,,,,,,,,,,20,trauma,,,,,,869.5484,871.9442,1,0,1.7455,,0,131,131,19,1,three_way_cognate,1,REAL,FALSA
,,,,,,,,,66706f8563d2ad360ad3de67,001,2024-06-30_07h10.39.444,empathy_intonation_perc,2024.1.4,Win32,7.479431563,,,,,,,,,,,,,,81,sacar,,,,,,871.9445,874.2046,0,1,1.6062,,0,132,132,80,1,non_cognate,1,REAL,FALSA
,,,,,,,,,66706f8563d2ad360ad3de67,001,2024-06-30_07h10.39.444,empathy_intonation_perc,2024.1.4,Win32,7.479431563,,,,,,,,,,,,,,139,sasos,,,,,,874.2049,875.6851,0,1,0.8066,,0,133,133,138,1,pseudoword,0,REAL,FALSA
,,,,,,,,,66706f8563d2ad360ad3de67,001,2024-06-30_07h10.39.444,empathy_intonation_perc,2024.1.4,Win32,7.479431563,,,,,,,,,,,,,,27,piano,,,,,,875.6854,877.6712,1,0,1.3328,,0,134,134,26,1,two_way_cognate,1,REAL,FALSA
,,,,,,,,,66706f8563d2ad360ad3de67,001,2024-06-30_07h10.39.444,empathy_intonation_perc,2024.1.4,Win32,7.479431563,,,,,,,,,,,,,,3,disco,,,,,,877.6716,879.2612,1,0,0.9398,,0,135,135,2,1,three_way_cognate,1,REAL,FALSA
,,,,,,,,,66706f8563d2ad360ad3de67,001,2024-06-30_07h10.39.444,empathy_intonation_perc,2024.1.4,Win32,7.479431563,,,,,,,,,,,,,,136,hueas,,,,,,879.2614,881.3916,0,1,1.4736,,0,136,136,135,1,pseudoword,0,REAL,FALSA
,,,,,,,,,66706f8563d2ad360ad3de67,001,2024-06-30_07h10.39.444,empathy_intonation_perc,2024.1.4,Win32,7.479431563,,,,,,,,,,,,,,106,diebro,,,,,,881.3918,882.9844,0,1,0.9403,,0,137,137,105,1,pseudoword,0,REAL,FALSA
,,,,,,,,,66706f8563d2ad360ad3de67,001,2024-06-30_07h10.39.444,empathy_intonation_perc,2024.1.4,Win32,7.479431563,,,,,,,,,,,,,,116,grigir,,,,,,882.9848,884.7079,0,1,1.0669,0.0003,0,138,138,115,1,pseudoword,0,REAL,FALSA
,,,,,,,,,66706f8563d2ad360ad3de67,001,2024-06-30_07h10.39.444,empathy_intonation_perc,2024.1.4,Win32,7.479431563,,,,,,,,,,,,,,72,rostro,,,,,,884.7082,886.5684,0,1,1.2075,,0,139,139,71,1,non_cognate,1,REAL,FALSA
,,,,,,,,,66706f8563d2ad360ad3de67,001,2024-06-30_07h10.39.444,empathy_intonation_perc,2024.1.4,Win32,7.479431563,,,,,,,,,,,,,,15,test,,,,,,886.5687,888.6973,1,0,1.4742,,0,140,140,14,1,three_way_cognate,1,REAL,FALSA
,,,,,,,,,66706f8563d2ad360ad3de67,001,2024-06-30_07h10.39.444,empathy_intonation_perc,2024.1.4,Win32,7.479431563,,,,,,,,,,,,,,160,fomeó,,,,,,888.6976,890.5561,0,1,1.2084,,0,141,141,159,1,pseudoword,0,REAL,FALSA
,,,,,,,,,66706f8563d2ad360ad3de67,001,2024-06-30_07h10.39.444,empathy_intonation_perc,2024.1.4,Win32,7.479431563,,,,,,,,,,,,,,101,losco,,,,,,890.5564,892.4266,0,1,1.2104,,0,142,142,100,1,pseudoword,0,REAL,FALSA
,,,,,,,,,66706f8563d2ad360ad3de67,001,2024-06-30_07h10.39.444,empathy_intonation_perc,2024.1.4,Win32,7.479431563,,,,,,,,,,,,,,140,chorde,,,,,,892.427,893.8838,0,1,0.8064,,0,143,143,139,1,pseudoword,0,REAL,FALSA
,,,,,,,,,66706f8563d2ad360ad3de67,001,2024-06-30_07h10.39.444,empathy_intonation_perc,2024.1.4,Win32,7.479431563,,,,,,,,,,,,,,55,maldad,,,,,,893.884,895.3389,0,1,0.8034,,0,144,144,54,1,non_cognate,1,REAL,FALSA
,,,,,,,,,66706f8563d2ad360ad3de67,001,2024-06-30_07h10.39.444,empathy_intonation_perc,2024.1.4,Win32,7.479431563,,,,,,,,,,,,,,155,kugis,,,,,,895.3392,896.7964,0,1,0.8036,,0,145,145,154,1,pseudoword,0,REAL,FALSA
,,,,,,,,,66706f8563d2ad360ad3de67,001,2024-06-30_07h10.39.444,empathy_intonation_perc,2024.1.4,Win32,7.479431563,,,,,,,,,,,,,,62,pegar,,,,,,896.7967,899.0639,1,0,1.6091,,0,146,146,61,1,non_cognate,1,REAL,FALSA
,,,,,,,,,66706f8563d2ad360ad3de67,001,2024-06-30_07h10.39.444,empathy_intonation_perc,2024.1.4,Win32,7.479431563,,,,,,,,,,,,,,97,nocita,,,,,,899.0642,901.3374,0,1,1.6201,0.0002,0,147,147,96,1,pseudoword,0,REAL,FALSA
,,,,,,,,,66706f8563d2ad360ad3de67,001,2024-06-30_07h10.39.444,empathy_intonation_perc,2024.1.4,Win32,7.479431563,,,,,,,,,,,,,,25,vigor,,,,,,901.3376,903.0657,1,0,1.0714,,0,148,148,24,1,two_way_cognate,1,REAL,FALSA
,,,,,,,,,66706f8563d2ad360ad3de67,001,2024-06-30_07h10.39.444,empathy_intonation_perc,2024.1.4,Win32,7.479431563,,,,,,,,,,,,,,103,vueras,,,,,,903.0661,905.1992,0,1,1.4777,,0,149,149,102,1,pseudoword,0,REAL,FALSA
,,,,,,,,,66706f8563d2ad360ad3de67,001,2024-06-30_07h10.39.444,empathy_intonation_perc,2024.1.4,Win32,7.479431563,,,,,,,,,,,,,,114,dibrea,,,,,,905.1995,907.3255,0,1,1.4735,,0,150,150,113,1,pseudoword,0,REAL,FALSA
,,,,,,,,,66706f8563d2ad360ad3de67,001,2024-06-30_07h10.39.444,empathy_intonation_perc,2024.1.4,Win32,7.479431563,,,,,,,,,,,,,,95,listo,,,,,,907.3258,909.32,1,0,1.3342,,0,151,151,94,1,non_cognate,1,REAL,FALSA
,,,,,,,,,66706f8563d2ad360ad3de67,001,2024-06-30_07h10.39.444,empathy_intonation_perc,2024.1.4,Win32,7.479431563,,,,,,,,,,,,,,70,ánimo,,,,,,909.3202,911.0474,1,0,1.0727,,0,152,152,69,1,non_cognate,1,REAL,FALSA
,,,,,,,,,66706f8563d2ad360ad3de67,001,2024-06-30_07h10.39.444,empathy_intonation_perc,2024.1.4,Win32,7.479431563,,,,,,,,,,,,,,47,color,,,,,,911.0476,912.499,1,0,0.7989,,0,153,153,46,1,two_way_cognate,1,REAL,FALSA
,,,,,,,,,66706f8563d2ad360ad3de67,001,2024-06-30_07h10.39.444,empathy_intonation_perc,2024.1.4,Win32,7.479431563,,,,,,,,,,,,,,157,seled,,,,,,912.4992,914.4871,0,1,1.3359,,0,154,154,156,1,pseudoword,0,REAL,FALSA
,,,,,,,,,66706f8563d2ad360ad3de67,001,2024-06-30_07h10.39.444,empathy_intonation_perc,2024.1.4,Win32,7.479431563,,,,,,,,,,,,,,121,barbs,,,,,,914.4874,916.7549,1,0,1.6173,,0,155,155,120,1,pseudoword,0,REAL,FALSA
,,,,,,,,,66706f8563d2ad360ad3de67,001,2024-06-30_07h10.39.444,empathy_intonation_perc,2024.1.4,Win32,7.479431563,,,,,,,,,,,,,,188,amplir,,,,,,916.7552,919.0136,0,1,1.6017,,0,156,156,187,1,pseudoword,0,REAL,FALSA
,,,,,,,,,66706f8563d2ad360ad3de67,001,2024-06-30_07h10.39.444,empathy_intonation_perc,2024.1.4,Win32,7.479431563,,,,,,,,,,,,,,33,collar,,,,,,919.014,921.0004,1,0,1.337,,0,157,157,32,1,two_way_cognate,1,REAL,FALSA
,,,,,,,,,66706f8563d2ad360ad3de67,001,2024-06-30_07h10.39.444,empathy_intonation_perc,2024.1.4,Win32,7.479431563,,,,,,,,,,,,,,129,vinzó,,,,,,921.0008,923.1275,0,1,1.472,,0,158,158,128,1,pseudoword,0,REAL,FALSA
,,,,,,,,,66706f8563d2ad360ad3de67,001,2024-06-30_07h10.39.444,empathy_intonation_perc,2024.1.4,Win32,7.479431563,,,,,,,,,,,,,,92,flecha,,,,,,923.1279,924.724,0,1,0.9408,,0,159,159,91,1,non_cognate,1,REAL,FALSA
,,,,,,,,,66706f8563d2ad360ad3de67,001,2024-06-30_07h10.39.444,empathy_intonation_perc,2024.1.4,Win32,7.479431563,,,,,,,,,,,,,,75,patada,,,,,,924.7243,926.4583,0,1,1.0777,,0,160,160,74,1,non_cognate,1,REAL,FALSA
,,,,,,,,,66706f8563d2ad360ad3de67,001,2024-06-30_07h10.39.444,empathy_intonation_perc,2024.1.4,Win32,7.479431563,,,,,,,,,,,,,,128,pelí,,,,,,926.4586,928.3263,0,1,1.2139,0.0002,0,161,161,127,1,pseudoword,0,REAL,FALSA
,,,,,,,,,66706f8563d2ad360ad3de67,001,2024-06-30_07h10.39.444,empathy_intonation_perc,2024.1.4,Win32,7.479431563,,,,,,,,,,,,,,58,colcha,,,,,,928.3266,929.7855,0,1,0.8061,,0,162,162,57,1,non_cognate,1,REAL,FALSA
,,,,,,,,,66706f8563d2ad360ad3de67,001,2024-06-30_07h10.39.444,empathy_intonation_perc,2024.1.4,Win32,7.479431563,,,,,,,,,,,,,,44,editor,,,,,,929.7858,931.6493,1,0,1.2097,,0,163,163,43,1,two_way_cognate,1,REAL,FALSA
,,,,,,,,,66706f8563d2ad360ad3de67,001,2024-06-30_07h10.39.444,empathy_intonation_perc,2024.1.4,Win32,7.479431563,,,,,,,,,,,,,,147,alla,,,,,,931.6496,932.9772,1,0,0.673,,0,164,164,146,1,pseudoword,0,REAL,FALSA
,,,,,,,,,66706f8563d2ad360ad3de67,001,2024-06-30_07h10.39.444,empathy_intonation_perc,2024.1.4,Win32,7.479431563,,,,,,,,,,,,,,1,moral,,,,,,932.9775,934.4391,1,0,0.8092,,0,165,165,0,1,three_way_cognate,1,REAL,FALSA
,,,,,,,,,66706f8563d2ad360ad3de67,001,2024-06-30_07h10.39.444,empathy_intonation_perc,2024.1.4,Win32,7.479431563,,,,,,,,,,,,,,39,casual,,,,,,934.4394,935.8986,1,0,0.804,,0,166,166,38,1,two_way_cognate,1,REAL,FALSA
,,,,,,,,,66706f8563d2ad360ad3de67,001,2024-06-30_07h10.39.444,empathy_intonation_perc,2024.1.4,Win32,7.479431563,,,,,,,,,,,,,,148,gino,,,,,,935.8989,937.6205,1,0,1.0698,,0,167,167,147,1,pseudoword,0,REAL,FALSA
,,,,,,,,,66706f8563d2ad360ad3de67,001,2024-06-30_07h10.39.444,empathy_intonation_perc,2024.1.4,Win32,7.479431563,,,,,,,,,,,,,,82,brillo,,,,,,937.6207,939.6114,0,1,1.3399,,0,168,168,81,1,non_cognate,1,REAL,FALSA
,,,,,,,,,66706f8563d2ad360ad3de67,001,2024-06-30_07h10.39.444,empathy_intonation_perc,2024.1.4,Win32,7.479431563,,,,,,,,,,,,,,109,laras,,,,,,939.6116,941.8665,0,1,1.6011,,0,169,169,108,1,pseudoword,0,REAL,FALSA
,,,,,,,,,66706f8563d2ad360ad3de67,001,2024-06-30_07h10.39.444,empathy_intonation_perc,2024.1.4,Win32,7.479431563,,,,,,,,,,,,,,13,plan,,,,,,941.8668,943.9871,1,0,1.4681,,0,170,170,12,1,three_way_cognate,1,REAL,FALSA
,,,,,,,,,66706f8563d2ad360ad3de67,001,2024-06-30_07h10.39.444,empathy_intonation_perc,2024.1.4,Win32,7.479431563,,,,,,,,,,,,,,143,hurcos,,,,,,943.9874,946.1278,0,1,1.4848,,0,171,171,142,1,pseudoword,0,REAL,FALSA
,,,,,,,,,66706f8563d2ad360ad3de67,001,2024-06-30_07h10.39.444,empathy_intonation_perc,2024.1.4,Win32,7.479431563,,,,,,,,,,,,,,78,rendir,,,,,,946.1281,947.5967,0,1,0.8066,,0,172,172,77,1,non_cognate,1,REAL,FALSA
,,,,,,,,,66706f8563d2ad360ad3de67,001,2024-06-30_07h10.39.444,empathy_intonation_perc,2024.1.4,Win32,7.479431563,,,,,,,,,,,,,,137,trugo,,,,,,947.597,949.0541,0,1,0.8074,,0,173,173,136,1,pseudoword,0,REAL,FALSA
,,,,,,,,,66706f8563d2ad360ad3de67,001,2024-06-30_07h10.39.444,empathy_intonation_perc,2024.1.4,Win32,7.479431563,,,,,,,,,,,,,,176,gripar,,,,,,949.0544,950.5142,0,1,0.8054,,0,174,174,175,1,pseudoword,0,REAL,FALSA
,,,,,,,,,66706f8563d2ad360ad3de67,001,2024-06-30_07h10.39.444,empathy_intonation_perc,2024.1.4,Win32,7.479431563,,,,,,,,,,,,,,56,pico,,,,,,950.5145,952.1007,0,1,0.9352,,0,175,175,55,1,non_cognate,1,REAL,FALSA
,,,,,,,,,66706f8563d2ad360ad3de67,001,2024-06-30_07h10.39.444,empathy_intonation_perc,2024.1.4,Win32,7.479431563,,,,,,,,,,,,,,190,asumie,,,,,,952.101,953.7062,0,1,0.9505,0.0003,0,176,176,189,1,pseudoword,0,REAL,FALSA
,,,,,,,,,66706f8563d2ad360ad3de67,001,2024-06-30_07h10.39.444,empathy_intonation_perc,2024.1.4,Win32,7.479431563,,,,,,,,,,,,,,26,enigma,,,,,,953.7064,956.4167,1,0,2.0567,,0,177,177,25,1,two_way_cognate,1,REAL,FALSA
,,,,,,,,,66706f8563d2ad360ad3de67,001,2024-06-30_07h10.39.444,empathy_intonation_perc,2024.1.4,Win32,7.479431563,,,,,,,,,,,,,,180,pupica,,,,,,956.417,958.4609,1,0,1.3825,0.0002,0,178,178,179,1,pseudoword,0,REAL,FALSA
,,,,,,,,,66706f8563d2ad360ad3de67,001,2024-06-30_07h10.39.444,empathy_intonation_perc,2024.1.4,Win32,7.479431563,,,,,,,,,,,,,,51,listo,,,,,,958.4613,959.1265,1,0,0.0043,,0,179,179,50,1,non_cognate,1,REAL,FALSA
,,,,,,,,,66706f8563d2ad360ad3de67,001,2024-06-30_07h10.39.444,empathy_intonation_perc,2024.1.4,Win32,7.479431563,,,,,,,,,,,,,,189,medium,,,,,,959.1269,960.7342,1,0,0.9401,,0,180,180,188,1,pseudoword,0,REAL,FALSA
,,,,,,,,,66706f8563d2ad360ad3de67,001,2024-06-30_07h10.39.444,empathy_intonation_perc,2024.1.4,Win32,7.479431563,,,,,,,,,,,,,,37,torso,,,,,,960.7345,962.4586,1,0,1.0697,0.0003,0,181,181,36,1,two_way_cognate,1,REAL,FALSA
,,,,,,,,,66706f8563d2ad360ad3de67,001,2024-06-30_07h10.39.444,empathy_intonation_perc,2024.1.4,Win32,7.479431563,,,,,,,,,,,,,,6,horror,,,,,,962.4589,963.6583,1,0,0.5458,,0,182,182,5,1,three_way_cognate,1,REAL,FALSA
,,,,,,,,,66706f8563d2ad360ad3de67,001,2024-06-30_07h10.39.444,empathy_intonation_perc,2024.1.4,Win32,7.479431563,,,,,,,,,,,,,,162,cengo,,,,,,963.6586,965.7787,0,1,1.4723,,0,183,183,161,1,pseudoword,0,REAL,FALSA
,,,,,,,,,66706f8563d2ad360ad3de67,001,2024-06-30_07h10.39.444,empathy_intonation_perc,2024.1.4,Win32,7.479431563,,,,,,,,,,,,,,66,aleta,,,,,,965.7791,967.1102,0,1,0.6779,,0,184,184,65,1,non_cognate,1,REAL,FALSA
,,,,,,,,,66706f8563d2ad360ad3de67,001,2024-06-30_07h10.39.444,empathy_intonation_perc,2024.1.4,Win32,7.479431563,,,,,,,,,,,,,,169,pitis,,,,,,967.1105,968.5688,0,1,0.8049,,0,185,185,168,1,pseudoword,0,REAL,FALSA
,,,,,,,,,66706f8563d2ad360ad3de67,001,2024-06-30_07h10.39.444,empathy_intonation_perc,2024.1.4,Win32,7.479431563,,,,,,,,,,,,,,68,puñal,,,,,,968.5692,970.6904,0,1,1.4715,,0,186,186,67,1,non_cognate,1,REAL,FALSA
,,,,,,,,,66706f8563d2ad360ad3de67,001,2024-06-30_07h10.39.444,empathy_intonation_perc,2024.1.4,Win32,7.479431563,,,,,,,,,,,,,,48,pelvis,,,,,,970.6907,972.5483,1,0,1.2078,,0,187,187,47,1,two_way_cognate,1,REAL,FALSA
,,,,,,,,,66706f8563d2ad360ad3de67,001,2024-06-30_07h10.39.444,empathy_intonation_perc,2024.1.4,Win32,7.479431563,,,,,,,,,,,,,,163,olzan,,,,,,972.5486,974.4299,0,1,1.2196,,0,188,188,162,1,pseudoword,0,REAL,FALSA
,,,,,,,,,66706f8563d2ad360ad3de67,001,2024-06-30_07h10.39.444,empathy_intonation_perc,2024.1.4,Win32,7.479431563,,,,,,,,,,,,,,2,tumor,,,,,,974.4302,976.4153,1,0,1.3337,,0,189,189,1,1,three_way_cognate,1,REAL,FALSA
,,,,,,,,,66706f8563d2ad360ad3de67,001,2024-06-30_07h10.39.444,empathy_intonation_perc,2024.1.4,Win32,7.479431563,,,,,,,,,,,,,,71,torta,,,,,,976.4156,977.7471,1,0,0.6827,,0,190,190,70,1,non_cognate,1,REAL,FALSA
,,,,,,,,,66706f8563d2ad360ad3de67,001,2024-06-30_07h10.39.444,empathy_intonation_perc,2024.1.4,Win32,7.479431563,,,,,,,,,,,,,,120,mauja,,,,,,977.7474,980.0023,0,1,1.6018,,0,191,191,119,1,pseudoword,0,REAL,FALSA
