lextale_instructions.started,lextale_instructions.stopped,lextale_instructions_loop.thisRepN,lextale_instructions_loop.thisTrialN,lextale_instructions_loop.thisN,lextale_instructions_loop.thisIndex,lextale_instructions_loop.ran,instructions_text,continue_text,participant,session,date,expName,psychopyVersion,OS,frameRate,lextale_practice.started,lextale_practice.stopped,key_resp_lextale_practice.keys,key_resp_lextale_practice.corr,key_resp_lextale_practice.rt,key_resp_lextale_practice.duration,lextale_practice_feedback.started,lextale_practice_feedback.stopped,lextale_practice_trials.thisRepN,lextale_practice_trials.thisTrialN,lextale_practice_trials.thisN,lextale_practice_trials.thisIndex,lextale_practice_trials.ran,stim,word,correct_response,prac_button_real,prac_button_false,lextale_check.started,lextale_check.stopped,lextale_trial.started,lextale_trial.stopped,key_resp_lextale_trial.keys,key_resp_lextale_trial.corr,key_resp_lextale_trial.rt,key_resp_lextale_trial.duration,lextail_trials.thisRepN,lextail_trials.thisTrialN,lextail_trials.thisN,lextail_trials.thisIndex,lextail_trials.ran,type,correct_reponse,button_real,button_false
0.003,7.3567,0,0,0,0,1,"Este es un test de vocabulario en español. 
  
  A continuación vas a ver 90 secuencias de letras que parecen 'españolas'.
  
  Solo algunas de ellas son palabras de verdad.",(presiona la barra espaciadora para continuar),667850884c361fc66ef32b52,001,2024-06-30_07h03.52.326,empathy_intonation_perc,2024.1.4,Win32,144.9275362,,,,,,,,,,,,,,,,,,,,,,,,,,,,,,,,,,,
7.357,34.3373,0,1,1,1,1,"Por favor, señala las palabras que tú conoces (aquellas que estás convencido que son palabras españolas, incluso aunque no seas capaz de dar el significado preciso).",(presiona la barra espaciadora para continuar),667850884c361fc66ef32b52,001,2024-06-30_07h03.52.326,empathy_intonation_perc,2024.1.4,Win32,144.9275362,,,,,,,,,,,,,,,,,,,,,,,,,,,,,,,,,,,
34.3375,40.0376,0,2,2,2,1,Pero cuidado: los errores se penalizan. Por eso no tiene sentido tratar de incrementar tu puntuación marcando como reales palabras que nunca has visto.,(presiona la barra espaciadora para continuar),667850884c361fc66ef32b52,001,2024-06-30_07h03.52.326,empathy_intonation_perc,2024.1.4,Win32,144.9275362,,,,,,,,,,,,,,,,,,,,,,,,,,,,,,,,,,,
40.0378,41.447,0,3,3,3,1,"Presiona la tecla 1 si piensas que es una palabra real y la tecla 
  0 si piensas que es una palabra falsa. 
  
  Vamos a practicar un poco...",(presiona la barra espaciadora para continuar),667850884c361fc66ef32b52,001,2024-06-30_07h03.52.326,empathy_intonation_perc,2024.1.4,Win32,144.9275362,,,,,,,,,,,,,,,,,,,,,,,,,,,,,,,,,,,
,,,,,,,,,667850884c361fc66ef32b52,001,2024-06-30_07h03.52.326,empathy_intonation_perc,2024.1.4,Win32,144.9275362,41.4494,43.301,1,0,1.3377,,43.3012,44.3008,0,0,0,0,1,0,depiste,0,REAL,FALSA,,,,,,,,,,,,,,,,,
,,,,,,,,,667850884c361fc66ef32b52,001,2024-06-30_07h03.52.326,empathy_intonation_perc,2024.1.4,Win32,144.9275362,44.301,45.5156,1,1,0.7005,,45.5157,46.5155,0,1,1,1,1,0,sí,1,REAL,FALSA,,,,,,,,,,,,,,,,,
,,,,,,,,,667850884c361fc66ef32b52,001,2024-06-30_07h03.52.326,empathy_intonation_perc,2024.1.4,Win32,144.9275362,46.5156,48.0082,1,0,0.9784,,48.0082,49.0081,0,2,2,2,1,0,coné,0,REAL,FALSA,,,,,,,,,,,,,,,,,
,,,,,,,,,667850884c361fc66ef32b52,001,2024-06-30_07h03.52.326,empathy_intonation_perc,2024.1.4,Win32,144.9275362,49.0082,50.6535,0,1,1.1314,,50.6535,51.6533,0,3,3,3,1,0,calpar,0,REAL,FALSA,,,,,,,,,,,,,,,,,
,,,,,,,,,667850884c361fc66ef32b52,001,2024-06-30_07h03.52.326,empathy_intonation_perc,2024.1.4,Win32,144.9275362,51.6535,53.8127,0,1,1.643,,53.8127,54.8125,0,4,4,4,1,0,joten,0,REAL,FALSA,,,,,,,,,,,,,,,,,
,,,,,,,,,667850884c361fc66ef32b52,001,2024-06-30_07h03.52.326,empathy_intonation_perc,2024.1.4,Win32,144.9275362,54.8192,56.333,0,0,1.0055,,56.333,57.3328,0,5,5,5,1,0,sacapuntas,1,REAL,FALSA,,,,,,,,,,,,,,,,,
,,,,,,,,,667850884c361fc66ef32b52,001,2024-06-30_07h03.52.326,empathy_intonation_perc,2024.1.4,Win32,144.9275362,57.333,58.9089,0,1,1.0627,,58.9089,59.9088,0,6,6,6,1,0,priba,0,REAL,FALSA,,,,,,,,,,,,,,,,,
,,,,,,,,,667850884c361fc66ef32b52,001,2024-06-30_07h03.52.326,empathy_intonation_perc,2024.1.4,Win32,144.9275362,59.9089,62.6096,1,0,2.1842,,62.6097,63.6094,0,7,7,7,1,0,pelasula,0,REAL,FALSA,,,,,,,,,,,,,,,,,
,,,,,,,,,667850884c361fc66ef32b52,001,2024-06-30_07h03.52.326,empathy_intonation_perc,2024.1.4,Win32,144.9275362,63.6161,65.0536,1,1,0.9275,,65.0536,66.0535,0,8,8,8,1,0,bien,1,REAL,FALSA,,,,,,,,,,,,,,,,,
,,,,,,,,,667850884c361fc66ef32b52,001,2024-06-30_07h03.52.326,empathy_intonation_perc,2024.1.4,Win32,144.9275362,66.0535,67.5808,1,1,1.0112,,67.5808,68.5808,0,9,9,9,1,0,casa,1,REAL,FALSA,,,,,,,,,,,,,,,,,
,,,,,,,,,667850884c361fc66ef32b52,001,2024-06-30_07h03.52.326,empathy_intonation_perc,2024.1.4,Win32,144.9275362,68.5933,70.2122,0,1,1.109,,70.2122,71.2122,0,10,10,10,1,0,lejo,0,REAL,FALSA,,,,,,,,,,,,,,,,,
,,,,,,,,,667850884c361fc66ef32b52,001,2024-06-30_07h03.52.326,empathy_intonation_perc,2024.1.4,Win32,144.9275362,71.2123,74.0518,0,1,2.3259,,74.0518,75.0517,0,11,11,11,1,0,pretantas,0,REAL,FALSA,,,,,,,,,,,,,,,,,
,,,,,,,,,667850884c361fc66ef32b52,001,2024-06-30_07h03.52.326,empathy_intonation_perc,2024.1.4,Win32,144.9275362,,,,,,,,,,,,,,,,,,,75.0519,78.94,,,,,,,,,,,,,,,
,,,,,,,,,667850884c361fc66ef32b52,001,2024-06-30_07h03.52.326,empathy_intonation_perc,2024.1.4,Win32,144.9275362,,,,,,,,,,,,,,59,feo,,,,,,78.9525,82.5712,0,1,3.1099,,0,0,0,58,1,non_cognate,1,REAL,FALSA
,,,,,,,,,667850884c361fc66ef32b52,001,2024-06-30_07h03.52.326,empathy_intonation_perc,2024.1.4,Win32,144.9275362,,,,,,,,,,,,,,176,gripar,,,,,,82.5781,87.7365,0,1,4.6451,,0,1,1,175,1,pseudoword,0,REAL,FALSA
,,,,,,,,,667850884c361fc66ef32b52,001,2024-06-30_07h03.52.326,empathy_intonation_perc,2024.1.4,Win32,144.9275362,,,,,,,,,,,,,,169,pitis,,,,,,87.7432,89.3406,0,1,1.0873,,0,2,2,168,1,pseudoword,0,REAL,FALSA
,,,,,,,,,667850884c361fc66ef32b52,001,2024-06-30_07h03.52.326,empathy_intonation_perc,2024.1.4,Win32,144.9275362,,,,,,,,,,,,,,117,morrá,,,,,,89.3407,90.7221,1,0,0.868,,0,3,3,116,1,pseudoword,0,REAL,FALSA
,,,,,,,,,667850884c361fc66ef32b52,001,2024-06-30_07h03.52.326,empathy_intonation_perc,2024.1.4,Win32,144.9275362,,,,,,,,,,,,,,153,golla,,,,,,90.7222,92.576,0,1,1.3391,,0,4,4,152,1,pseudoword,0,REAL,FALSA
,,,,,,,,,667850884c361fc66ef32b52,001,2024-06-30_07h03.52.326,empathy_intonation_perc,2024.1.4,Win32,144.9275362,,,,,,,,,,,,,,83,hálito,,,,,,92.5762,93.9994,1,0,0.9082,,0,5,5,82,1,non_cognate,1,REAL,FALSA
,,,,,,,,,667850884c361fc66ef32b52,001,2024-06-30_07h03.52.326,empathy_intonation_perc,2024.1.4,Win32,144.9275362,,,,,,,,,,,,,,141,virios,,,,,,93.9995,95.8115,0,1,1.2975,,0,6,6,140,1,pseudoword,0,REAL,FALSA
,,,,,,,,,667850884c361fc66ef32b52,001,2024-06-30_07h03.52.326,empathy_intonation_perc,2024.1.4,Win32,144.9275362,,,,,,,,,,,,,,66,aleta,,,,,,95.8117,97.2555,0,1,0.9305,,0,7,7,65,1,non_cognate,1,REAL,FALSA
,,,,,,,,,667850884c361fc66ef32b52,001,2024-06-30_07h03.52.326,empathy_intonation_perc,2024.1.4,Win32,144.9275362,,,,,,,,,,,,,,148,gino,,,,,,97.2556,98.6581,0,1,0.8894,,0,8,8,147,1,pseudoword,0,REAL,FALSA
,,,,,,,,,667850884c361fc66ef32b52,001,2024-06-30_07h03.52.326,empathy_intonation_perc,2024.1.4,Win32,144.9275362,,,,,,,,,,,,,,143,hurcos,,,,,,98.6582,100.5258,0,1,1.3532,,0,9,9,142,1,pseudoword,0,REAL,FALSA
,,,,,,,,,667850884c361fc66ef32b52,001,2024-06-30_07h03.52.326,empathy_intonation_perc,2024.1.4,Win32,144.9275362,,,,,,,,,,,,,,185,aljizo,,,,,,100.526,101.9979,1,0,0.959,,0,10,10,184,1,pseudoword,0,REAL,FALSA
,,,,,,,,,667850884c361fc66ef32b52,001,2024-06-30_07h03.52.326,empathy_intonation_perc,2024.1.4,Win32,144.9275362,,,,,,,,,,,,,,25,vigor,,,,,,101.9981,103.6364,1,0,1.1226,,0,11,11,24,1,two_way_cognate,1,REAL,FALSA
,,,,,,,,,667850884c361fc66ef32b52,001,2024-06-30_07h03.52.326,empathy_intonation_perc,2024.1.4,Win32,144.9275362,,,,,,,,,,,,,,76,chocar,,,,,,103.6366,105.4,0,1,1.2466,,0,12,12,75,1,non_cognate,1,REAL,FALSA
,,,,,,,,,667850884c361fc66ef32b52,001,2024-06-30_07h03.52.326,empathy_intonation_perc,2024.1.4,Win32,144.9275362,,,,,,,,,,,,,,46,mortal,,,,,,105.4001,107.3857,1,0,1.4695,,0,13,13,45,1,two_way_cognate,1,REAL,FALSA
,,,,,,,,,667850884c361fc66ef32b52,001,2024-06-30_07h03.52.326,empathy_intonation_perc,2024.1.4,Win32,144.9275362,,,,,,,,,,,,,,106,diebro,,,,,,107.3858,109.3296,0,1,1.4277,,0,14,14,105,1,pseudoword,0,REAL,FALSA
,,,,,,,,,667850884c361fc66ef32b52,001,2024-06-30_07h03.52.326,empathy_intonation_perc,2024.1.4,Win32,144.9275362,,,,,,,,,,,,,,126,tobre,,,,,,109.3299,110.8225,0,1,0.9794,,0,15,15,125,1,pseudoword,0,REAL,FALSA
,,,,,,,,,667850884c361fc66ef32b52,001,2024-06-30_07h03.52.326,empathy_intonation_perc,2024.1.4,Win32,144.9275362,,,,,,,,,,,,,,142,parre,,,,,,110.8225,112.5581,1,0,1.2193,,0,16,16,141,1,pseudoword,0,REAL,FALSA
,,,,,,,,,667850884c361fc66ef32b52,001,2024-06-30_07h03.52.326,empathy_intonation_perc,2024.1.4,Win32,144.9275362,,,,,,,,,,,,,,35,aurora,,,,,,112.5583,114.1759,0,1,1.1028,,0,17,17,34,1,two_way_cognate,1,REAL,FALSA
,,,,,,,,,667850884c361fc66ef32b52,001,2024-06-30_07h03.52.326,empathy_intonation_perc,2024.1.4,Win32,144.9275362,,,,,,,,,,,,,,42,rumor,,,,,,114.1761,115.8355,0,1,1.1422,,0,18,18,41,1,two_way_cognate,1,REAL,FALSA
,,,,,,,,,667850884c361fc66ef32b52,001,2024-06-30_07h03.52.326,empathy_intonation_perc,2024.1.4,Win32,144.9275362,,,,,,,,,,,,,,60,siglo,,,,,,115.8356,117.3004,0,1,0.9516,,0,19,19,59,1,non_cognate,1,REAL,FALSA
,,,,,,,,,667850884c361fc66ef32b52,001,2024-06-30_07h03.52.326,empathy_intonation_perc,2024.1.4,Win32,144.9275362,,,,,,,,,,,,,,111,monue,,,,,,117.3005,119.0917,0,1,1.2779,,0,20,20,110,1,pseudoword,0,REAL,FALSA
,,,,,,,,,667850884c361fc66ef32b52,001,2024-06-30_07h03.52.326,empathy_intonation_perc,2024.1.4,Win32,144.9275362,,,,,,,,,,,,,,36,viable,,,,,,119.0918,121.4245,1,0,1.8186,,0,21,21,35,1,two_way_cognate,1,REAL,FALSA
,,,,,,,,,667850884c361fc66ef32b52,001,2024-06-30_07h03.52.326,empathy_intonation_perc,2024.1.4,Win32,144.9275362,,,,,,,,,,,,,,38,halo,,,,,,121.4247,123.1048,1,0,1.1672,,0,22,22,37,1,two_way_cognate,1,REAL,FALSA
,,,,,,,,,667850884c361fc66ef32b52,001,2024-06-30_07h03.52.326,empathy_intonation_perc,2024.1.4,Win32,144.9275362,,,,,,,,,,,,,,108,jauda,,,,,,123.1049,125.1462,0,1,1.5247,,0,23,23,107,1,pseudoword,0,REAL,FALSA
,,,,,,,,,667850884c361fc66ef32b52,001,2024-06-30_07h03.52.326,empathy_intonation_perc,2024.1.4,Win32,144.9275362,,,,,,,,,,,,,,89,muñeca,,,,,,125.1463,127.6524,1,0,1.9921,,0,24,24,88,1,non_cognate,1,REAL,FALSA
,,,,,,,,,667850884c361fc66ef32b52,001,2024-06-30_07h03.52.326,empathy_intonation_perc,2024.1.4,Win32,144.9275362,,,,,,,,,,,,,,47,color,,,,,,127.6527,129.7632,1,0,1.597,,0,25,25,46,1,two_way_cognate,1,REAL,FALSA
,,,,,,,,,667850884c361fc66ef32b52,001,2024-06-30_07h03.52.326,empathy_intonation_perc,2024.1.4,Win32,144.9275362,,,,,,,,,,,,,,91,equipo,,,,,,129.7634,131.3671,1,0,1.088,,0,26,26,90,1,non_cognate,1,REAL,FALSA
,,,,,,,,,667850884c361fc66ef32b52,001,2024-06-30_07h03.52.326,empathy_intonation_perc,2024.1.4,Win32,144.9275362,,,,,,,,,,,,,,73,llevar,,,,,,131.3673,132.7557,1,0,0.8726,,0,27,27,72,1,non_cognate,1,REAL,FALSA
,,,,,,,,,667850884c361fc66ef32b52,001,2024-06-30_07h03.52.326,empathy_intonation_perc,2024.1.4,Win32,144.9275362,,,,,,,,,,,,,,184,huenos,,,,,,132.7559,134.6164,0,1,1.3475,,0,28,28,183,1,pseudoword,0,REAL,FALSA
,,,,,,,,,667850884c361fc66ef32b52,001,2024-06-30_07h03.52.326,empathy_intonation_perc,2024.1.4,Win32,144.9275362,,,,,,,,,,,,,,41,pasta,,,,,,134.6166,136.6994,0,1,1.5682,,0,29,29,40,1,two_way_cognate,1,REAL,FALSA
,,,,,,,,,667850884c361fc66ef32b52,001,2024-06-30_07h03.52.326,empathy_intonation_perc,2024.1.4,Win32,144.9275362,,,,,,,,,,,,,,168,cobén,,,,,,136.6995,138.4004,0,1,1.1874,,0,30,30,167,1,pseudoword,0,REAL,FALSA
,,,,,,,,,667850884c361fc66ef32b52,001,2024-06-30_07h03.52.326,empathy_intonation_perc,2024.1.4,Win32,144.9275362,,,,,,,,,,,,,,119,esís,,,,,,138.4006,139.6779,0,1,0.7638,,0,31,31,118,1,pseudoword,0,REAL,FALSA
,,,,,,,,,667850884c361fc66ef32b52,001,2024-06-30_07h03.52.326,empathy_intonation_perc,2024.1.4,Win32,144.9275362,,,,,,,,,,,,,,20,trauma,,,,,,139.6781,141.2679,0,1,1.077,,0,32,32,19,1,three_way_cognate,1,REAL,FALSA
,,,,,,,,,667850884c361fc66ef32b52,001,2024-06-30_07h03.52.326,empathy_intonation_perc,2024.1.4,Win32,144.9275362,,,,,,,,,,,,,,144,diroco,,,,,,141.2682,143.7883,0,1,2.0037,,0,33,33,143,1,pseudoword,0,REAL,FALSA
,,,,,,,,,667850884c361fc66ef32b52,001,2024-06-30_07h03.52.326,empathy_intonation_perc,2024.1.4,Win32,144.9275362,,,,,,,,,,,,,,29,clamor,,,,,,143.7884,145.5172,1,0,1.2157,,0,34,34,28,1,two_way_cognate,1,REAL,FALSA
,,,,,,,,,667850884c361fc66ef32b52,001,2024-06-30_07h03.52.326,empathy_intonation_perc,2024.1.4,Win32,144.9275362,,,,,,,,,,,,,,40,pelvis,,,,,,145.5173,147.6695,0,1,1.6396,,0,35,35,39,1,two_way_cognate,1,REAL,FALSA
,,,,,,,,,667850884c361fc66ef32b52,001,2024-06-30_07h03.52.326,empathy_intonation_perc,2024.1.4,Win32,144.9275362,,,,,,,,,,,,,,78,rendir,,,,,,147.6696,149.4746,0,1,1.2922,,0,36,36,77,1,non_cognate,1,REAL,FALSA
,,,,,,,,,667850884c361fc66ef32b52,001,2024-06-30_07h03.52.326,empathy_intonation_perc,2024.1.4,Win32,144.9275362,,,,,,,,,,,,,,84,aviso,,,,,,149.4748,150.7591,0,1,0.7707,,0,37,37,83,1,non_cognate,1,REAL,FALSA
,,,,,,,,,667850884c361fc66ef32b52,001,2024-06-30_07h03.52.326,empathy_intonation_perc,2024.1.4,Win32,144.9275362,,,,,,,,,,,,,,56,pico,,,,,,150.7594,152.0923,1,0,0.8187,,0,38,38,55,1,non_cognate,1,REAL,FALSA
,,,,,,,,,667850884c361fc66ef32b52,001,2024-06-30_07h03.52.326,empathy_intonation_perc,2024.1.4,Win32,144.9275362,,,,,,,,,,,,,,79,suelo,,,,,,152.0925,153.4393,1,0,0.8308,,0,39,39,78,1,non_cognate,1,REAL,FALSA
,,,,,,,,,667850884c361fc66ef32b52,001,2024-06-30_07h03.52.326,empathy_intonation_perc,2024.1.4,Win32,144.9275362,,,,,,,,,,,,,,33,collar,,,,,,153.4394,155.307,0,1,1.3518,,0,40,40,32,1,two_way_cognate,1,REAL,FALSA
,,,,,,,,,667850884c361fc66ef32b52,001,2024-06-30_07h03.52.326,empathy_intonation_perc,2024.1.4,Win32,144.9275362,,,,,,,,,,,,,,9,portal,,,,,,155.3071,156.7581,0,1,0.9346,,0,41,41,8,1,three_way_cognate,1,REAL,FALSA
,,,,,,,,,667850884c361fc66ef32b52,001,2024-06-30_07h03.52.326,empathy_intonation_perc,2024.1.4,Win32,144.9275362,,,,,,,,,,,,,,183,edioso,,,,,,156.7583,159.32,0,1,2.0489,,0,42,42,182,1,pseudoword,0,REAL,FALSA
,,,,,,,,,667850884c361fc66ef32b52,001,2024-06-30_07h03.52.326,empathy_intonation_perc,2024.1.4,Win32,144.9275362,,,,,,,,,,,,,,149,emén,,,,,,159.3202,160.7225,0,1,0.8887,,0,43,43,148,1,pseudoword,0,REAL,FALSA
,,,,,,,,,667850884c361fc66ef32b52,001,2024-06-30_07h03.52.326,empathy_intonation_perc,2024.1.4,Win32,144.9275362,,,,,,,,,,,,,,174,pabea,,,,,,160.7226,162.7222,0,1,1.4872,,0,44,44,173,1,pseudoword,0,REAL,FALSA
,,,,,,,,,667850884c361fc66ef32b52,001,2024-06-30_07h03.52.326,empathy_intonation_perc,2024.1.4,Win32,144.9275362,,,,,,,,,,,,,,15,test,,,,,,162.7224,164.2775,0,1,1.0388,,0,45,45,14,1,three_way_cognate,1,REAL,FALSA
,,,,,,,,,667850884c361fc66ef32b52,001,2024-06-30_07h03.52.326,empathy_intonation_perc,2024.1.4,Win32,144.9275362,,,,,,,,,,,,,,54,tapón,,,,,,164.2776,165.5757,0,1,0.7856,,0,46,46,53,1,non_cognate,1,REAL,FALSA
,,,,,,,,,667850884c361fc66ef32b52,001,2024-06-30_07h03.52.326,empathy_intonation_perc,2024.1.4,Win32,144.9275362,,,,,,,,,,,,,,180,pupica,,,,,,165.5759,167.1035,0,1,1.0125,,0,47,47,179,1,pseudoword,0,REAL,FALSA
,,,,,,,,,667850884c361fc66ef32b52,001,2024-06-30_07h03.52.326,empathy_intonation_perc,2024.1.4,Win32,144.9275362,,,,,,,,,,,,,,188,amplir,,,,,,167.1038,174.1573,0,1,6.5406,,0,48,48,187,1,pseudoword,0,REAL,FALSA
,,,,,,,,,667850884c361fc66ef32b52,001,2024-06-30_07h03.52.326,empathy_intonation_perc,2024.1.4,Win32,144.9275362,,,,,,,,,,,,,,12,dogma,,,,,,174.1641,176.1294,0,1,1.4553,,0,49,49,11,1,three_way_cognate,1,REAL,FALSA
,,,,,,,,,667850884c361fc66ef32b52,001,2024-06-30_07h03.52.326,empathy_intonation_perc,2024.1.4,Win32,144.9275362,,,,,,,,,,,,,,135,panté,,,,,,176.1296,181.0241,0,1,4.3819,,0,50,50,134,1,pseudoword,0,REAL,FALSA
,,,,,,,,,667850884c361fc66ef32b52,001,2024-06-30_07h03.52.326,empathy_intonation_perc,2024.1.4,Win32,144.9275362,,,,,,,,,,,,,,122,boñaz,,,,,,181.0309,182.4973,0,1,0.9578,,0,51,51,121,1,pseudoword,0,REAL,FALSA
,,,,,,,,,667850884c361fc66ef32b52,001,2024-06-30_07h03.52.326,empathy_intonation_perc,2024.1.4,Win32,144.9275362,,,,,,,,,,,,,,44,editor,,,,,,182.4975,187.5299,0,1,4.5179,,0,52,52,43,1,two_way_cognate,1,REAL,FALSA
,,,,,,,,,667850884c361fc66ef32b52,001,2024-06-30_07h03.52.326,empathy_intonation_perc,2024.1.4,Win32,144.9275362,,,,,,,,,,,,,,81,sacar,,,,,,187.538,188.9671,1,0,0.9164,,0,53,53,80,1,non_cognate,1,REAL,FALSA
,,,,,,,,,667850884c361fc66ef32b52,001,2024-06-30_07h03.52.326,empathy_intonation_perc,2024.1.4,Win32,144.9275362,,,,,,,,,,,,,,34,actor,,,,,,188.9672,190.5848,1,0,1.1042,,0,54,54,33,1,two_way_cognate,1,REAL,FALSA
,,,,,,,,,667850884c361fc66ef32b52,001,2024-06-30_07h03.52.326,empathy_intonation_perc,2024.1.4,Win32,144.9275362,,,,,,,,,,,,,,140,chorde,,,,,,190.5849,192.4108,0,1,1.3128,,0,55,55,139,1,pseudoword,0,REAL,FALSA
,,,,,,,,,667850884c361fc66ef32b52,001,2024-06-30_07h03.52.326,empathy_intonation_perc,2024.1.4,Win32,144.9275362,,,,,,,,,,,,,,43,honor,,,,,,192.4109,193.737,0,1,0.8113,,0,56,56,42,1,two_way_cognate,1,REAL,FALSA
,,,,,,,,,667850884c361fc66ef32b52,001,2024-06-30_07h03.52.326,empathy_intonation_perc,2024.1.4,Win32,144.9275362,,,,,,,,,,,,,,139,sasos,,,,,,193.7371,195.3894,0,1,1.1377,,0,57,57,138,1,pseudoword,0,REAL,FALSA
,,,,,,,,,667850884c361fc66ef32b52,001,2024-06-30_07h03.52.326,empathy_intonation_perc,2024.1.4,Win32,144.9275362,,,,,,,,,,,,,,96,caro,,,,,,195.3896,197.0072,0,1,1.1047,,0,58,58,95,1,non_cognate,1,REAL,FALSA
,,,,,,,,,667850884c361fc66ef32b52,001,2024-06-30_07h03.52.326,empathy_intonation_perc,2024.1.4,Win32,144.9275362,,,,,,,,,,,,,,163,olzan,,,,,,197.0074,198.5556,0,1,1.0319,,0,59,59,162,1,pseudoword,0,REAL,FALSA
,,,,,,,,,667850884c361fc66ef32b52,001,2024-06-30_07h03.52.326,empathy_intonation_perc,2024.1.4,Win32,144.9275362,,,,,,,,,,,,,,4,flora,,,,,,198.5557,200.0204,1,0,0.9513,,0,60,60,3,1,three_way_cognate,1,REAL,FALSA
,,,,,,,,,667850884c361fc66ef32b52,001,2024-06-30_07h03.52.326,empathy_intonation_perc,2024.1.4,Win32,144.9275362,,,,,,,,,,,,,,166,anfia,,,,,,200.0206,201.9298,0,1,1.3959,,0,61,61,165,1,pseudoword,0,REAL,FALSA
,,,,,,,,,667850884c361fc66ef32b52,001,2024-06-30_07h03.52.326,empathy_intonation_perc,2024.1.4,Win32,144.9275362,,,,,,,,,,,,,,85,enorme,,,,,,201.93,203.9155,1,0,1.4727,,0,62,62,84,1,non_cognate,1,REAL,FALSA
,,,,,,,,,667850884c361fc66ef32b52,001,2024-06-30_07h03.52.326,empathy_intonation_perc,2024.1.4,Win32,144.9275362,,,,,,,,,,,,,,31,civil,,,,,,203.9157,205.8666,1,0,1.4361,,0,63,63,30,1,two_way_cognate,1,REAL,FALSA
,,,,,,,,,667850884c361fc66ef32b52,001,2024-06-30_07h03.52.326,empathy_intonation_perc,2024.1.4,Win32,144.9275362,,,,,,,,,,,,,,61,aduana,,,,,,205.8667,207.4634,0,1,1.0831,,0,64,64,60,1,non_cognate,1,REAL,FALSA
,,,,,,,,,667850884c361fc66ef32b52,001,2024-06-30_07h03.52.326,empathy_intonation_perc,2024.1.4,Win32,144.9275362,,,,,,,,,,,,,,124,lobe,,,,,,207.4636,208.8938,0,1,0.9135,,0,65,65,123,1,pseudoword,0,REAL,FALSA
,,,,,,,,,667850884c361fc66ef32b52,001,2024-06-30_07h03.52.326,empathy_intonation_perc,2024.1.4,Win32,144.9275362,,,,,,,,,,,,,,134,molor,,,,,,208.894,210.4351,0,1,1.0271,,0,66,66,133,1,pseudoword,0,REAL,FALSA
,,,,,,,,,667850884c361fc66ef32b52,001,2024-06-30_07h03.52.326,empathy_intonation_perc,2024.1.4,Win32,144.9275362,,,,,,,,,,,,,,94,forro,,,,,,210.4353,211.6154,0,1,0.6672,,0,67,67,93,1,non_cognate,1,REAL,FALSA
,,,,,,,,,667850884c361fc66ef32b52,001,2024-06-30_07h03.52.326,empathy_intonation_perc,2024.1.4,Win32,144.9275362,,,,,,,,,,,,,,87,muleta,,,,,,211.6156,227.7443,0,1,15.6156,,0,68,68,86,1,non_cognate,1,REAL,FALSA
,,,,,,,,,667850884c361fc66ef32b52,001,2024-06-30_07h03.52.326,empathy_intonation_perc,2024.1.4,Win32,144.9275362,,,,,,,,,,,,,,48,pelvis,,,,,,227.7514,229.0704,0,1,0.8059,,0,69,69,47,1,two_way_cognate,1,REAL,FALSA
,,,,,,,,,667850884c361fc66ef32b52,001,2024-06-30_07h03.52.326,empathy_intonation_perc,2024.1.4,Win32,144.9275362,,,,,,,,,,,,,,159,trcia,,,,,,229.0705,230.334,0,1,0.7504,,0,70,70,158,1,pseudoword,0,REAL,FALSA
,,,,,,,,,667850884c361fc66ef32b52,001,2024-06-30_07h03.52.326,empathy_intonation_perc,2024.1.4,Win32,144.9275362,,,,,,,,,,,,,,68,puñal,,,,,,230.3342,231.8061,0,1,0.9578,,0,71,71,67,1,non_cognate,1,REAL,FALSA
,,,,,,,,,667850884c361fc66ef32b52,001,2024-06-30_07h03.52.326,empathy_intonation_perc,2024.1.4,Win32,144.9275362,,,,,,,,,,,,,,152,prave,,,,,,231.8062,233.1252,0,1,0.8037,,0,72,72,151,1,pseudoword,0,REAL,FALSA
,,,,,,,,,667850884c361fc66ef32b52,001,2024-06-30_07h03.52.326,empathy_intonation_perc,2024.1.4,Win32,144.9275362,,,,,,,,,,,,,,102,coyo,,,,,,233.1254,237.2909,0,1,3.6507,,0,73,73,101,1,pseudoword,0,REAL,FALSA
,,,,,,,,,667850884c361fc66ef32b52,001,2024-06-30_07h03.52.326,empathy_intonation_perc,2024.1.4,Win32,144.9275362,,,,,,,,,,,,,,6,horror,,,,,,237.2977,238.7144,0,1,0.9095,,0,74,74,5,1,three_way_cognate,1,REAL,FALSA
,,,,,,,,,667850884c361fc66ef32b52,001,2024-06-30_07h03.52.326,empathy_intonation_perc,2024.1.4,Win32,144.9275362,,,,,,,,,,,,,,191,frasis,,,,,,238.7145,240.1656,0,1,0.9351,,0,75,75,190,1,pseudoword,0,REAL,FALSA
,,,,,,,,,667850884c361fc66ef32b52,001,2024-06-30_07h03.52.326,empathy_intonation_perc,2024.1.4,Win32,144.9275362,,,,,,,,,,,,,,23,plural,,,,,,240.1658,241.818,0,1,1.1371,,0,76,76,22,1,three_way_cognate,1,REAL,FALSA
,,,,,,,,,667850884c361fc66ef32b52,001,2024-06-30_07h03.52.326,empathy_intonation_perc,2024.1.4,Win32,144.9275362,,,,,,,,,,,,,,182,desaro,,,,,,241.8181,243.4149,1,0,1.0825,,0,77,77,181,1,pseudoword,0,REAL,FALSA
,,,,,,,,,667850884c361fc66ef32b52,001,2024-06-30_07h03.52.326,empathy_intonation_perc,2024.1.4,Win32,144.9275362,,,,,,,,,,,,,,30,fiscal,,,,,,243.4151,244.984,0,1,1.0544,,0,78,78,29,1,two_way_cognate,1,REAL,FALSA
,,,,,,,,,667850884c361fc66ef32b52,001,2024-06-30_07h03.52.326,empathy_intonation_perc,2024.1.4,Win32,144.9275362,,,,,,,,,,,,,,53,punta,,,,,,244.9842,246.4073,1,0,0.9071,,0,79,79,52,1,non_cognate,1,REAL,FALSA
,,,,,,,,,667850884c361fc66ef32b52,001,2024-06-30_07h03.52.326,empathy_intonation_perc,2024.1.4,Win32,144.9275362,,,,,,,,,,,,,,67,llamar,,,,,,246.4074,247.8168,1,0,0.8933,,0,80,80,66,1,non_cognate,1,REAL,FALSA
,,,,,,,,,667850884c361fc66ef32b52,001,2024-06-30_07h03.52.326,empathy_intonation_perc,2024.1.4,Win32,144.9275362,,,,,,,,,,,,,,77,suave,,,,,,247.817,249.2262,1,0,0.8962,,0,81,81,76,1,non_cognate,1,REAL,FALSA
,,,,,,,,,667850884c361fc66ef32b52,001,2024-06-30_07h03.52.326,empathy_intonation_perc,2024.1.4,Win32,144.9275362,,,,,,,,,,,,,,3,disco,,,,,,249.2264,250.8788,1,0,1.1356,,0,82,82,2,1,three_way_cognate,1,REAL,FALSA
,,,,,,,,,667850884c361fc66ef32b52,001,2024-06-30_07h03.52.326,empathy_intonation_perc,2024.1.4,Win32,144.9275362,,,,,,,,,,,,,,32,animal,,,,,,250.8789,255.3501,0,1,3.9576,,0,83,83,31,1,two_way_cognate,1,REAL,FALSA
,,,,,,,,,667850884c361fc66ef32b52,001,2024-06-30_07h03.52.326,empathy_intonation_perc,2024.1.4,Win32,144.9275362,,,,,,,,,,,,,,178,inichó,,,,,,255.3566,257.6899,0,1,1.8245,,0,84,84,177,1,pseudoword,0,REAL,FALSA
,,,,,,,,,667850884c361fc66ef32b52,001,2024-06-30_07h03.52.326,empathy_intonation_perc,2024.1.4,Win32,144.9275362,,,,,,,,,,,,,,101,losco,,,,,,257.6901,259.134,0,1,0.9306,,0,85,85,100,1,pseudoword,0,REAL,FALSA
,,,,,,,,,667850884c361fc66ef32b52,001,2024-06-30_07h03.52.326,empathy_intonation_perc,2024.1.4,Win32,144.9275362,,,,,,,,,,,,,,103,vueras,,,,,,259.1341,260.8351,0,1,1.1868,,0,86,86,102,1,pseudoword,0,REAL,FALSA
,,,,,,,,,667850884c361fc66ef32b52,001,2024-06-30_07h03.52.326,empathy_intonation_perc,2024.1.4,Win32,144.9275362,,,,,,,,,,,,,,98,martir,,,,,,260.8353,267.2158,0,1,5.8673,,0,87,87,97,1,pseudoword,0,REAL,FALSA
,,,,,,,,,667850884c361fc66ef32b52,001,2024-06-30_07h03.52.326,empathy_intonation_perc,2024.1.4,Win32,144.9275362,,,,,,,,,,,,,,65,guerra,,,,,,267.2223,269.9654,0,1,2.2325,,0,88,88,64,1,non_cognate,1,REAL,FALSA
,,,,,,,,,667850884c361fc66ef32b52,001,2024-06-30_07h03.52.326,empathy_intonation_perc,2024.1.4,Win32,144.9275362,,,,,,,,,,,,,,5,extra,,,,,,269.9725,276.2627,0,1,5.7752,,0,89,89,4,1,three_way_cognate,1,REAL,FALSA
,,,,,,,,,667850884c361fc66ef32b52,001,2024-06-30_07h03.52.326,empathy_intonation_perc,2024.1.4,Win32,144.9275362,,,,,,,,,,,,,,192,próces,,,,,,276.2693,278.0123,0,1,1.2357,,0,90,90,191,1,pseudoword,0,REAL,FALSA
,,,,,,,,,667850884c361fc66ef32b52,001,2024-06-30_07h03.52.326,empathy_intonation_perc,2024.1.4,Win32,144.9275362,,,,,,,,,,,,,,123,arane,,,,,,278.0125,280.4841,0,1,1.9585,,0,91,91,122,1,pseudoword,0,REAL,FALSA
,,,,,,,,,667850884c361fc66ef32b52,001,2024-06-30_07h03.52.326,empathy_intonation_perc,2024.1.4,Win32,144.9275362,,,,,,,,,,,,,,173,mibro,,,,,,280.4842,284.5945,0,1,3.5938,,0,92,92,172,1,pseudoword,0,REAL,FALSA
,,,,,,,,,667850884c361fc66ef32b52,001,2024-06-30_07h03.52.326,empathy_intonation_perc,2024.1.4,Win32,144.9275362,,,,,,,,,,,,,,99,bugor,,,,,,284.6011,285.976,0,1,0.8678,,0,93,93,98,1,pseudoword,0,REAL,FALSA
,,,,,,,,,667850884c361fc66ef32b52,001,2024-06-30_07h03.52.326,empathy_intonation_perc,2024.1.4,Win32,144.9275362,,,,,,,,,,,,,,116,grigir,,,,,,285.9761,293.787,0,1,7.2982,,0,94,94,115,1,pseudoword,0,REAL,FALSA
,,,,,,,,,667850884c361fc66ef32b52,001,2024-06-30_07h03.52.326,empathy_intonation_perc,2024.1.4,Win32,144.9275362,,,,,,,,,,,,,,21,hotel,,,,,,293.7936,295.8699,0,1,1.5685,,0,95,95,20,1,three_way_cognate,1,REAL,FALSA
,,,,,,,,,667850884c361fc66ef32b52,001,2024-06-30_07h03.52.326,empathy_intonation_perc,2024.1.4,Win32,144.9275362,,,,,,,,,,,,,,164,tecia,,,,,,295.8766,297.5642,0,1,1.1787,,0,96,96,163,1,pseudoword,0,REAL,FALSA
,,,,,,,,,667850884c361fc66ef32b52,001,2024-06-30_07h03.52.326,empathy_intonation_perc,2024.1.4,Win32,144.9275362,,,,,,,,,,,,,,145,rúo,,,,,,297.5643,298.8417,0,1,0.7611,,0,97,97,144,1,pseudoword,0,REAL,FALSA
,,,,,,,,,667850884c361fc66ef32b52,001,2024-06-30_07h03.52.326,empathy_intonation_perc,2024.1.4,Win32,144.9275362,,,,,,,,,,,,,,49,teñir,,,,,,298.8419,300.39,1,0,1.0322,,0,98,98,48,1,non_cognate,1,REAL,FALSA
,,,,,,,,,667850884c361fc66ef32b52,001,2024-06-30_07h03.52.326,empathy_intonation_perc,2024.1.4,Win32,144.9275362,,,,,,,,,,,,,,158,babrá,,,,,,300.3902,302.0077,1,0,1.1012,,0,99,99,157,1,pseudoword,0,REAL,FALSA
,,,,,,,,,667850884c361fc66ef32b52,001,2024-06-30_07h03.52.326,empathy_intonation_perc,2024.1.4,Win32,144.9275362,,,,,,,,,,,,,,86,cuenco,,,,,,302.0079,303.7157,0,1,1.1925,,0,100,100,85,1,non_cognate,1,REAL,FALSA
,,,,,,,,,667850884c361fc66ef32b52,001,2024-06-30_07h03.52.326,empathy_intonation_perc,2024.1.4,Win32,144.9275362,,,,,,,,,,,,,,132,nocó,,,,,,303.7159,304.9377,0,1,0.7053,,0,101,101,131,1,pseudoword,0,REAL,FALSA
,,,,,,,,,667850884c361fc66ef32b52,001,2024-06-30_07h03.52.326,empathy_intonation_perc,2024.1.4,Win32,144.9275362,,,,,,,,,,,,,,177,entodo,,,,,,304.9378,306.9998,0,1,1.5482,,0,102,102,176,1,pseudoword,0,REAL,FALSA
,,,,,,,,,667850884c361fc66ef32b52,001,2024-06-30_07h03.52.326,empathy_intonation_perc,2024.1.4,Win32,144.9275362,,,,,,,,,,,,,,107,plago,,,,,,306.9999,308.4023,0,1,0.8876,,0,103,103,106,1,pseudoword,0,REAL,FALSA
,,,,,,,,,667850884c361fc66ef32b52,001,2024-06-30_07h03.52.326,empathy_intonation_perc,2024.1.4,Win32,144.9275362,,,,,,,,,,,,,,19,mafia,,,,,,308.4024,309.9921,0,1,1.0772,,0,104,104,18,1,three_way_cognate,1,REAL,FALSA
,,,,,,,,,667850884c361fc66ef32b52,001,2024-06-30_07h03.52.326,empathy_intonation_perc,2024.1.4,Win32,144.9275362,,,,,,,,,,,,,,127,vien,,,,,,309.9922,311.5128,1,0,1.0139,,0,105,105,126,1,pseudoword,0,REAL,FALSA
,,,,,,,,,667850884c361fc66ef32b52,001,2024-06-30_07h03.52.326,empathy_intonation_perc,2024.1.4,Win32,144.9275362,,,,,,,,,,,,,,37,torso,,,,,,311.5129,312.8737,0,1,0.8464,,0,106,106,36,1,two_way_cognate,1,REAL,FALSA
,,,,,,,,,667850884c361fc66ef32b52,001,2024-06-30_07h03.52.326,empathy_intonation_perc,2024.1.4,Win32,144.9275362,,,,,,,,,,,,,,118,bará,,,,,,312.8739,314.9774,1,0,1.5878,,0,107,107,117,1,pseudoword,0,REAL,FALSA
,,,,,,,,,667850884c361fc66ef32b52,001,2024-06-30_07h03.52.326,empathy_intonation_perc,2024.1.4,Win32,144.9275362,,,,,,,,,,,,,,161,civas,,,,,,314.9776,317.227,0,1,1.7326,,0,108,108,160,1,pseudoword,0,REAL,FALSA
,,,,,,,,,667850884c361fc66ef32b52,001,2024-06-30_07h03.52.326,empathy_intonation_perc,2024.1.4,Win32,144.9275362,,,,,,,,,,,,,,146,gió,,,,,,317.2272,318.4769,0,1,0.737,,0,109,109,145,1,pseudoword,0,REAL,FALSA
,,,,,,,,,667850884c361fc66ef32b52,001,2024-06-30_07h03.52.326,empathy_intonation_perc,2024.1.4,Win32,144.9275362,,,,,,,,,,,,,,167,dobbo,,,,,,318.4771,319.9418,0,1,0.9493,,0,110,110,166,1,pseudoword,0,REAL,FALSA
,,,,,,,,,667850884c361fc66ef32b52,001,2024-06-30_07h03.52.326,empathy_intonation_perc,2024.1.4,Win32,144.9275362,,,,,,,,,,,,,,14,aura,,,,,,319.942,321.3027,0,1,0.8443,,0,111,111,13,1,three_way_cognate,1,REAL,FALSA
,,,,,,,,,667850884c361fc66ef32b52,001,2024-06-30_07h03.52.326,empathy_intonation_perc,2024.1.4,Win32,144.9275362,,,,,,,,,,,,,,133,conso,,,,,,321.3029,322.8302,0,1,1.0125,,0,112,112,132,1,pseudoword,0,REAL,FALSA
,,,,,,,,,667850884c361fc66ef32b52,001,2024-06-30_07h03.52.326,empathy_intonation_perc,2024.1.4,Win32,144.9275362,,,,,,,,,,,,,,128,pelí,,,,,,322.8303,325.6837,0,1,2.3403,,0,113,113,127,1,pseudoword,0,REAL,FALSA
,,,,,,,,,667850884c361fc66ef32b52,001,2024-06-30_07h03.52.326,empathy_intonation_perc,2024.1.4,Win32,144.9275362,,,,,,,,,,,,,,90,venado,,,,,,325.6838,327.7528,0,1,1.5544,,0,114,114,89,1,non_cognate,1,REAL,FALSA
,,,,,,,,,667850884c361fc66ef32b52,001,2024-06-30_07h03.52.326,empathy_intonation_perc,2024.1.4,Win32,144.9275362,,,,,,,,,,,,,,157,seled,,,,,,327.7529,329.2455,0,1,0.9783,,0,115,115,156,1,pseudoword,0,REAL,FALSA
,,,,,,,,,667850884c361fc66ef32b52,001,2024-06-30_07h03.52.326,empathy_intonation_perc,2024.1.4,Win32,144.9275362,,,,,,,,,,,,,,97,nocita,,,,,,329.2457,330.6827,0,1,0.9247,,0,116,116,96,1,pseudoword,0,REAL,FALSA
,,,,,,,,,667850884c361fc66ef32b52,001,2024-06-30_07h03.52.326,empathy_intonation_perc,2024.1.4,Win32,144.9275362,,,,,,,,,,,,,,71,torta,,,,,,330.6829,332.0504,1,0,0.8548,,0,117,117,70,1,non_cognate,1,REAL,FALSA
,,,,,,,,,667850884c361fc66ef32b52,001,2024-06-30_07h03.52.326,empathy_intonation_perc,2024.1.4,Win32,144.9275362,,,,,,,,,,,,,,63,hilo,,,,,,332.0506,333.3489,1,0,0.784,,0,118,118,62,1,non_cognate,1,REAL,FALSA
,,,,,,,,,667850884c361fc66ef32b52,001,2024-06-30_07h03.52.326,empathy_intonation_perc,2024.1.4,Win32,144.9275362,,,,,,,,,,,,,,2,tumor,,,,,,333.349,334.7652,0,1,0.9024,,0,119,119,1,1,three_way_cognate,1,REAL,FALSA
,,,,,,,,,667850884c361fc66ef32b52,001,2024-06-30_07h03.52.326,empathy_intonation_perc,2024.1.4,Win32,144.9275362,,,,,,,,,,,,,,8,kilo,,,,,,334.7653,337.2926,0,1,2.0121,,0,120,120,7,1,three_way_cognate,1,REAL,FALSA
,,,,,,,,,667850884c361fc66ef32b52,001,2024-06-30_07h03.52.326,empathy_intonation_perc,2024.1.4,Win32,144.9275362,,,,,,,,,,,,,,147,alla,,,,,,337.2928,338.9519,0,1,1.1439,,0,121,121,146,1,pseudoword,0,REAL,FALSA
,,,,,,,,,667850884c361fc66ef32b52,001,2024-06-30_07h03.52.326,empathy_intonation_perc,2024.1.4,Win32,144.9275362,,,,,,,,,,,,,,39,casual,,,,,,338.9521,340.3336,0,1,0.8656,,0,122,122,38,1,two_way_cognate,1,REAL,FALSA
,,,,,,,,,667850884c361fc66ef32b52,001,2024-06-30_07h03.52.326,empathy_intonation_perc,2024.1.4,Win32,144.9275362,,,,,,,,,,,,,,93,tapa,,,,,,340.3338,341.993,1,0,1.1461,,0,123,123,92,1,non_cognate,1,REAL,FALSA
,,,,,,,,,667850884c361fc66ef32b52,001,2024-06-30_07h03.52.326,empathy_intonation_perc,2024.1.4,Win32,144.9275362,,,,,,,,,,,,,,109,laras,,,,,,341.9931,343.7982,1,0,1.2916,,0,124,124,108,1,pseudoword,0,REAL,FALSA
,,,,,,,,,667850884c361fc66ef32b52,001,2024-06-30_07h03.52.326,empathy_intonation_perc,2024.1.4,Win32,144.9275362,,,,,,,,,,,,,,7,albino,,,,,,343.7984,345.5062,0,1,1.1947,,0,125,125,6,1,three_way_cognate,1,REAL,FALSA
,,,,,,,,,667850884c361fc66ef32b52,001,2024-06-30_07h03.52.326,empathy_intonation_perc,2024.1.4,Win32,144.9275362,,,,,,,,,,,,,,74,ala,,,,,,345.5063,347.1102,1,0,1.0888,,0,126,126,73,1,non_cognate,1,REAL,FALSA
,,,,,,,,,667850884c361fc66ef32b52,001,2024-06-30_07h03.52.326,empathy_intonation_perc,2024.1.4,Win32,144.9275362,,,,,,,,,,,,,,115,lidena,,,,,,347.1103,349.054,0,1,1.4306,,0,127,127,114,1,pseudoword,0,REAL,FALSA
,,,,,,,,,667850884c361fc66ef32b52,001,2024-06-30_07h03.52.326,empathy_intonation_perc,2024.1.4,Win32,144.9275362,,,,,,,,,,,,,,130,dubo,,,,,,349.0542,350.3249,0,1,0.7614,,0,128,128,129,1,pseudoword,0,REAL,FALSA
,,,,,,,,,667850884c361fc66ef32b52,001,2024-06-30_07h03.52.326,empathy_intonation_perc,2024.1.4,Win32,144.9275362,,,,,,,,,,,,,,181,gravés,,,,,,350.325,351.4912,0,1,0.6529,,0,129,129,180,1,pseudoword,0,REAL,FALSA
,,,,,,,,,667850884c361fc66ef32b52,001,2024-06-30_07h03.52.326,empathy_intonation_perc,2024.1.4,Win32,144.9275362,,,,,,,,,,,,,,24,retina,,,,,,351.4913,353.4838,0,1,1.4794,,0,130,130,23,1,three_way_cognate,1,REAL,FALSA
,,,,,,,,,667850884c361fc66ef32b52,001,2024-06-30_07h03.52.326,empathy_intonation_perc,2024.1.4,Win32,144.9275362,,,,,,,,,,,,,,156,ozoso,,,,,,353.4841,355.4766,1,0,1.4764,,0,131,131,155,1,pseudoword,0,REAL,FALSA
,,,,,,,,,667850884c361fc66ef32b52,001,2024-06-30_07h03.52.326,empathy_intonation_perc,2024.1.4,Win32,144.9275362,,,,,,,,,,,,,,179,suelet,,,,,,355.4768,358.3926,1,0,2.403,,0,132,132,178,1,pseudoword,0,REAL,FALSA
,,,,,,,,,667850884c361fc66ef32b52,001,2024-06-30_07h03.52.326,empathy_intonation_perc,2024.1.4,Win32,144.9275362,,,,,,,,,,,,,,113,nasce,,,,,,358.3993,359.83,0,1,0.9206,,0,133,133,112,1,pseudoword,0,REAL,FALSA
,,,,,,,,,667850884c361fc66ef32b52,001,2024-06-30_07h03.52.326,empathy_intonation_perc,2024.1.4,Win32,144.9275362,,,,,,,,,,,,,,110,densó,,,,,,359.8301,361.2394,0,1,0.8943,,0,134,134,109,1,pseudoword,0,REAL,FALSA
,,,,,,,,,667850884c361fc66ef32b52,001,2024-06-30_07h03.52.326,empathy_intonation_perc,2024.1.4,Win32,144.9275362,,,,,,,,,,,,,,186,rizate,,,,,,361.2395,365.19,0,1,3.4359,,0,135,135,185,1,pseudoword,0,REAL,FALSA
,,,,,,,,,667850884c361fc66ef32b52,001,2024-06-30_07h03.52.326,empathy_intonation_perc,2024.1.4,Win32,144.9275362,,,,,,,,,,,,,,189,medium,,,,,,365.1969,373.6466,0,1,7.933,,0,136,136,188,1,pseudoword,0,REAL,FALSA
,,,,,,,,,667850884c361fc66ef32b52,001,2024-06-30_07h03.52.326,empathy_intonation_perc,2024.1.4,Win32,144.9275362,,,,,,,,,,,,,,27,piano,,,,,,373.6537,375.1949,0,1,1.0247,,0,137,137,26,1,two_way_cognate,1,REAL,FALSA
,,,,,,,,,667850884c361fc66ef32b52,001,2024-06-30_07h03.52.326,empathy_intonation_perc,2024.1.4,Win32,144.9275362,,,,,,,,,,,,,,50,sierra,,,,,,375.1951,376.5488,1,0,0.8396,,0,138,138,49,1,non_cognate,1,REAL,FALSA
,,,,,,,,,667850884c361fc66ef32b52,001,2024-06-30_07h03.52.326,empathy_intonation_perc,2024.1.4,Win32,144.9275362,,,,,,,,,,,,,,18,altar,,,,,,376.5491,378.0764,1,0,1.0134,,0,139,139,17,1,three_way_cognate,1,REAL,FALSA
,,,,,,,,,667850884c361fc66ef32b52,001,2024-06-30_07h03.52.326,empathy_intonation_perc,2024.1.4,Win32,144.9275362,,,,,,,,,,,,,,162,cengo,,,,,,378.0765,379.4719,0,1,0.8819,,0,140,140,161,1,pseudoword,0,REAL,FALSA
,,,,,,,,,667850884c361fc66ef32b52,001,2024-06-30_07h03.52.326,empathy_intonation_perc,2024.1.4,Win32,144.9275362,,,,,,,,,,,,,,131,fuar,,,,,,379.4721,380.7287,0,1,0.7405,,0,141,141,130,1,pseudoword,0,REAL,FALSA
,,,,,,,,,667850884c361fc66ef32b52,001,2024-06-30_07h03.52.326,empathy_intonation_perc,2024.1.4,Win32,144.9275362,,,,,,,,,,,,,,104,estulo,,,,,,380.7289,382.2282,0,1,0.9874,,0,142,142,103,1,pseudoword,0,REAL,FALSA
,,,,,,,,,667850884c361fc66ef32b52,001,2024-06-30_07h03.52.326,empathy_intonation_perc,2024.1.4,Win32,144.9275362,,,,,,,,,,,,,,80,cuenco,,,,,,382.2284,383.7906,1,0,1.0455,,0,143,143,79,1,non_cognate,1,REAL,FALSA
,,,,,,,,,667850884c361fc66ef32b52,001,2024-06-30_07h03.52.326,empathy_intonation_perc,2024.1.4,Win32,144.9275362,,,,,,,,,,,,,,187,nomata,,,,,,383.7907,386.179,0,1,1.8737,,0,144,144,186,1,pseudoword,0,REAL,FALSA
,,,,,,,,,667850884c361fc66ef32b52,001,2024-06-30_07h03.52.326,empathy_intonation_perc,2024.1.4,Win32,144.9275362,,,,,,,,,,,,,,160,fomeó,,,,,,386.1791,388.0536,0,1,1.3591,,0,145,145,159,1,pseudoword,0,REAL,FALSA
,,,,,,,,,667850884c361fc66ef32b52,001,2024-06-30_07h03.52.326,empathy_intonation_perc,2024.1.4,Win32,144.9275362,,,,,,,,,,,,,,172,dogue,,,,,,388.0537,399.3986,0,1,10.8313,,0,146,146,171,1,pseudoword,0,REAL,FALSA
,,,,,,,,,667850884c361fc66ef32b52,001,2024-06-30_07h03.52.326,empathy_intonation_perc,2024.1.4,Win32,144.9275362,,,,,,,,,,,,,,95,listo,,,,,,399.4058,400.4609,0,1,0.5414,,0,147,147,94,1,non_cognate,1,REAL,FALSA
,,,,,,,,,667850884c361fc66ef32b52,001,2024-06-30_07h03.52.326,empathy_intonation_perc,2024.1.4,Win32,144.9275362,,,,,,,,,,,,,,69,tiza,,,,,,400.4609,401.7523,0,1,0.7817,,0,148,148,68,1,non_cognate,1,REAL,FALSA
,,,,,,,,,667850884c361fc66ef32b52,001,2024-06-30_07h03.52.326,empathy_intonation_perc,2024.1.4,Win32,144.9275362,,,,,,,,,,,,,,150,cricó,,,,,,401.7525,403.4672,0,1,1.2017,,0,149,149,149,1,pseudoword,0,REAL,FALSA
,,,,,,,,,667850884c361fc66ef32b52,001,2024-06-30_07h03.52.326,empathy_intonation_perc,2024.1.4,Win32,144.9275362,,,,,,,,,,,,,,1,moral,,,,,,403.4674,405.4947,0,1,1.512,,0,150,150,0,1,three_way_cognate,1,REAL,FALSA
,,,,,,,,,667850884c361fc66ef32b52,001,2024-06-30_07h03.52.326,empathy_intonation_perc,2024.1.4,Win32,144.9275362,,,,,,,,,,,,,,138,tator,,,,,,405.4949,407.1819,0,1,1.1724,,0,151,151,137,1,pseudoword,0,REAL,FALSA
,,,,,,,,,667850884c361fc66ef32b52,001,2024-06-30_07h03.52.326,empathy_intonation_perc,2024.1.4,Win32,144.9275362,,,,,,,,,,,,,,64,rizado,,,,,,407.1821,408.5912,0,1,0.8961,,0,152,152,63,1,non_cognate,1,REAL,FALSA
,,,,,,,,,667850884c361fc66ef32b52,001,2024-06-30_07h03.52.326,empathy_intonation_perc,2024.1.4,Win32,144.9275362,,,,,,,,,,,,,,28,ardor,,,,,,408.5914,410.4381,1,0,1.3336,,0,153,153,27,1,two_way_cognate,1,REAL,FALSA
,,,,,,,,,667850884c361fc66ef32b52,001,2024-06-30_07h03.52.326,empathy_intonation_perc,2024.1.4,Win32,144.9275362,,,,,,,,,,,,,,92,flecha,,,,,,410.4383,412.0421,1,0,1.0913,,0,154,154,91,1,non_cognate,1,REAL,FALSA
,,,,,,,,,667850884c361fc66ef32b52,001,2024-06-30_07h03.52.326,empathy_intonation_perc,2024.1.4,Win32,144.9275362,,,,,,,,,,,,,,51,listo,,,,,,412.0423,413.8957,0,1,1.3404,,0,155,155,50,1,non_cognate,1,REAL,FALSA
,,,,,,,,,667850884c361fc66ef32b52,001,2024-06-30_07h03.52.326,empathy_intonation_perc,2024.1.4,Win32,144.9275362,,,,,,,,,,,,,,11,golf,,,,,,413.896,415.0901,0,1,0.6799,,0,156,156,10,1,three_way_cognate,1,REAL,FALSA
,,,,,,,,,667850884c361fc66ef32b52,001,2024-06-30_07h03.52.326,empathy_intonation_perc,2024.1.4,Win32,144.9275362,,,,,,,,,,,,,,100,épinas,,,,,,415.0902,416.555,0,1,0.9486,,0,157,157,99,1,pseudoword,0,REAL,FALSA
,,,,,,,,,667850884c361fc66ef32b52,001,2024-06-30_07h03.52.326,empathy_intonation_perc,2024.1.4,Win32,144.9275362,,,,,,,,,,,,,,120,mauja,,,,,,416.5552,417.9575,0,1,0.8881,,0,158,158,119,1,pseudoword,0,REAL,FALSA
,,,,,,,,,667850884c361fc66ef32b52,001,2024-06-30_07h03.52.326,empathy_intonation_perc,2024.1.4,Win32,144.9275362,,,,,,,,,,,,,,121,barbs,,,,,,417.9577,419.4157,0,1,0.9431,,0,159,159,120,1,pseudoword,0,REAL,FALSA
,,,,,,,,,667850884c361fc66ef32b52,001,2024-06-30_07h03.52.326,empathy_intonation_perc,2024.1.4,Win32,144.9275362,,,,,,,,,,,,,,52,blando,,,,,,419.4158,421.3388,1,0,1.4065,,0,160,160,51,1,non_cognate,1,REAL,FALSA
,,,,,,,,,667850884c361fc66ef32b52,001,2024-06-30_07h03.52.326,empathy_intonation_perc,2024.1.4,Win32,144.9275362,,,,,,,,,,,,,,82,brillo,,,,,,421.339,422.9496,1,0,1.0972,,0,161,161,81,1,non_cognate,1,REAL,FALSA
,,,,,,,,,667850884c361fc66ef32b52,001,2024-06-30_07h03.52.326,empathy_intonation_perc,2024.1.4,Win32,144.9275362,,,,,,,,,,,,,,10,drama,,,,,,422.9498,424.4563,0,1,0.9902,,0,162,162,9,1,three_way_cognate,1,REAL,FALSA
,,,,,,,,,667850884c361fc66ef32b52,001,2024-06-30_07h03.52.326,empathy_intonation_perc,2024.1.4,Win32,144.9275362,,,,,,,,,,,,,,154,harvé,,,,,,424.4565,426.4837,0,1,1.513,,0,163,163,153,1,pseudoword,0,REAL,FALSA
,,,,,,,,,667850884c361fc66ef32b52,001,2024-06-30_07h03.52.326,empathy_intonation_perc,2024.1.4,Win32,144.9275362,,,,,,,,,,,,,,136,hueas,,,,,,426.4838,427.8444,0,1,0.8454,,0,164,164,135,1,pseudoword,0,REAL,FALSA
,,,,,,,,,667850884c361fc66ef32b52,001,2024-06-30_07h03.52.326,empathy_intonation_perc,2024.1.4,Win32,144.9275362,,,,,,,,,,,,,,155,kugis,,,,,,427.8446,429.0179,0,1,0.6574,,0,165,165,154,1,pseudoword,0,REAL,FALSA
,,,,,,,,,667850884c361fc66ef32b52,001,2024-06-30_07h03.52.326,empathy_intonation_perc,2024.1.4,Win32,144.9275362,,,,,,,,,,,,,,165,chote,,,,,,429.0181,434.3016,0,1,4.7701,,0,166,166,164,1,pseudoword,0,REAL,FALSA
,,,,,,,,,667850884c361fc66ef32b52,001,2024-06-30_07h03.52.326,empathy_intonation_perc,2024.1.4,Win32,144.9275362,,,,,,,,,,,,,,58,colcha,,,,,,434.3083,449.2779,0,1,14.461,,0,167,167,57,1,non_cognate,1,REAL,FALSA
,,,,,,,,,667850884c361fc66ef32b52,001,2024-06-30_07h03.52.326,empathy_intonation_perc,2024.1.4,Win32,144.9275362,,,,,,,,,,,,,,55,maldad,,,,,,449.2851,450.722,0,1,0.9208,,0,168,168,54,1,non_cognate,1,REAL,FALSA
,,,,,,,,,667850884c361fc66ef32b52,001,2024-06-30_07h03.52.326,empathy_intonation_perc,2024.1.4,Win32,144.9275362,,,,,,,,,,,,,,114,dibrea,,,,,,450.7222,451.9578,0,1,0.7223,,0,169,169,113,1,pseudoword,0,REAL,FALSA
,,,,,,,,,667850884c361fc66ef32b52,001,2024-06-30_07h03.52.326,empathy_intonation_perc,2024.1.4,Win32,144.9275362,,,,,,,,,,,,,,105,leniz,,,,,,451.958,454.3463,0,1,1.8747,,0,170,170,104,1,pseudoword,0,REAL,FALSA
,,,,,,,,,667850884c361fc66ef32b52,001,2024-06-30_07h03.52.326,empathy_intonation_perc,2024.1.4,Win32,144.9275362,,,,,,,,,,,,,,70,ánimo,,,,,,454.3464,456.2973,1,0,1.4363,,0,171,171,69,1,non_cognate,1,REAL,FALSA
,,,,,,,,,667850884c361fc66ef32b52,001,2024-06-30_07h03.52.326,empathy_intonation_perc,2024.1.4,Win32,144.9275362,,,,,,,,,,,,,,72,rostro,,,,,,456.2975,457.665,0,1,0.8541,,0,172,172,71,1,non_cognate,1,REAL,FALSA
,,,,,,,,,667850884c361fc66ef32b52,001,2024-06-30_07h03.52.326,empathy_intonation_perc,2024.1.4,Win32,144.9275362,,,,,,,,,,,,,,112,samón,,,,,,457.6653,459.0537,0,1,0.8742,,0,173,173,111,1,pseudoword,0,REAL,FALSA
,,,,,,,,,667850884c361fc66ef32b52,001,2024-06-30_07h03.52.326,empathy_intonation_perc,2024.1.4,Win32,144.9275362,,,,,,,,,,,,,,22,mango,,,,,,459.054,460.366,0,1,0.7959,,0,174,174,21,1,three_way_cognate,1,REAL,FALSA
,,,,,,,,,667850884c361fc66ef32b52,001,2024-06-30_07h03.52.326,empathy_intonation_perc,2024.1.4,Win32,144.9275362,,,,,,,,,,,,,,171,gotro,,,,,,460.3663,461.4838,0,1,0.6028,,0,175,175,170,1,pseudoword,0,REAL,FALSA
,,,,,,,,,667850884c361fc66ef32b52,001,2024-06-30_07h03.52.326,empathy_intonation_perc,2024.1.4,Win32,144.9275362,,,,,,,,,,,,,,190,asumie,,,,,,461.4841,463.8166,0,1,1.8202,,0,176,176,189,1,pseudoword,0,REAL,FALSA
,,,,,,,,,667850884c361fc66ef32b52,001,2024-06-30_07h03.52.326,empathy_intonation_perc,2024.1.4,Win32,144.9275362,,,,,,,,,,,,,,125,ceme,,,,,,463.8167,465.3165,0,1,0.9822,,0,177,177,124,1,pseudoword,0,REAL,FALSA
,,,,,,,,,667850884c361fc66ef32b52,001,2024-06-30_07h03.52.326,empathy_intonation_perc,2024.1.4,Win32,144.9275362,,,,,,,,,,,,,,26,enigma,,,,,,465.3167,467.1702,0,1,1.3406,,0,178,178,25,1,two_way_cognate,1,REAL,FALSA
,,,,,,,,,667850884c361fc66ef32b52,001,2024-06-30_07h03.52.326,empathy_intonation_perc,2024.1.4,Win32,144.9275362,,,,,,,,,,,,,,45,total,,,,,,467.1704,468.4617,0,1,0.7758,,0,179,179,44,1,two_way_cognate,1,REAL,FALSA
,,,,,,,,,667850884c361fc66ef32b52,001,2024-06-30_07h03.52.326,empathy_intonation_perc,2024.1.4,Win32,144.9275362,,,,,,,,,,,,,,137,trugo,,,,,,468.4619,469.892,1,0,0.9159,,0,180,180,136,1,pseudoword,0,REAL,FALSA
,,,,,,,,,667850884c361fc66ef32b52,001,2024-06-30_07h03.52.326,empathy_intonation_perc,2024.1.4,Win32,144.9275362,,,,,,,,,,,,,,170,diabo,,,,,,469.8921,472.0582,1,0,1.6521,,0,181,181,169,1,pseudoword,0,REAL,FALSA
,,,,,,,,,667850884c361fc66ef32b52,001,2024-06-30_07h03.52.326,empathy_intonation_perc,2024.1.4,Win32,144.9275362,,,,,,,,,,,,,,17,clan,,,,,,472.0583,473.6274,0,1,1.0535,,0,182,182,16,1,three_way_cognate,1,REAL,FALSA
,,,,,,,,,667850884c361fc66ef32b52,001,2024-06-30_07h03.52.326,empathy_intonation_perc,2024.1.4,Win32,144.9275362,,,,,,,,,,,,,,88,percha,,,,,,473.6276,475.4186,0,1,1.2749,,0,183,183,87,1,non_cognate,1,REAL,FALSA
,,,,,,,,,667850884c361fc66ef32b52,001,2024-06-30_07h03.52.326,empathy_intonation_perc,2024.1.4,Win32,144.9275362,,,,,,,,,,,,,,16,chat,,,,,,475.4189,476.9879,0,1,1.0524,,0,184,184,15,1,three_way_cognate,1,REAL,FALSA
,,,,,,,,,667850884c361fc66ef32b52,001,2024-06-30_07h03.52.326,empathy_intonation_perc,2024.1.4,Win32,144.9275362,,,,,,,,,,,,,,175,tradía,,,,,,476.988,480.0566,0,1,2.5558,,0,185,185,174,1,pseudoword,0,REAL,FALSA
,,,,,,,,,667850884c361fc66ef32b52,001,2024-06-30_07h03.52.326,empathy_intonation_perc,2024.1.4,Win32,144.9275362,,,,,,,,,,,,,,13,plan,,,,,,480.0633,481.7785,0,1,1.2069,,0,186,186,12,1,three_way_cognate,1,REAL,FALSA
,,,,,,,,,667850884c361fc66ef32b52,001,2024-06-30_07h03.52.326,empathy_intonation_perc,2024.1.4,Win32,144.9275362,,,,,,,,,,,,,,151,prías,,,,,,481.7787,483.4033,1,0,1.1085,,0,187,187,150,1,pseudoword,0,REAL,FALSA
,,,,,,,,,667850884c361fc66ef32b52,001,2024-06-30_07h03.52.326,empathy_intonation_perc,2024.1.4,Win32,144.9275362,,,,,,,,,,,,,,62,pegar,,,,,,483.4034,485.1737,0,1,1.254,,0,188,188,61,1,non_cognate,1,REAL,FALSA
,,,,,,,,,667850884c361fc66ef32b52,001,2024-06-30_07h03.52.326,empathy_intonation_perc,2024.1.4,Win32,144.9275362,,,,,,,,,,,,,,57,regalo,,,,,,485.1739,486.4096,0,1,0.7214,,0,189,189,56,1,non_cognate,1,REAL,FALSA
,,,,,,,,,667850884c361fc66ef32b52,001,2024-06-30_07h03.52.326,empathy_intonation_perc,2024.1.4,Win32,144.9275362,,,,,,,,,,,,,,129,vinzó,,,,,,486.4098,487.5205,0,1,0.5951,,0,190,190,128,1,pseudoword,0,REAL,FALSA
,,,,,,,,,667850884c361fc66ef32b52,001,2024-06-30_07h03.52.326,empathy_intonation_perc,2024.1.4,Win32,144.9275362,,,,,,,,,,,,,,75,patada,,,,,,487.5206,488.1522,0,1,0.1185,,0,191,191,74,1,non_cognate,1,REAL,FALSA
