lextale_instructions.started,lextale_instructions.stopped,lextale_instructions_loop.thisRepN,lextale_instructions_loop.thisTrialN,lextale_instructions_loop.thisN,lextale_instructions_loop.thisIndex,lextale_instructions_loop.ran,instructions_text,continue_text,participant,session,date,expName,psychopyVersion,OS,frameRate,lextale_practice.started,lextale_practice.stopped,key_resp_lextale_practice.keys,key_resp_lextale_practice.corr,key_resp_lextale_practice.rt,key_resp_lextale_practice.duration,lextale_practice_feedback.started,lextale_practice_feedback.stopped,lextale_practice_trials.thisRepN,lextale_practice_trials.thisTrialN,lextale_practice_trials.thisN,lextale_practice_trials.thisIndex,lextale_practice_trials.ran,stim,word,correct_response,prac_button_real,prac_button_false,lextale_check.started,lextale_check.stopped,lextale_trial.started,lextale_trial.stopped,key_resp_lextale_trial.keys,key_resp_lextale_trial.corr,key_resp_lextale_trial.rt,key_resp_lextale_trial.duration,lextail_trials.thisRepN,lextail_trials.thisTrialN,lextail_trials.thisN,lextail_trials.thisIndex,lextail_trials.ran,type,correct_reponse,button_real,button_false
0.0038,1.2891,0,0,0,0,1,"Este es un test de vocabulario en español. 
  
  A continuación vas a ver 90 secuencias de letras que parecen 'españolas'.
  
  Solo algunas de ellas son palabras de verdad.",(presiona la barra espaciadora para continuar),participant,001,2024-06-30_07h57.29.459,empathy_intonation_perc,2024.1.4,Win32,59.17159763,,,,,,,,,,,,,,,,,,,,,,,,,,,,,,,,,,,
1.2897,1.6885,0,1,1,1,1,"Por favor, señala las palabras que tú conoces (aquellas que estás convencido que son palabras españolas, incluso aunque no seas capaz de dar el significado preciso).",(presiona la barra espaciadora para continuar),participant,001,2024-06-30_07h57.29.459,empathy_intonation_perc,2024.1.4,Win32,59.17159763,,,,,,,,,,,,,,,,,,,,,,,,,,,,,,,,,,,
1.6888,2.0223,0,2,2,2,1,Pero cuidado: los errores se penalizan. Por eso no tiene sentido tratar de incrementar tu puntuación marcando como reales palabras que nunca has visto.,(presiona la barra espaciadora para continuar),participant,001,2024-06-30_07h57.29.459,empathy_intonation_perc,2024.1.4,Win32,59.17159763,,,,,,,,,,,,,,,,,,,,,,,,,,,,,,,,,,,
2.0227,2.3052,0,3,3,3,1,"Presiona la tecla 1 si piensas que es una palabra real y la tecla 
  0 si piensas que es una palabra falsa. 
  
  Vamos a practicar un poco...",(presiona la barra espaciadora para continuar),participant,001,2024-06-30_07h57.29.459,empathy_intonation_perc,2024.1.4,Win32,59.17159763,,,,,,,,,,,,,,,,,,,,,,,,,,,,,,,,,,,
,,,,,,,,,participant,001,2024-06-30_07h57.29.459,empathy_intonation_perc,2024.1.4,Win32,59.17159763,2.3101,4.522,1,0,1.681,,4.5221,5.5222,0,0,0,0,1,0,depiste,0,REAL,FALSA,,,,,,,,,,,,,,,,,
,,,,,,,,,participant,001,2024-06-30_07h57.29.459,empathy_intonation_perc,2024.1.4,Win32,59.17159763,5.5228,6.2388,0,0,0.1812,,6.2388,7.2388,0,1,1,1,1,0,sí,1,REAL,FALSA,,,,,,,,,,,,,,,,,
,,,,,,,,,participant,001,2024-06-30_07h57.29.459,empathy_intonation_perc,2024.1.4,Win32,59.17159763,7.2392,7.9218,0,1,0.1467,,7.9219,8.9221,0,2,2,2,1,0,coné,0,REAL,FALSA,,,,,,,,,,,,,,,,,
,,,,,,,,,participant,001,2024-06-30_07h57.29.459,empathy_intonation_perc,2024.1.4,Win32,59.17159763,8.9227,9.6221,1,0,0.1715,,9.6221,10.6221,0,3,3,3,1,0,calpar,0,REAL,FALSA,,,,,,,,,,,,,,,,,
,,,,,,,,,participant,001,2024-06-30_07h57.29.459,empathy_intonation_perc,2024.1.4,Win32,59.17159763,10.6229,11.1722,0,1,0.0197,,11.1723,12.172,0,4,4,4,1,0,joten,0,REAL,FALSA,,,,,,,,,,,,,,,,,
,,,,,,,,,participant,001,2024-06-30_07h57.29.459,empathy_intonation_perc,2024.1.4,Win32,59.17159763,12.1725,12.7057,0,0,0.0121,,12.7057,13.7054,0,5,5,5,1,0,sacapuntas,1,REAL,FALSA,,,,,,,,,,,,,,,,,
,,,,,,,,,participant,001,2024-06-30_07h57.29.459,empathy_intonation_perc,2024.1.4,Win32,59.17159763,13.7058,14.3059,1,0,0.0634,,14.306,15.306,0,6,6,6,1,0,priba,0,REAL,FALSA,,,,,,,,,,,,,,,,,
,,,,,,,,,participant,001,2024-06-30_07h57.29.459,empathy_intonation_perc,2024.1.4,Win32,59.17159763,15.3065,15.922,1,0,0.0904,,15.9221,16.9224,0,7,7,7,1,0,pelasula,0,REAL,FALSA,,,,,,,,,,,,,,,,,
,,,,,,,,,participant,001,2024-06-30_07h57.29.459,empathy_intonation_perc,2024.1.4,Win32,59.17159763,16.9229,17.5385,0,0,0.0932,,17.5386,18.539,0,8,8,8,1,0,bien,1,REAL,FALSA,,,,,,,,,,,,,,,,,
,,,,,,,,,participant,001,2024-06-30_07h57.29.459,empathy_intonation_perc,2024.1.4,Win32,59.17159763,18.5396,19.2389,1,1,0.1708,,19.2389,20.2388,0,9,9,9,1,0,casa,1,REAL,FALSA,,,,,,,,,,,,,,,,,
,,,,,,,,,participant,001,2024-06-30_07h57.29.459,empathy_intonation_perc,2024.1.4,Win32,59.17159763,20.2393,21.0556,0,1,0.2912,,21.0557,22.0555,0,10,10,10,1,0,lejo,0,REAL,FALSA,,,,,,,,,,,,,,,,,
,,,,,,,,,participant,001,2024-06-30_07h57.29.459,empathy_intonation_perc,2024.1.4,Win32,59.17159763,22.0559,22.9722,0,1,0.3938,,22.9722,23.9722,0,11,11,11,1,0,pretantas,0,REAL,FALSA,,,,,,,,,,,,,,,,,
,,,,,,,,,participant,001,2024-06-30_07h57.29.459,empathy_intonation_perc,2024.1.4,Win32,59.17159763,,,,,,,,,,,,,,,,,,,23.9726,67.9735,,,,,,,,,,,,,,,
,,,,,,,,,participant,001,2024-06-30_07h57.29.459,empathy_intonation_perc,2024.1.4,Win32,59.17159763,,,,,,,,,,,,,,138,tator,,,,,,67.9897,87.3736,0,1,18.8575,,0,0,0,137,1,pseudoword,0,REAL,FALSA
,,,,,,,,,participant,001,2024-06-30_07h57.29.459,empathy_intonation_perc,2024.1.4,Win32,59.17159763,,,,,,,,,,,,,,79,suelo,,,,,,87.3742,95.59,1,0,7.6813,,0,1,1,78,1,non_cognate,1,REAL,FALSA
,,,,,,,,,participant,001,2024-06-30_07h57.29.459,empathy_intonation_perc,2024.1.4,Win32,59.17159763,,,,,,,,,,,,,,5,extra,,,,,,95.5903,97.8901,0,1,1.7638,,0,2,2,4,1,three_way_cognate,1,REAL,FALSA
,,,,,,,,,participant,001,2024-06-30_07h57.29.459,empathy_intonation_perc,2024.1.4,Win32,59.17159763,,,,,,,,,,,,,,185,aljizo,,,,,,97.8903,105.1067,0,1,6.6811,,0,3,3,184,1,pseudoword,0,REAL,FALSA
,,,,,,,,,participant,001,2024-06-30_07h57.29.459,empathy_intonation_perc,2024.1.4,Win32,59.17159763,,,,,,,,,,,,,,77,suave,,,,,,105.1069,113.3068,0,1,7.665,,0,4,4,76,1,non_cognate,1,REAL,FALSA
,,,,,,,,,participant,001,2024-06-30_07h57.29.459,empathy_intonation_perc,2024.1.4,Win32,59.17159763,,,,,,,,,,,,,,145,rúo,,,,,,113.3071,121.974,0,1,8.1317,,0,5,5,144,1,pseudoword,0,REAL,FALSA
,,,,,,,,,participant,001,2024-06-30_07h57.29.459,empathy_intonation_perc,2024.1.4,Win32,59.17159763,,,,,,,,,,,,,,133,conso,,,,,,121.9746,131.424,0,1,8.9184,,0,6,6,132,1,pseudoword,0,REAL,FALSA
,,,,,,,,,participant,001,2024-06-30_07h57.29.459,empathy_intonation_perc,2024.1.4,Win32,59.17159763,,,,,,,,,,,,,,39,casual,,,,,,131.4244,133.1575,0,1,1.1954,,0,7,7,38,1,two_way_cognate,1,REAL,FALSA
,,,,,,,,,participant,001,2024-06-30_07h57.29.459,empathy_intonation_perc,2024.1.4,Win32,59.17159763,,,,,,,,,,,,,,132,nocó,,,,,,133.1578,140.0906,1,0,6.4086,,0,8,8,131,1,pseudoword,0,REAL,FALSA
,,,,,,,,,participant,001,2024-06-30_07h57.29.459,empathy_intonation_perc,2024.1.4,Win32,59.17159763,,,,,,,,,,,,,,105,leniz,,,,,,140.0907,142.324,0,1,1.7227,,0,9,9,104,1,pseudoword,0,REAL,FALSA
,,,,,,,,,participant,001,2024-06-30_07h57.29.459,empathy_intonation_perc,2024.1.4,Win32,59.17159763,,,,,,,,,,,,,,22,mango,,,,,,142.3242,144.1074,0,1,1.2657,,0,10,10,21,1,three_way_cognate,1,REAL,FALSA
,,,,,,,,,participant,001,2024-06-30_07h57.29.459,empathy_intonation_perc,2024.1.4,Win32,59.17159763,,,,,,,,,,,,,,134,molor,,,,,,144.1076,151.1077,0,1,6.4757,,0,11,11,133,1,pseudoword,0,REAL,FALSA
,,,,,,,,,participant,001,2024-06-30_07h57.29.459,empathy_intonation_perc,2024.1.4,Win32,59.17159763,,,,,,,,,,,,,,43,honor,,,,,,151.1081,152.8078,0,1,1.1723,,0,12,12,42,1,two_way_cognate,1,REAL,FALSA
,,,,,,,,,participant,001,2024-06-30_07h57.29.459,empathy_intonation_perc,2024.1.4,Win32,59.17159763,,,,,,,,,,,,,,92,flecha,,,,,,152.8083,163.2911,1,0,9.9477,,0,13,13,91,1,non_cognate,1,REAL,FALSA
,,,,,,,,,participant,001,2024-06-30_07h57.29.459,empathy_intonation_perc,2024.1.4,Win32,59.17159763,,,,,,,,,,,,,,96,caro,,,,,,163.2915,173.3748,0,1,9.5489,,0,14,14,95,1,non_cognate,1,REAL,FALSA
,,,,,,,,,participant,001,2024-06-30_07h57.29.459,empathy_intonation_perc,2024.1.4,Win32,59.17159763,,,,,,,,,,,,,,56,pico,,,,,,173.3753,186.0415,0,1,12.1386,,0,15,15,55,1,non_cognate,1,REAL,FALSA
,,,,,,,,,participant,001,2024-06-30_07h57.29.459,empathy_intonation_perc,2024.1.4,Win32,59.17159763,,,,,,,,,,,,,,100,épinas,,,,,,186.0417,194.8921,0,1,8.32,,0,16,16,99,1,pseudoword,0,REAL,FALSA
,,,,,,,,,participant,001,2024-06-30_07h57.29.459,empathy_intonation_perc,2024.1.4,Win32,59.17159763,,,,,,,,,,,,,,157,seled,,,,,,194.8927,218.3254,0,1,22.8986,,0,17,17,156,1,pseudoword,0,REAL,FALSA
,,,,,,,,,participant,001,2024-06-30_07h57.29.459,empathy_intonation_perc,2024.1.4,Win32,59.17159763,,,,,,,,,,,,,,36,viable,,,,,,218.3257,220.2419,0,1,1.3924,,0,18,18,35,1,two_way_cognate,1,REAL,FALSA
,,,,,,,,,participant,001,2024-06-30_07h57.29.459,empathy_intonation_perc,2024.1.4,Win32,59.17159763,,,,,,,,,,,,,,27,piano,,,,,,220.2422,221.5754,0,1,0.7983,,0,19,19,26,1,two_way_cognate,1,REAL,FALSA
,,,,,,,,,participant,001,2024-06-30_07h57.29.459,empathy_intonation_perc,2024.1.4,Win32,59.17159763,,,,,,,,,,,,,,13,plan,,,,,,221.5757,223.1256,0,1,1.0154,,0,20,20,12,1,three_way_cognate,1,REAL,FALSA
,,,,,,,,,participant,001,2024-06-30_07h57.29.459,empathy_intonation_perc,2024.1.4,Win32,59.17159763,,,,,,,,,,,,,,119,esís,,,,,,223.1259,255.6095,0,1,31.9481,,0,21,21,118,1,pseudoword,0,REAL,FALSA
,,,,,,,,,participant,001,2024-06-30_07h57.29.459,empathy_intonation_perc,2024.1.4,Win32,59.17159763,,,,,,,,,,,,,,88,percha,,,,,,255.6099,270.0098,0,1,13.8679,,0,22,22,87,1,non_cognate,1,REAL,FALSA
,,,,,,,,,participant,001,2024-06-30_07h57.29.459,empathy_intonation_perc,2024.1.4,Win32,59.17159763,,,,,,,,,,,,,,38,halo,,,,,,270.0103,273.1763,0,1,2.6393,,0,23,23,37,1,two_way_cognate,1,REAL,FALSA
,,,,,,,,,participant,001,2024-06-30_07h57.29.459,empathy_intonation_perc,2024.1.4,Win32,59.17159763,,,,,,,,,,,,,,165,chote,,,,,,273.1765,280.3429,0,1,6.6406,,0,24,24,164,1,pseudoword,0,REAL,FALSA
,,,,,,,,,participant,001,2024-06-30_07h57.29.459,empathy_intonation_perc,2024.1.4,Win32,59.17159763,,,,,,,,,,,,,,94,forro,,,,,,280.3432,287.81,0,1,6.952,,0,25,25,93,1,non_cognate,1,REAL,FALSA
,,,,,,,,,participant,001,2024-06-30_07h57.29.459,empathy_intonation_perc,2024.1.4,Win32,59.17159763,,,,,,,,,,,,,,59,feo,,,,,,287.8104,296.577,0,1,8.2325,,0,26,26,58,1,non_cognate,1,REAL,FALSA
,,,,,,,,,participant,001,2024-06-30_07h57.29.459,empathy_intonation_perc,2024.1.4,Win32,59.17159763,,,,,,,,,,,,,,128,pelí,,,,,,296.5775,304.5437,1,0,7.432,,0,27,27,127,1,pseudoword,0,REAL,FALSA
,,,,,,,,,participant,001,2024-06-30_07h57.29.459,empathy_intonation_perc,2024.1.4,Win32,59.17159763,,,,,,,,,,,,,,2,tumor,,,,,,304.5442,306.4437,0,1,1.3698,,0,28,28,1,1,three_way_cognate,1,REAL,FALSA
,,,,,,,,,participant,001,2024-06-30_07h57.29.459,empathy_intonation_perc,2024.1.4,Win32,59.17159763,,,,,,,,,,,,,,75,patada,,,,,,306.444,315.1436,1,0,8.1635,,0,29,29,74,1,non_cognate,1,REAL,FALSA
,,,,,,,,,participant,001,2024-06-30_07h57.29.459,empathy_intonation_perc,2024.1.4,Win32,59.17159763,,,,,,,,,,,,,,69,tiza,,,,,,315.1439,325.9606,1,0,10.3081,,0,30,30,68,1,non_cognate,1,REAL,FALSA
,,,,,,,,,participant,001,2024-06-30_07h57.29.459,empathy_intonation_perc,2024.1.4,Win32,59.17159763,,,,,,,,,,,,,,41,pasta,,,,,,325.9609,328.2773,0,1,1.7877,,0,31,31,40,1,two_way_cognate,1,REAL,FALSA
,,,,,,,,,participant,001,2024-06-30_07h57.29.459,empathy_intonation_perc,2024.1.4,Win32,59.17159763,,,,,,,,,,,,,,143,hurcos,,,,,,328.2777,356.1945,0,1,27.3856,,0,32,32,142,1,pseudoword,0,REAL,FALSA
,,,,,,,,,participant,001,2024-06-30_07h57.29.459,empathy_intonation_perc,2024.1.4,Win32,59.17159763,,,,,,,,,,,,,,60,siglo,,,,,,356.1949,365.6278,1,0,8.9012,,0,33,33,59,1,non_cognate,1,REAL,FALSA
,,,,,,,,,participant,001,2024-06-30_07h57.29.459,empathy_intonation_perc,2024.1.4,Win32,59.17159763,,,,,,,,,,,,,,171,gotro,,,,,,365.6281,373.4112,0,1,7.2538,,0,34,34,170,1,pseudoword,0,REAL,FALSA
,,,,,,,,,participant,001,2024-06-30_07h57.29.459,empathy_intonation_perc,2024.1.4,Win32,59.17159763,,,,,,,,,,,,,,109,laras,,,,,,373.4114,382.8785,0,1,8.9356,,0,35,35,108,1,pseudoword,0,REAL,FALSA
,,,,,,,,,participant,001,2024-06-30_07h57.29.459,empathy_intonation_perc,2024.1.4,Win32,59.17159763,,,,,,,,,,,,,,183,edioso,,,,,,382.8789,393.6454,1,0,10.239,,0,36,36,182,1,pseudoword,0,REAL,FALSA
,,,,,,,,,participant,001,2024-06-30_07h57.29.459,empathy_intonation_perc,2024.1.4,Win32,59.17159763,,,,,,,,,,,,,,154,harvé,,,,,,393.6459,406.8792,0,1,12.6965,,0,37,37,153,1,pseudoword,0,REAL,FALSA
,,,,,,,,,participant,001,2024-06-30_07h57.29.459,empathy_intonation_perc,2024.1.4,Win32,59.17159763,,,,,,,,,,,,,,70,ánimo,,,,,,406.8796,420.4289,1,0,13.0221,,0,38,38,69,1,non_cognate,1,REAL,FALSA
,,,,,,,,,participant,001,2024-06-30_07h57.29.459,empathy_intonation_perc,2024.1.4,Win32,59.17159763,,,,,,,,,,,,,,114,dibrea,,,,,,420.4294,434.3792,0,1,13.4197,,0,39,39,113,1,pseudoword,0,REAL,FALSA
,,,,,,,,,participant,001,2024-06-30_07h57.29.459,empathy_intonation_perc,2024.1.4,Win32,59.17159763,,,,,,,,,,,,,,186,rizate,,,,,,434.3797,445.7124,0,1,10.8033,,0,40,40,185,1,pseudoword,0,REAL,FALSA
,,,,,,,,,participant,001,2024-06-30_07h57.29.459,empathy_intonation_perc,2024.1.4,Win32,59.17159763,,,,,,,,,,,,,,169,pitis,,,,,,445.7126,457.763,0,1,11.5201,,0,41,41,168,1,pseudoword,0,REAL,FALSA
,,,,,,,,,participant,001,2024-06-30_07h57.29.459,empathy_intonation_perc,2024.1.4,Win32,59.17159763,,,,,,,,,,,,,,34,actor,,,,,,457.7636,459.4626,0,1,1.1737,,0,42,42,33,1,two_way_cognate,1,REAL,FALSA
,,,,,,,,,participant,001,2024-06-30_07h57.29.459,empathy_intonation_perc,2024.1.4,Win32,59.17159763,,,,,,,,,,,,,,65,guerra,,,,,,459.4629,467.413,0,1,7.4175,,0,43,43,64,1,non_cognate,1,REAL,FALSA
,,,,,,,,,participant,001,2024-06-30_07h57.29.459,empathy_intonation_perc,2024.1.4,Win32,59.17159763,,,,,,,,,,,,,,93,tapa,,,,,,467.4134,476.397,0,1,8.4577,,0,44,44,92,1,non_cognate,1,REAL,FALSA
,,,,,,,,,participant,001,2024-06-30_07h57.29.459,empathy_intonation_perc,2024.1.4,Win32,59.17159763,,,,,,,,,,,,,,8,kilo,,,,,,476.3975,478.1965,0,1,1.2657,,0,45,45,7,1,three_way_cognate,1,REAL,FALSA
,,,,,,,,,participant,001,2024-06-30_07h57.29.459,empathy_intonation_perc,2024.1.4,Win32,59.17159763,,,,,,,,,,,,,,173,mibro,,,,,,478.1976,486.2135,1,0,7.4836,,0,46,46,172,1,pseudoword,0,REAL,FALSA
,,,,,,,,,participant,001,2024-06-30_07h57.29.459,empathy_intonation_perc,2024.1.4,Win32,59.17159763,,,,,,,,,,,,,,120,mauja,,,,,,486.2141,493.9134,0,1,7.1706,,0,47,47,119,1,pseudoword,0,REAL,FALSA
,,,,,,,,,participant,001,2024-06-30_07h57.29.459,empathy_intonation_perc,2024.1.4,Win32,59.17159763,,,,,,,,,,,,,,32,animal,,,,,,493.9137,495.2798,0,1,0.8365,,0,48,48,31,1,two_way_cognate,1,REAL,FALSA
,,,,,,,,,participant,001,2024-06-30_07h57.29.459,empathy_intonation_perc,2024.1.4,Win32,59.17159763,,,,,,,,,,,,,,104,estulo,,,,,,495.2801,503.8299,0,1,8.0232,,0,49,49,103,1,pseudoword,0,REAL,FALSA
,,,,,,,,,participant,001,2024-06-30_07h57.29.459,empathy_intonation_perc,2024.1.4,Win32,59.17159763,,,,,,,,,,,,,,170,diabo,,,,,,503.8302,516.0638,0,1,11.7045,,0,50,50,169,1,pseudoword,0,REAL,FALSA
,,,,,,,,,participant,001,2024-06-30_07h57.29.459,empathy_intonation_perc,2024.1.4,Win32,59.17159763,,,,,,,,,,,,,,150,cricó,,,,,,516.0642,528.8641,1,0,12.2752,,0,51,51,149,1,pseudoword,0,REAL,FALSA
,,,,,,,,,participant,001,2024-06-30_07h57.29.459,empathy_intonation_perc,2024.1.4,Win32,59.17159763,,,,,,,,,,,,,,21,hotel,,,,,,528.8647,531.0637,0,1,1.6651,,0,52,52,20,1,three_way_cognate,1,REAL,FALSA
,,,,,,,,,participant,001,2024-06-30_07h57.29.459,empathy_intonation_perc,2024.1.4,Win32,59.17159763,,,,,,,,,,,,,,125,ceme,,,,,,531.0639,540.2141,0,1,8.6147,,0,53,53,124,1,pseudoword,0,REAL,FALSA
,,,,,,,,,participant,001,2024-06-30_07h57.29.459,empathy_intonation_perc,2024.1.4,Win32,59.17159763,,,,,,,,,,,,,,68,puñal,,,,,,540.2144,549.1476,1,0,8.3955,,0,54,54,67,1,non_cognate,1,REAL,FALSA
,,,,,,,,,participant,001,2024-06-30_07h57.29.459,empathy_intonation_perc,2024.1.4,Win32,59.17159763,,,,,,,,,,,,,,84,aviso,,,,,,549.1478,557.2978,0,1,7.6217,,0,55,55,83,1,non_cognate,1,REAL,FALSA
,,,,,,,,,participant,001,2024-06-30_07h57.29.459,empathy_intonation_perc,2024.1.4,Win32,59.17159763,,,,,,,,,,,,,,182,desaro,,,,,,557.2983,565.3311,1,0,7.4934,,0,56,56,181,1,pseudoword,0,REAL,FALSA
,,,,,,,,,participant,001,2024-06-30_07h57.29.459,empathy_intonation_perc,2024.1.4,Win32,59.17159763,,,,,,,,,,,,,,108,jauda,,,,,,565.3315,575.7312,0,1,9.8731,,0,57,57,107,1,pseudoword,0,REAL,FALSA
,,,,,,,,,participant,001,2024-06-30_07h57.29.459,empathy_intonation_perc,2024.1.4,Win32,59.17159763,,,,,,,,,,,,,,107,plago,,,,,,575.7316,589.6815,0,1,13.4139,,0,58,58,106,1,pseudoword,0,REAL,FALSA
,,,,,,,,,participant,001,2024-06-30_07h57.29.459,empathy_intonation_perc,2024.1.4,Win32,59.17159763,,,,,,,,,,,,,,80,cuenco,,,,,,589.6819,598.7151,1,0,8.5099,,0,59,59,79,1,non_cognate,1,REAL,FALSA
,,,,,,,,,participant,001,2024-06-30_07h57.29.459,empathy_intonation_perc,2024.1.4,Win32,59.17159763,,,,,,,,,,,,,,55,maldad,,,,,,598.7154,610.215,1,0,10.9639,,0,60,60,54,1,non_cognate,1,REAL,FALSA
,,,,,,,,,participant,001,2024-06-30_07h57.29.459,empathy_intonation_perc,2024.1.4,Win32,59.17159763,,,,,,,,,,,,,,47,color,,,,,,610.2154,619.2319,0,1,8.482,,0,61,61,46,1,two_way_cognate,1,REAL,FALSA
,,,,,,,,,participant,001,2024-06-30_07h57.29.459,empathy_intonation_perc,2024.1.4,Win32,59.17159763,,,,,,,,,,,,,,141,virios,,,,,,619.2321,629.4321,0,1,9.667,,0,62,62,140,1,pseudoword,0,REAL,FALSA
,,,,,,,,,participant,001,2024-06-30_07h57.29.459,empathy_intonation_perc,2024.1.4,Win32,59.17159763,,,,,,,,,,,,,,178,inichó,,,,,,629.4325,638.8156,1,0,8.8463,,0,63,63,177,1,pseudoword,0,REAL,FALSA
,,,,,,,,,participant,001,2024-06-30_07h57.29.459,empathy_intonation_perc,2024.1.4,Win32,59.17159763,,,,,,,,,,,,,,3,disco,,,,,,638.8159,640.8823,0,1,1.5316,,0,64,64,2,1,three_way_cognate,1,REAL,FALSA
,,,,,,,,,participant,001,2024-06-30_07h57.29.459,empathy_intonation_perc,2024.1.4,Win32,59.17159763,,,,,,,,,,,,,,166,anfia,,,,,,640.8826,649.5159,0,1,8.0961,,0,65,65,165,1,pseudoword,0,REAL,FALSA
,,,,,,,,,participant,001,2024-06-30_07h57.29.459,empathy_intonation_perc,2024.1.4,Win32,59.17159763,,,,,,,,,,,,,,127,vien,,,,,,649.5162,658.0159,0,1,7.9714,,0,66,66,126,1,pseudoword,0,REAL,FALSA
,,,,,,,,,participant,001,2024-06-30_07h57.29.459,empathy_intonation_perc,2024.1.4,Win32,59.17159763,,,,,,,,,,,,,,40,pelvis,,,,,,658.0163,666.1663,0,1,7.6158,,0,67,67,39,1,two_way_cognate,1,REAL,FALSA
,,,,,,,,,participant,001,2024-06-30_07h57.29.459,empathy_intonation_perc,2024.1.4,Win32,59.17159763,,,,,,,,,,,,,,48,pelvis,,,,,,666.1667,668.1493,0,1,1.4621,,0,68,68,47,1,two_way_cognate,1,REAL,FALSA
,,,,,,,,,participant,001,2024-06-30_07h57.29.459,empathy_intonation_perc,2024.1.4,Win32,59.17159763,,,,,,,,,,,,,,53,punta,,,,,,668.1496,677.1162,0,1,8.4388,,0,69,69,52,1,non_cognate,1,REAL,FALSA
,,,,,,,,,participant,001,2024-06-30_07h57.29.459,empathy_intonation_perc,2024.1.4,Win32,59.17159763,,,,,,,,,,,,,,49,teñir,,,,,,677.1165,685.5499,1,0,7.9009,,0,70,70,48,1,non_cognate,1,REAL,FALSA
,,,,,,,,,participant,001,2024-06-30_07h57.29.459,empathy_intonation_perc,2024.1.4,Win32,59.17159763,,,,,,,,,,,,,,112,samón,,,,,,685.5502,695.9834,1,0,9.8971,,0,71,71,111,1,pseudoword,0,REAL,FALSA
,,,,,,,,,participant,001,2024-06-30_07h57.29.459,empathy_intonation_perc,2024.1.4,Win32,59.17159763,,,,,,,,,,,,,,35,aurora,,,,,,695.9837,705.6167,0,1,9.0956,,0,72,72,34,1,two_way_cognate,1,REAL,FALSA
,,,,,,,,,participant,001,2024-06-30_07h57.29.459,empathy_intonation_perc,2024.1.4,Win32,59.17159763,,,,,,,,,,,,,,63,hilo,,,,,,705.6171,737.384,0,1,31.2336,,0,73,73,62,1,non_cognate,1,REAL,FALSA
,,,,,,,,,participant,001,2024-06-30_07h57.29.459,empathy_intonation_perc,2024.1.4,Win32,59.17159763,,,,,,,,,,,,,,11,golf,,,,,,737.3842,739.2841,0,1,1.3661,,0,74,74,10,1,three_way_cognate,1,REAL,FALSA
,,,,,,,,,participant,001,2024-06-30_07h57.29.459,empathy_intonation_perc,2024.1.4,Win32,59.17159763,,,,,,,,,,,,,,101,losco,,,,,,739.2844,751.9177,0,1,12.1082,,0,75,75,100,1,pseudoword,0,REAL,FALSA
,,,,,,,,,participant,001,2024-06-30_07h57.29.459,empathy_intonation_perc,2024.1.4,Win32,59.17159763,,,,,,,,,,,,,,130,dubo,,,,,,751.9182,788.718,0,1,36.2721,,0,76,76,129,1,pseudoword,0,REAL,FALSA
,,,,,,,,,participant,001,2024-06-30_07h57.29.459,empathy_intonation_perc,2024.1.4,Win32,59.17159763,,,,,,,,,,,,,,180,pupica,,,,,,788.7182,797.2016,0,1,7.9604,,0,77,77,179,1,pseudoword,0,REAL,FALSA
,,,,,,,,,participant,001,2024-06-30_07h57.29.459,empathy_intonation_perc,2024.1.4,Win32,59.17159763,,,,,,,,,,,,,,181,gravés,,,,,,797.2017,806.0515,0,1,8.3219,,0,78,78,180,1,pseudoword,0,REAL,FALSA
,,,,,,,,,participant,001,2024-06-30_07h57.29.459,empathy_intonation_perc,2024.1.4,Win32,59.17159763,,,,,,,,,,,,,,174,pabea,,,,,,806.0518,815.719,0,1,9.1353,,0,79,79,173,1,pseudoword,0,REAL,FALSA
,,,,,,,,,participant,001,2024-06-30_07h57.29.459,empathy_intonation_perc,2024.1.4,Win32,59.17159763,,,,,,,,,,,,,,12,dogma,,,,,,815.7196,825.402,0,1,9.1519,,0,80,80,11,1,three_way_cognate,1,REAL,FALSA
,,,,,,,,,participant,001,2024-06-30_07h57.29.459,empathy_intonation_perc,2024.1.4,Win32,59.17159763,,,,,,,,,,,,,,123,arane,,,,,,825.4024,835.6023,0,1,9.6639,,0,81,81,122,1,pseudoword,0,REAL,FALSA
,,,,,,,,,participant,001,2024-06-30_07h57.29.459,empathy_intonation_perc,2024.1.4,Win32,59.17159763,,,,,,,,,,,,,,135,panté,,,,,,835.6026,844.2026,0,1,8.0669,,0,82,82,134,1,pseudoword,0,REAL,FALSA
,,,,,,,,,participant,001,2024-06-30_07h57.29.459,empathy_intonation_perc,2024.1.4,Win32,59.17159763,,,,,,,,,,,,,,72,rostro,,,,,,844.2031,853.7524,1,0,9.0205,,0,83,83,71,1,non_cognate,1,REAL,FALSA
,,,,,,,,,participant,001,2024-06-30_07h57.29.459,empathy_intonation_perc,2024.1.4,Win32,59.17159763,,,,,,,,,,,,,,147,alla,,,,,,853.7526,864.8526,0,1,10.5761,,0,84,84,146,1,pseudoword,0,REAL,FALSA
,,,,,,,,,participant,001,2024-06-30_07h57.29.459,empathy_intonation_perc,2024.1.4,Win32,59.17159763,,,,,,,,,,,,,,103,vueras,,,,,,864.8528,891.253,0,1,25.872,,0,85,85,102,1,pseudoword,0,REAL,FALSA
,,,,,,,,,participant,001,2024-06-30_07h57.29.459,empathy_intonation_perc,2024.1.4,Win32,59.17159763,,,,,,,,,,,,,,78,rendir,,,,,,891.2532,901.77,1,0,9.9855,,0,86,86,77,1,non_cognate,1,REAL,FALSA
,,,,,,,,,participant,001,2024-06-30_07h57.29.459,empathy_intonation_perc,2024.1.4,Win32,59.17159763,,,,,,,,,,,,,,15,test,,,,,,901.7702,903.9368,0,1,1.6561,,0,87,87,14,1,three_way_cognate,1,REAL,FALSA
,,,,,,,,,participant,001,2024-06-30_07h57.29.459,empathy_intonation_perc,2024.1.4,Win32,59.17159763,,,,,,,,,,,,,,66,aleta,,,,,,903.9371,914.4702,1,0,9.9982,,0,88,88,65,1,non_cognate,1,REAL,FALSA
,,,,,,,,,participant,001,2024-06-30_07h57.29.459,empathy_intonation_perc,2024.1.4,Win32,59.17159763,,,,,,,,,,,,,,161,civas,,,,,,914.4705,931.0537,0,1,16.0604,,0,89,89,160,1,pseudoword,0,REAL,FALSA
,,,,,,,,,participant,001,2024-06-30_07h57.29.459,empathy_intonation_perc,2024.1.4,Win32,59.17159763,,,,,,,,,,,,,,146,gió,,,,,,931.0539,941.6375,0,1,10.0636,,0,90,90,145,1,pseudoword,0,REAL,FALSA
,,,,,,,,,participant,001,2024-06-30_07h57.29.459,empathy_intonation_perc,2024.1.4,Win32,59.17159763,,,,,,,,,,,,,,118,bará,,,,,,941.6377,958.0046,0,1,15.8398,,0,91,91,117,1,pseudoword,0,REAL,FALSA
,,,,,,,,,participant,001,2024-06-30_07h57.29.459,empathy_intonation_perc,2024.1.4,Win32,59.17159763,,,,,,,,,,,,,,152,prave,,,,,,958.0052,960.8212,0,1,2.2863,,0,92,92,151,1,pseudoword,0,REAL,FALSA
,,,,,,,,,participant,001,2024-06-30_07h57.29.459,empathy_intonation_perc,2024.1.4,Win32,59.17159763,,,,,,,,,,,,,,76,chocar,,,,,,960.8217,968.7377,0,1,7.386,,0,93,93,75,1,non_cognate,1,REAL,FALSA
,,,,,,,,,participant,001,2024-06-30_07h57.29.459,empathy_intonation_perc,2024.1.4,Win32,59.17159763,,,,,,,,,,,,,,144,diroco,,,,,,968.7379,981.9717,0,1,12.7018,,0,94,94,143,1,pseudoword,0,REAL,FALSA
,,,,,,,,,participant,001,2024-06-30_07h57.29.459,empathy_intonation_perc,2024.1.4,Win32,59.17159763,,,,,,,,,,,,,,189,medium,,,,,,981.9721,983.738,0,1,1.2302,,0,95,95,188,1,pseudoword,0,REAL,FALSA
,,,,,,,,,participant,001,2024-06-30_07h57.29.459,empathy_intonation_perc,2024.1.4,Win32,59.17159763,,,,,,,,,,,,,,188,amplir,,,,,,983.7384,992.9213,1,0,8.6549,,0,96,96,187,1,pseudoword,0,REAL,FALSA
,,,,,,,,,participant,001,2024-06-30_07h57.29.459,empathy_intonation_perc,2024.1.4,Win32,59.17159763,,,,,,,,,,,,,,163,olzan,,,,,,992.9216,1002.1048,0,1,8.6723,,0,97,97,162,1,pseudoword,0,REAL,FALSA
,,,,,,,,,participant,001,2024-06-30_07h57.29.459,empathy_intonation_perc,2024.1.4,Win32,59.17159763,,,,,,,,,,,,,,122,boñaz,,,,,,1002.1051,1011.7886,0,1,9.1544,,0,98,98,121,1,pseudoword,0,REAL,FALSA
,,,,,,,,,participant,001,2024-06-30_07h57.29.459,empathy_intonation_perc,2024.1.4,Win32,59.17159763,,,,,,,,,,,,,,30,fiscal,,,,,,1011.7892,1013.4219,0,1,1.1084,,0,99,99,29,1,two_way_cognate,1,REAL,FALSA
,,,,,,,,,participant,001,2024-06-30_07h57.29.459,empathy_intonation_perc,2024.1.4,Win32,59.17159763,,,,,,,,,,,,,,42,rumor,,,,,,1013.4223,1015.022,0,1,1.0669,,0,100,100,41,1,two_way_cognate,1,REAL,FALSA
,,,,,,,,,participant,001,2024-06-30_07h57.29.459,empathy_intonation_perc,2024.1.4,Win32,59.17159763,,,,,,,,,,,,,,95,listo,,,,,,1015.0222,1022.9721,0,1,7.4141,,0,101,101,94,1,non_cognate,1,REAL,FALSA
,,,,,,,,,participant,001,2024-06-30_07h57.29.459,empathy_intonation_perc,2024.1.4,Win32,59.17159763,,,,,,,,,,,,,,31,civil,,,,,,1022.9727,1024.3219,0,1,0.8174,,0,102,102,30,1,two_way_cognate,1,REAL,FALSA
,,,,,,,,,participant,001,2024-06-30_07h57.29.459,empathy_intonation_perc,2024.1.4,Win32,59.17159763,,,,,,,,,,,,,,156,ozoso,,,,,,1024.3221,1026.122,0,1,1.2655,,0,103,103,155,1,pseudoword,0,REAL,FALSA
,,,,,,,,,participant,001,2024-06-30_07h57.29.459,empathy_intonation_perc,2024.1.4,Win32,59.17159763,,,,,,,,,,,,,,184,huenos,,,,,,1026.1222,1034.3223,1,0,7.6704,,0,104,104,183,1,pseudoword,0,REAL,FALSA
,,,,,,,,,participant,001,2024-06-30_07h57.29.459,empathy_intonation_perc,2024.1.4,Win32,59.17159763,,,,,,,,,,,,,,74,ala,,,,,,1034.3228,1043.9723,0,1,9.1244,,0,105,105,73,1,non_cognate,1,REAL,FALSA
,,,,,,,,,participant,001,2024-06-30_07h57.29.459,empathy_intonation_perc,2024.1.4,Win32,59.17159763,,,,,,,,,,,,,,137,trugo,,,,,,1043.9727,1053.5391,0,1,9.0397,,0,106,106,136,1,pseudoword,0,REAL,FALSA
,,,,,,,,,participant,001,2024-06-30_07h57.29.459,empathy_intonation_perc,2024.1.4,Win32,59.17159763,,,,,,,,,,,,,,10,drama,,,,,,1053.5394,1055.8063,0,1,1.7324,,0,107,107,9,1,three_way_cognate,1,REAL,FALSA
,,,,,,,,,participant,001,2024-06-30_07h57.29.459,empathy_intonation_perc,2024.1.4,Win32,59.17159763,,,,,,,,,,,,,,17,clan,,,,,,1055.8067,1057.1559,0,1,0.8159,,0,108,108,16,1,three_way_cognate,1,REAL,FALSA
,,,,,,,,,participant,001,2024-06-30_07h57.29.459,empathy_intonation_perc,2024.1.4,Win32,59.17159763,,,,,,,,,,,,,,64,rizado,,,,,,1057.1561,1067.3227,1,0,9.6318,,0,109,109,63,1,non_cognate,1,REAL,FALSA
,,,,,,,,,participant,001,2024-06-30_07h57.29.459,empathy_intonation_perc,2024.1.4,Win32,59.17159763,,,,,,,,,,,,,,82,brillo,,,,,,1067.323,1079.3061,1,0,11.449,,0,110,110,81,1,non_cognate,1,REAL,FALSA
,,,,,,,,,participant,001,2024-06-30_07h57.29.459,empathy_intonation_perc,2024.1.4,Win32,59.17159763,,,,,,,,,,,,,,62,pegar,,,,,,1079.3063,1089.99,0,1,10.1487,,0,111,111,61,1,non_cognate,1,REAL,FALSA
,,,,,,,,,participant,001,2024-06-30_07h57.29.459,empathy_intonation_perc,2024.1.4,Win32,59.17159763,,,,,,,,,,,,,,164,tecia,,,,,,1089.9904,1101.2402,0,1,10.719,,0,112,112,163,1,pseudoword,0,REAL,FALSA
,,,,,,,,,participant,001,2024-06-30_07h57.29.459,empathy_intonation_perc,2024.1.4,Win32,59.17159763,,,,,,,,,,,,,,175,tradía,,,,,,1101.2409,1179.0581,1,0,77.2864,,0,113,113,174,1,pseudoword,0,REAL,FALSA
,,,,,,,,,participant,001,2024-06-30_07h57.29.459,empathy_intonation_perc,2024.1.4,Win32,59.17159763,,,,,,,,,,,,,,160,fomeó,,,,,,1179.0585,1191.2416,1,0,11.6556,,0,114,114,159,1,pseudoword,0,REAL,FALSA
,,,,,,,,,participant,001,2024-06-30_07h57.29.459,empathy_intonation_perc,2024.1.4,Win32,59.17159763,,,,,,,,,,,,,,179,suelet,,,,,,1191.2419,1202.0251,0,1,10.2586,,0,115,115,178,1,pseudoword,0,REAL,FALSA
,,,,,,,,,participant,001,2024-06-30_07h57.29.459,empathy_intonation_perc,2024.1.4,Win32,59.17159763,,,,,,,,,,,,,,168,cobén,,,,,,1202.0255,1215.0919,0,1,12.5404,,0,116,116,167,1,pseudoword,0,REAL,FALSA
,,,,,,,,,participant,001,2024-06-30_07h57.29.459,empathy_intonation_perc,2024.1.4,Win32,59.17159763,,,,,,,,,,,,,,155,kugis,,,,,,1215.0923,1223.1922,0,1,7.5655,,0,117,117,154,1,pseudoword,0,REAL,FALSA
,,,,,,,,,participant,001,2024-06-30_07h57.29.459,empathy_intonation_perc,2024.1.4,Win32,59.17159763,,,,,,,,,,,,,,131,fuar,,,,,,1223.1925,1232.9421,0,1,9.2276,,0,118,118,130,1,pseudoword,0,REAL,FALSA
,,,,,,,,,participant,001,2024-06-30_07h57.29.459,empathy_intonation_perc,2024.1.4,Win32,59.17159763,,,,,,,,,,,,,,121,barbs,,,,,,1232.9424,1234.309,0,1,0.8323,,0,119,119,120,1,pseudoword,0,REAL,FALSA
,,,,,,,,,participant,001,2024-06-30_07h57.29.459,empathy_intonation_perc,2024.1.4,Win32,59.17159763,,,,,,,,,,,,,,71,torta,,,,,,1234.3095,1246.8924,0,1,12.0497,,0,120,120,70,1,non_cognate,1,REAL,FALSA
,,,,,,,,,participant,001,2024-06-30_07h57.29.459,empathy_intonation_perc,2024.1.4,Win32,59.17159763,,,,,,,,,,,,,,61,aduana,,,,,,1246.8926,1256.1926,1,0,8.7679,,0,121,121,60,1,non_cognate,1,REAL,FALSA
,,,,,,,,,participant,001,2024-06-30_07h57.29.459,empathy_intonation_perc,2024.1.4,Win32,59.17159763,,,,,,,,,,,,,,129,vinzó,,,,,,1256.1931,1265.4595,1,0,8.731,,0,122,122,128,1,pseudoword,0,REAL,FALSA
,,,,,,,,,participant,001,2024-06-30_07h57.29.459,empathy_intonation_perc,2024.1.4,Win32,59.17159763,,,,,,,,,,,,,,73,llevar,,,,,,1265.4599,1283.3594,1,0,17.3746,,0,123,123,72,1,non_cognate,1,REAL,FALSA
,,,,,,,,,participant,001,2024-06-30_07h57.29.459,empathy_intonation_perc,2024.1.4,Win32,59.17159763,,,,,,,,,,,,,,7,albino,,,,,,1283.3596,1285.3927,0,1,1.5251,,0,124,124,6,1,three_way_cognate,1,REAL,FALSA
,,,,,,,,,participant,001,2024-06-30_07h57.29.459,empathy_intonation_perc,2024.1.4,Win32,59.17159763,,,,,,,,,,,,,,117,morrá,,,,,,1285.3929,1297.8433,0,1,11.9333,,0,125,125,116,1,pseudoword,0,REAL,FALSA
,,,,,,,,,participant,001,2024-06-30_07h57.29.459,empathy_intonation_perc,2024.1.4,Win32,59.17159763,,,,,,,,,,,,,,153,golla,,,,,,1297.8435,1307.6597,0,1,9.2854,,0,126,126,152,1,pseudoword,0,REAL,FALSA
,,,,,,,,,participant,001,2024-06-30_07h57.29.459,empathy_intonation_perc,2024.1.4,Win32,59.17159763,,,,,,,,,,,,,,1,moral,,,,,,1307.66,1309.1432,0,1,0.9671,,0,127,127,0,1,three_way_cognate,1,REAL,FALSA
,,,,,,,,,participant,001,2024-06-30_07h57.29.459,empathy_intonation_perc,2024.1.4,Win32,59.17159763,,,,,,,,,,,,,,142,parre,,,,,,1309.1433,1319.4935,0,1,9.8267,,0,128,128,141,1,pseudoword,0,REAL,FALSA
,,,,,,,,,participant,001,2024-06-30_07h57.29.459,empathy_intonation_perc,2024.1.4,Win32,59.17159763,,,,,,,,,,,,,,116,grigir,,,,,,1319.4937,1329.5604,0,1,9.5468,,0,129,129,115,1,pseudoword,0,REAL,FALSA
,,,,,,,,,participant,001,2024-06-30_07h57.29.459,empathy_intonation_perc,2024.1.4,Win32,59.17159763,,,,,,,,,,,,,,26,enigma,,,,,,1329.5607,1332.3773,0,1,2.2854,,0,130,130,25,1,two_way_cognate,1,REAL,FALSA
,,,,,,,,,participant,001,2024-06-30_07h57.29.459,empathy_intonation_perc,2024.1.4,Win32,59.17159763,,,,,,,,,,,,,,85,enorme,,,,,,1332.3776,1341.3774,0,1,8.4754,,0,131,131,84,1,non_cognate,1,REAL,FALSA
,,,,,,,,,participant,001,2024-06-30_07h57.29.459,empathy_intonation_perc,2024.1.4,Win32,59.17159763,,,,,,,,,,,,,,58,colcha,,,,,,1341.3776,1358.9441,0,1,17.0386,,0,132,132,57,1,non_cognate,1,REAL,FALSA
,,,,,,,,,participant,001,2024-06-30_07h57.29.459,empathy_intonation_perc,2024.1.4,Win32,59.17159763,,,,,,,,,,,,,,167,dobbo,,,,,,1358.9444,1373.8615,0,1,14.3895,,0,133,133,166,1,pseudoword,0,REAL,FALSA
,,,,,,,,,participant,001,2024-06-30_07h57.29.459,empathy_intonation_perc,2024.1.4,Win32,59.17159763,,,,,,,,,,,,,,115,lidena,,,,,,1373.862,1384.6948,0,1,10.3007,,0,134,134,114,1,pseudoword,0,REAL,FALSA
,,,,,,,,,participant,001,2024-06-30_07h57.29.459,empathy_intonation_perc,2024.1.4,Win32,59.17159763,,,,,,,,,,,,,,54,tapón,,,,,,1384.6952,1395.9946,1,0,10.7749,,0,135,135,53,1,non_cognate,1,REAL,FALSA
,,,,,,,,,participant,001,2024-06-30_07h57.29.459,empathy_intonation_perc,2024.1.4,Win32,59.17159763,,,,,,,,,,,,,,148,gino,,,,,,1395.9948,1405.4783,0,1,8.965,,0,136,136,147,1,pseudoword,0,REAL,FALSA
,,,,,,,,,participant,001,2024-06-30_07h57.29.459,empathy_intonation_perc,2024.1.4,Win32,59.17159763,,,,,,,,,,,,,,98,martir,,,,,,1405.4785,1420.9617,0,1,14.9596,,0,137,137,97,1,pseudoword,0,REAL,FALSA
,,,,,,,,,participant,001,2024-06-30_07h57.29.459,empathy_intonation_perc,2024.1.4,Win32,59.17159763,,,,,,,,,,,,,,44,editor,,,,,,1420.962,1422.6617,0,1,1.1698,,0,138,138,43,1,two_way_cognate,1,REAL,FALSA
,,,,,,,,,participant,001,2024-06-30_07h57.29.459,empathy_intonation_perc,2024.1.4,Win32,59.17159763,,,,,,,,,,,,,,139,sasos,,,,,,1422.6619,1456.3958,0,1,33.2162,,0,139,139,138,1,pseudoword,0,REAL,FALSA
,,,,,,,,,participant,001,2024-06-30_07h57.29.459,empathy_intonation_perc,2024.1.4,Win32,59.17159763,,,,,,,,,,,,,,28,ardor,,,,,,1456.396,1469.0628,0,1,12.1379,,0,140,140,27,1,two_way_cognate,1,REAL,FALSA
,,,,,,,,,participant,001,2024-06-30_07h57.29.459,empathy_intonation_perc,2024.1.4,Win32,59.17159763,,,,,,,,,,,,,,89,muñeca,,,,,,1469.063,1496.58,1,0,26.9921,,0,141,141,88,1,non_cognate,1,REAL,FALSA
,,,,,,,,,participant,001,2024-06-30_07h57.29.459,empathy_intonation_perc,2024.1.4,Win32,59.17159763,,,,,,,,,,,,,,140,chorde,,,,,,1496.5803,1532.4471,0,1,35.3337,,0,142,142,139,1,pseudoword,0,REAL,FALSA
,,,,,,,,,participant,001,2024-06-30_07h57.29.459,empathy_intonation_perc,2024.1.4,Win32,59.17159763,,,,,,,,,,,,,,99,bugor,,,,,,1532.4475,1533.8304,0,1,0.8503,,0,143,143,98,1,pseudoword,0,REAL,FALSA
,,,,,,,,,participant,001,2024-06-30_07h57.29.459,empathy_intonation_perc,2024.1.4,Win32,59.17159763,,,,,,,,,,,,,,67,llamar,,,,,,1533.8308,1553.214,1,0,18.8622,,0,144,144,66,1,non_cognate,1,REAL,FALSA
,,,,,,,,,participant,001,2024-06-30_07h57.29.459,empathy_intonation_perc,2024.1.4,Win32,59.17159763,,,,,,,,,,,,,,190,asumie,,,,,,1553.2143,1566.7143,1,0,12.9647,,0,145,145,189,1,pseudoword,0,REAL,FALSA
,,,,,,,,,participant,001,2024-06-30_07h57.29.459,empathy_intonation_perc,2024.1.4,Win32,59.17159763,,,,,,,,,,,,,,25,vigor,,,,,,1566.7147,1577.781,0,1,10.5399,,0,146,146,24,1,two_way_cognate,1,REAL,FALSA
,,,,,,,,,participant,001,2024-06-30_07h57.29.459,empathy_intonation_perc,2024.1.4,Win32,59.17159763,,,,,,,,,,,,,,24,retina,,,,,,1577.7812,1579.9147,0,1,1.6161,,0,147,147,23,1,three_way_cognate,1,REAL,FALSA
,,,,,,,,,participant,001,2024-06-30_07h57.29.459,empathy_intonation_perc,2024.1.4,Win32,59.17159763,,,,,,,,,,,,,,20,trauma,,,,,,1579.9152,1581.8147,0,1,1.364,,0,148,148,19,1,three_way_cognate,1,REAL,FALSA
,,,,,,,,,participant,001,2024-06-30_07h57.29.459,empathy_intonation_perc,2024.1.4,Win32,59.17159763,,,,,,,,,,,,,,6,horror,,,,,,1581.815,1583.4145,0,1,1.0699,,0,149,149,5,1,three_way_cognate,1,REAL,FALSA
,,,,,,,,,participant,001,2024-06-30_07h57.29.459,empathy_intonation_perc,2024.1.4,Win32,59.17159763,,,,,,,,,,,,,,23,plural,,,,,,1583.4148,1585.5814,0,1,1.6362,,0,150,150,22,1,three_way_cognate,1,REAL,FALSA
,,,,,,,,,participant,001,2024-06-30_07h57.29.459,empathy_intonation_perc,2024.1.4,Win32,59.17159763,,,,,,,,,,,,,,81,sacar,,,,,,1585.5817,1598.5313,0,1,12.4157,,0,151,151,80,1,non_cognate,1,REAL,FALSA
,,,,,,,,,participant,001,2024-06-30_07h57.29.459,empathy_intonation_perc,2024.1.4,Win32,59.17159763,,,,,,,,,,,,,,187,nomata,,,,,,1598.5315,1614.5655,0,1,15.5009,,0,152,152,186,1,pseudoword,0,REAL,FALSA
,,,,,,,,,participant,001,2024-06-30_07h57.29.459,empathy_intonation_perc,2024.1.4,Win32,59.17159763,,,,,,,,,,,,,,52,blando,,,,,,1614.566,1627.2655,1,0,12.1667,,0,153,153,51,1,non_cognate,1,REAL,FALSA
,,,,,,,,,participant,001,2024-06-30_07h57.29.459,empathy_intonation_perc,2024.1.4,Win32,59.17159763,,,,,,,,,,,,,,4,flora,,,,,,1627.2661,1629.249,0,1,1.4456,,0,154,154,3,1,three_way_cognate,1,REAL,FALSA
,,,,,,,,,participant,001,2024-06-30_07h57.29.459,empathy_intonation_perc,2024.1.4,Win32,59.17159763,,,,,,,,,,,,,,176,gripar,,,,,,1629.2496,1640.649,0,1,10.8667,,0,155,155,175,1,pseudoword,0,REAL,FALSA
,,,,,,,,,participant,001,2024-06-30_07h57.29.459,empathy_intonation_perc,2024.1.4,Win32,59.17159763,,,,,,,,,,,,,,33,collar,,,,,,1640.6495,1642.6658,0,1,1.4855,,0,156,156,32,1,two_way_cognate,1,REAL,FALSA
,,,,,,,,,participant,001,2024-06-30_07h57.29.459,empathy_intonation_perc,2024.1.4,Win32,59.17159763,,,,,,,,,,,,,,159,trcia,,,,,,1642.6664,1659.9497,0,1,16.7536,,0,157,157,158,1,pseudoword,0,REAL,FALSA
,,,,,,,,,participant,001,2024-06-30_07h57.29.459,empathy_intonation_perc,2024.1.4,Win32,59.17159763,,,,,,,,,,,,,,111,monue,,,,,,1659.9503,1681.683,0,1,21.1996,,0,158,158,110,1,pseudoword,0,REAL,FALSA
,,,,,,,,,participant,001,2024-06-30_07h57.29.459,empathy_intonation_perc,2024.1.4,Win32,59.17159763,,,,,,,,,,,,,,102,coyo,,,,,,1681.6834,1691.7666,0,1,9.5513,,0,159,159,101,1,pseudoword,0,REAL,FALSA
,,,,,,,,,participant,001,2024-06-30_07h57.29.459,empathy_intonation_perc,2024.1.4,Win32,59.17159763,,,,,,,,,,,,,,45,total,,,,,,1691.767,1693.7165,0,1,1.4176,,0,160,160,44,1,two_way_cognate,1,REAL,FALSA
,,,,,,,,,participant,001,2024-06-30_07h57.29.459,empathy_intonation_perc,2024.1.4,Win32,59.17159763,,,,,,,,,,,,,,126,tobre,,,,,,1693.7167,1704.1505,0,1,9.9038,,0,161,161,125,1,pseudoword,0,REAL,FALSA
,,,,,,,,,participant,001,2024-06-30_07h57.29.459,empathy_intonation_perc,2024.1.4,Win32,59.17159763,,,,,,,,,,,,,,14,aura,,,,,,1704.151,1706.2998,0,1,1.6149,,0,162,162,13,1,three_way_cognate,1,REAL,FALSA
,,,,,,,,,participant,001,2024-06-30_07h57.29.459,empathy_intonation_perc,2024.1.4,Win32,59.17159763,,,,,,,,,,,,,,87,muleta,,,,,,1706.3,1714.8502,1,0,8.0239,,0,163,163,86,1,non_cognate,1,REAL,FALSA
,,,,,,,,,participant,001,2024-06-30_07h57.29.459,empathy_intonation_perc,2024.1.4,Win32,59.17159763,,,,,,,,,,,,,,90,venado,,,,,,1714.8505,1724.6006,1,0,9.217,,0,164,164,89,1,non_cognate,1,REAL,FALSA
,,,,,,,,,participant,001,2024-06-30_07h57.29.459,empathy_intonation_perc,2024.1.4,Win32,59.17159763,,,,,,,,,,,,,,50,sierra,,,,,,1724.601,1733.4843,0,1,8.3476,,0,165,165,49,1,non_cognate,1,REAL,FALSA
,,,,,,,,,participant,001,2024-06-30_07h57.29.459,empathy_intonation_perc,2024.1.4,Win32,59.17159763,,,,,,,,,,,,,,172,dogue,,,,,,1733.4849,1743.901,0,1,9.8826,,0,166,166,171,1,pseudoword,0,REAL,FALSA
,,,,,,,,,participant,001,2024-06-30_07h57.29.459,empathy_intonation_perc,2024.1.4,Win32,59.17159763,,,,,,,,,,,,,,110,densó,,,,,,1743.9017,1878.4364,0,1,134.0085,,0,167,167,109,1,pseudoword,0,REAL,FALSA
,,,,,,,,,participant,001,2024-06-30_07h57.29.459,empathy_intonation_perc,2024.1.4,Win32,59.17159763,,,,,,,,,,,,,,97,nocita,,,,,,1878.4371,1886.6864,1,0,7.7143,,0,168,168,96,1,pseudoword,0,REAL,FALSA
,,,,,,,,,participant,001,2024-06-30_07h57.29.459,empathy_intonation_perc,2024.1.4,Win32,59.17159763,,,,,,,,,,,,,,106,diebro,,,,,,1886.6869,1894.8695,0,1,7.6492,,0,169,169,105,1,pseudoword,0,REAL,FALSA
,,,,,,,,,participant,001,2024-06-30_07h57.29.459,empathy_intonation_perc,2024.1.4,Win32,59.17159763,,,,,,,,,,,,,,18,altar,,,,,,1894.8698,1900.5201,0,1,5.1177,,0,170,170,17,1,three_way_cognate,1,REAL,FALSA
,,,,,,,,,participant,001,2024-06-30_07h57.29.459,empathy_intonation_perc,2024.1.4,Win32,59.17159763,,,,,,,,,,,,,,57,regalo,,,,,,1900.5206,1910.5034,0,1,9.4562,,0,171,171,56,1,non_cognate,1,REAL,FALSA
,,,,,,,,,participant,001,2024-06-30_07h57.29.459,empathy_intonation_perc,2024.1.4,Win32,59.17159763,,,,,,,,,,,,,,46,mortal,,,,,,1910.5036,1911.7369,0,1,0.7037,,0,172,172,45,1,two_way_cognate,1,REAL,FALSA
,,,,,,,,,participant,001,2024-06-30_07h57.29.459,empathy_intonation_perc,2024.1.4,Win32,59.17159763,,,,,,,,,,,,,,16,chat,,,,,,1911.7373,1912.7369,0,1,0.4712,,0,173,173,15,1,three_way_cognate,1,REAL,FALSA
,,,,,,,,,participant,001,2024-06-30_07h57.29.459,empathy_intonation_perc,2024.1.4,Win32,59.17159763,,,,,,,,,,,,,,86,cuenco,,,,,,1912.7373,1915.7367,1,0,2.4677,,0,174,174,85,1,non_cognate,1,REAL,FALSA
,,,,,,,,,participant,001,2024-06-30_07h57.29.459,empathy_intonation_perc,2024.1.4,Win32,59.17159763,,,,,,,,,,,,,,136,hueas,,,,,,1915.737,1917.4367,0,1,1.1672,,0,175,175,135,1,pseudoword,0,REAL,FALSA
,,,,,,,,,participant,001,2024-06-30_07h57.29.459,empathy_intonation_perc,2024.1.4,Win32,59.17159763,,,,,,,,,,,,,,149,emén,,,,,,1917.4369,1931.4701,0,1,13.5003,,0,176,176,148,1,pseudoword,0,REAL,FALSA
,,,,,,,,,participant,001,2024-06-30_07h57.29.459,empathy_intonation_perc,2024.1.4,Win32,59.17159763,,,,,,,,,,,,,,19,mafia,,,,,,1931.4703,1933.1202,0,1,1.1414,,0,177,177,18,1,three_way_cognate,1,REAL,FALSA
,,,,,,,,,participant,001,2024-06-30_07h57.29.459,empathy_intonation_perc,2024.1.4,Win32,59.17159763,,,,,,,,,,,,,,91,equipo,,,,,,1933.1204,1941.554,1,0,7.9203,,0,178,178,90,1,non_cognate,1,REAL,FALSA
,,,,,,,,,participant,001,2024-06-30_07h57.29.459,empathy_intonation_perc,2024.1.4,Win32,59.17159763,,,,,,,,,,,,,,192,próces,,,,,,1941.5544,1950.7544,0,1,8.6667,,0,179,179,191,1,pseudoword,0,REAL,FALSA
,,,,,,,,,participant,001,2024-06-30_07h57.29.459,empathy_intonation_perc,2024.1.4,Win32,59.17159763,,,,,,,,,,,,,,51,listo,,,,,,1950.7549,1960.2375,0,1,8.9516,,0,180,180,50,1,non_cognate,1,REAL,FALSA
,,,,,,,,,participant,001,2024-06-30_07h57.29.459,empathy_intonation_perc,2024.1.4,Win32,59.17159763,,,,,,,,,,,,,,191,frasis,,,,,,1960.2378,1964.2043,0,1,3.4328,,0,181,181,190,1,pseudoword,0,REAL,FALSA
,,,,,,,,,participant,001,2024-06-30_07h57.29.459,empathy_intonation_perc,2024.1.4,Win32,59.17159763,,,,,,,,,,,,,,113,nasce,,,,,,1964.2046,1965.8876,0,1,1.148,,0,182,182,112,1,pseudoword,0,REAL,FALSA
,,,,,,,,,participant,001,2024-06-30_07h57.29.459,empathy_intonation_perc,2024.1.4,Win32,59.17159763,,,,,,,,,,,,,,29,clamor,,,,,,1965.8878,1967.2207,0,1,0.8123,,0,183,183,28,1,two_way_cognate,1,REAL,FALSA
,,,,,,,,,participant,001,2024-06-30_07h57.29.459,empathy_intonation_perc,2024.1.4,Win32,59.17159763,,,,,,,,,,,,,,9,portal,,,,,,1967.2208,1968.4209,0,1,0.6783,,0,184,184,8,1,three_way_cognate,1,REAL,FALSA
,,,,,,,,,participant,001,2024-06-30_07h57.29.459,empathy_intonation_perc,2024.1.4,Win32,59.17159763,,,,,,,,,,,,,,158,babrá,,,,,,1968.4213,1977.3375,0,1,8.3948,,0,185,185,157,1,pseudoword,0,REAL,FALSA
,,,,,,,,,participant,001,2024-06-30_07h57.29.459,empathy_intonation_perc,2024.1.4,Win32,59.17159763,,,,,,,,,,,,,,177,entodo,,,,,,1977.3376,1981.988,0,1,4.1392,,0,186,186,176,1,pseudoword,0,REAL,FALSA
,,,,,,,,,participant,001,2024-06-30_07h57.29.459,empathy_intonation_perc,2024.1.4,Win32,59.17159763,,,,,,,,,,,,,,37,torso,,,,,,1981.9884,1990.2711,0,1,7.7599,,0,187,187,36,1,two_way_cognate,1,REAL,FALSA
,,,,,,,,,participant,001,2024-06-30_07h57.29.459,empathy_intonation_perc,2024.1.4,Win32,59.17159763,,,,,,,,,,,,,,83,hálito,,,,,,1990.2715,1996.7379,0,1,5.9528,,0,188,188,82,1,non_cognate,1,REAL,FALSA
,,,,,,,,,participant,001,2024-06-30_07h57.29.459,empathy_intonation_perc,2024.1.4,Win32,59.17159763,,,,,,,,,,,,,,162,cengo,,,,,,1996.7381,2005.2714,0,1,8.0107,,0,189,189,161,1,pseudoword,0,REAL,FALSA
,,,,,,,,,participant,001,2024-06-30_07h57.29.459,empathy_intonation_perc,2024.1.4,Win32,59.17159763,,,,,,,,,,,,,,151,prías,,,,,,2005.2716,2009.4047,0,1,3.6083,,0,190,190,150,1,pseudoword,0,REAL,FALSA
,,,,,,,,,participant,001,2024-06-30_07h57.29.459,empathy_intonation_perc,2024.1.4,Win32,59.17159763,,,,,,,,,,,,,,124,lobe,,,,,,2009.4049,2018.9717,0,1,9.0578,,0,191,191,123,1,pseudoword,0,REAL,FALSA
