"","participant","source","word","type","correct_reponse","key_resp_lextale_trial.keys","key_resp_lextale_trial.corr","key_resp_lextale_trial.rt","group","is_correct","log_rt"
"1","5a06ebf2c259f300017656ee","5a06ebf2c259f300017656ee_empathy_intonation_perc_2025-04-30_10h01.31.083.csv","medium","pseudoword","0","1","0",1.888,"L3_group",0,0.635518067723309
"2","5a06ebf2c259f300017656ee","5a06ebf2c259f300017656ee_empathy_intonation_perc_2025-04-30_10h01.31.083.csv","cuenco","non_cognate","1","1","0",1.535,"L3_group",1,0.42853038103916
"3","5a06ebf2c259f300017656ee","5a06ebf2c259f300017656ee_empathy_intonation_perc_2025-04-30_10h01.31.083.csv","patada","non_cognate","1","1","0",1.223,"L3_group",1,0.201306856705035
"4","5a06ebf2c259f300017656ee","5a06ebf2c259f300017656ee_empathy_intonation_perc_2025-04-30_10h01.31.083.csv","nomata","pseudoword","0","0","1",1.816,"L3_group",1,0.596636280179102
"5","5a06ebf2c259f300017656ee","5a06ebf2c259f300017656ee_empathy_intonation_perc_2025-04-30_10h01.31.083.csv","tiza","non_cognate","1","1","0",0.832,"L3_group",1,-0.183922838160928
"6","5a06ebf2c259f300017656ee","5a06ebf2c259f300017656ee_empathy_intonation_perc_2025-04-30_10h01.31.083.csv","bugor","pseudoword","0","0","1",0.668,"L3_group",1,-0.403467105445491
"7","5a06ebf2c259f300017656ee","5a06ebf2c259f300017656ee_empathy_intonation_perc_2025-04-30_10h01.31.083.csv","entodo","pseudoword","0","1","0",0.527,"L3_group",0,-0.640554730440775
"8","5a06ebf2c259f300017656ee","5a06ebf2c259f300017656ee_empathy_intonation_perc_2025-04-30_10h01.31.083.csv","kugis","pseudoword","0","1","0",0.651,"L3_group",0,-0.429245636773568
"9","5a06ebf2c259f300017656ee","5a06ebf2c259f300017656ee_empathy_intonation_perc_2025-04-30_10h01.31.083.csv","altar","three_way_cognate","1","1","0",0.567,"L3_group",1,-0.567395975254385
"10","5a06ebf2c259f300017656ee","5a06ebf2c259f300017656ee_empathy_intonation_perc_2025-04-30_10h01.31.083.csv","listo","non_cognate","1","1","0",0.624,"L3_group",1,-0.471604910612709
"11","5a06ebf2c259f300017656ee","5a06ebf2c259f300017656ee_empathy_intonation_perc_2025-04-30_10h01.31.083.csv","torta","non_cognate","1","1","0",0.78,"L3_group",1,-0.2484613592985
"12","5a06ebf2c259f300017656ee","5a06ebf2c259f300017656ee_empathy_intonation_perc_2025-04-30_10h01.31.083.csv","nasce","pseudoword","0","0","1",0.65,"L3_group",1,-0.430782916092454
"13","5a06ebf2c259f300017656ee","5a06ebf2c259f300017656ee_empathy_intonation_perc_2025-04-30_10h01.31.083.csv","chat","three_way_cognate","1","0","1",0.663,"L3_group",0,-0.410980288796275
"14","5a06ebf2c259f300017656ee","5a06ebf2c259f300017656ee_empathy_intonation_perc_2025-04-30_10h01.31.083.csv","vinzó","pseudoword","0","1","0",0.716,"L3_group",0,-0.334075112021491
"15","5a06ebf2c259f300017656ee","5a06ebf2c259f300017656ee_empathy_intonation_perc_2025-04-30_10h01.31.083.csv","ánimo","non_cognate","1","1","0",0.632,"L3_group",1,-0.45886588483528
"16","5a06ebf2c259f300017656ee","5a06ebf2c259f300017656ee_empathy_intonation_perc_2025-04-30_10h01.31.083.csv","tumor","three_way_cognate","1","1","0",0.644,"L3_group",1,-0.440056552877783
"17","5a06ebf2c259f300017656ee","5a06ebf2c259f300017656ee_empathy_intonation_perc_2025-04-30_10h01.31.083.csv","suelo","non_cognate","1","0","1",0.62,"L3_group",0,-0.478035800943
"18","5a06ebf2c259f300017656ee","5a06ebf2c259f300017656ee_empathy_intonation_perc_2025-04-30_10h01.31.083.csv","pabea","pseudoword","0","1","0",0.918,"L3_group",0,-0.0855578883616465
"19","5a06ebf2c259f300017656ee","5a06ebf2c259f300017656ee_empathy_intonation_perc_2025-04-30_10h01.31.083.csv","retina","three_way_cognate","1","1","0",0.505,"L3_group",1,-0.683196849706777
"20","5a06ebf2c259f300017656ee","5a06ebf2c259f300017656ee_empathy_intonation_perc_2025-04-30_10h01.31.083.csv","forro","non_cognate","1","1","0",0.709,"L3_group",1,-0.34389975245001
"21","5a06ebf2c259f300017656ee","5a06ebf2c259f300017656ee_empathy_intonation_perc_2025-04-30_10h01.31.083.csv","rostro","non_cognate","1","1","0",1.234,"L3_group",1,0.210260925483196
"22","5a06ebf2c259f300017656ee","5a06ebf2c259f300017656ee_empathy_intonation_perc_2025-04-30_10h01.31.083.csv","trcia","pseudoword","0","1","0",0.941,"L3_group",0,-0.0608121393967575
"23","5a06ebf2c259f300017656ee","5a06ebf2c259f300017656ee_empathy_intonation_perc_2025-04-30_10h01.31.083.csv","golf","three_way_cognate","1","1","0",1.229,"L3_group",1,0.206200830583898
"24","5a06ebf2c259f300017656ee","5a06ebf2c259f300017656ee_empathy_intonation_perc_2025-04-30_10h01.31.083.csv","arane","pseudoword","0","1","0",0.722,"L3_group",0,-0.325730140089311
"25","5a06ebf2c259f300017656ee","5a06ebf2c259f300017656ee_empathy_intonation_perc_2025-04-30_10h01.31.083.csv","plan","three_way_cognate","1","1","0",1.381,"L3_group",1,0.322807874427155
"26","5a06ebf2c259f300017656ee","5a06ebf2c259f300017656ee_empathy_intonation_perc_2025-04-30_10h01.31.083.csv","grigir","pseudoword","0","1","0",1.318,"L3_group",0,0.276115436080316
"27","5a06ebf2c259f300017656ee","5a06ebf2c259f300017656ee_empathy_intonation_perc_2025-04-30_10h01.31.083.csv","vueras","pseudoword","0","1","0",1.211,"L3_group",0,0.191446464570955
"28","5a06ebf2c259f300017656ee","5a06ebf2c259f300017656ee_empathy_intonation_perc_2025-04-30_10h01.31.083.csv","flora","three_way_cognate","1","0","1",0.886,"L3_group",0,-0.121038328377056
"29","5a06ebf2c259f300017656ee","5a06ebf2c259f300017656ee_empathy_intonation_perc_2025-04-30_10h01.31.083.csv","gino","pseudoword","0","1","0",1.078,"L3_group",0,0.0751074724868055
"30","5a06ebf2c259f300017656ee","5a06ebf2c259f300017656ee_empathy_intonation_perc_2025-04-30_10h01.31.083.csv","rizado","non_cognate","1","1","0",1.717,"L3_group",1,0.540578581915338
"31","5a06ebf2c259f300017656ee","5a06ebf2c259f300017656ee_empathy_intonation_perc_2025-04-30_10h01.31.083.csv","trauma","three_way_cognate","1","1","0",0.855,"L3_group",1,-0.156653810045377
"32","5a06ebf2c259f300017656ee","5a06ebf2c259f300017656ee_empathy_intonation_perc_2025-04-30_10h01.31.083.csv","samón","pseudoword","0","1","0",0.799,"L3_group",0,-0.224394333215862
"33","5a06ebf2c259f300017656ee","5a06ebf2c259f300017656ee_empathy_intonation_perc_2025-04-30_10h01.31.083.csv","dibrea","pseudoword","0","0","1",0.831,"L3_group",1,-0.185125484126689
"34","5a06ebf2c259f300017656ee","5a06ebf2c259f300017656ee_empathy_intonation_perc_2025-04-30_10h01.31.083.csv","fuar","pseudoword","0","1","0",1.505,"L3_group",0,0.408792898200839
"35","5a06ebf2c259f300017656ee","5a06ebf2c259f300017656ee_empathy_intonation_perc_2025-04-30_10h01.31.083.csv","gripar","pseudoword","0","0","1",0.978,"L3_group",1,-0.0222456089473197
"36","5a06ebf2c259f300017656ee","5a06ebf2c259f300017656ee_empathy_intonation_perc_2025-04-30_10h01.31.083.csv","caro","non_cognate","1","1","0",1.43,"L3_group",1,0.357674444271816
"37","5a06ebf2c259f300017656ee","5a06ebf2c259f300017656ee_empathy_intonation_perc_2025-04-30_10h01.31.083.csv","esís","pseudoword","0","1","0",0.858,"L3_group",0,-0.153151179494175
"38","5a06ebf2c259f300017656ee","5a06ebf2c259f300017656ee_empathy_intonation_perc_2025-04-30_10h01.31.083.csv","feo","non_cognate","1","1","0",0.825,"L3_group",1,-0.192371892647456
"39","5a06ebf2c259f300017656ee","5a06ebf2c259f300017656ee_empathy_intonation_perc_2025-04-30_10h01.31.083.csv","parre","pseudoword","0","1","0",0.846,"L3_group",0,-0.167235919375914
"40","5a06ebf2c259f300017656ee","5a06ebf2c259f300017656ee_empathy_intonation_perc_2025-04-30_10h01.31.083.csv","guerra","non_cognate","1","1","0",0.891,"L3_group",1,-0.115410851511328
"41","5a06ebf2c259f300017656ee","5a06ebf2c259f300017656ee_empathy_intonation_perc_2025-04-30_10h01.31.083.csv","épinas","pseudoword","0","1","0",1.009,"L3_group",0,0.0089597413714718
"42","5a06ebf2c259f300017656ee","5a06ebf2c259f300017656ee_empathy_intonation_perc_2025-04-30_10h01.31.083.csv","animal","two_way_cognate","1","1","0",0.933,"L3_group",1,-0.0693500781347932
"43","5a06ebf2c259f300017656ee","5a06ebf2c259f300017656ee_empathy_intonation_perc_2025-04-30_10h01.31.083.csv","sierra","non_cognate","1","0","1",0.81,"L3_group",0,-0.210721031315653
"44","5a06ebf2c259f300017656ee","5a06ebf2c259f300017656ee_empathy_intonation_perc_2025-04-30_10h01.31.083.csv","enorme","non_cognate","1","0","1",0.716,"L3_group",0,-0.334075112021491
"45","5a06ebf2c259f300017656ee","5a06ebf2c259f300017656ee_empathy_intonation_perc_2025-04-30_10h01.31.083.csv","peniz","pseudoword","0","1","0",1.002,"L3_group",0,0.00199800266267306
"46","5a06ebf2c259f300017656ee","5a06ebf2c259f300017656ee_empathy_intonation_perc_2025-04-30_10h01.31.083.csv","prave","pseudoword","0","1","0",0.938,"L3_group",0,-0.0640053299759124
"47","5a06ebf2c259f300017656ee","5a06ebf2c259f300017656ee_empathy_intonation_perc_2025-04-30_10h01.31.083.csv","conso","pseudoword","0","1","0",0.641,"L3_group",0,-0.444725822061467
"48","5a06ebf2c259f300017656ee","5a06ebf2c259f300017656ee_empathy_intonation_perc_2025-04-30_10h01.31.083.csv","rúo","pseudoword","0","0","1",0.863,"L3_group",1,-0.147340587898709
"49","5a06ebf2c259f300017656ee","5a06ebf2c259f300017656ee_empathy_intonation_perc_2025-04-30_10h01.31.083.csv","puñal","non_cognate","1","1","0",1.678,"L3_group",1,0.517602608045014
"50","5a06ebf2c259f300017656ee","5a06ebf2c259f300017656ee_empathy_intonation_perc_2025-04-30_10h01.31.083.csv","honor","two_way_cognate","1","1","0",1.01,"L3_group",1,0.00995033085316809
"51","5a06ebf2c259f300017656ee","5a06ebf2c259f300017656ee_empathy_intonation_perc_2025-04-30_10h01.31.083.csv","fiscal","two_way_cognate","1","1","0",0.851,"L3_group",1,-0.161343150408763
"52","5a06ebf2c259f300017656ee","5a06ebf2c259f300017656ee_empathy_intonation_perc_2025-04-30_10h01.31.083.csv","test","three_way_cognate","1","1","0",0.552,"L3_group",1,-0.594207232705042
"53","5a06ebf2c259f300017656ee","5a06ebf2c259f300017656ee_empathy_intonation_perc_2025-04-30_10h01.31.083.csv","desaro","pseudoword","0","1","0",1.059,"L3_group",0,0.0573250666192694
"54","5a06ebf2c259f300017656ee","5a06ebf2c259f300017656ee_empathy_intonation_perc_2025-04-30_10h01.31.083.csv","anfia","pseudoword","0","1","0",1.326,"L3_group",0,0.282166891763671
"55","5a06ebf2c259f300017656ee","5a06ebf2c259f300017656ee_empathy_intonation_perc_2025-04-30_10h01.31.083.csv","vien","pseudoword","0","1","0",0.908,"L3_group",0,-0.0965109003808437
"56","5a06ebf2c259f300017656ee","5a06ebf2c259f300017656ee_empathy_intonation_perc_2025-04-30_10h01.31.083.csv","harvé","pseudoword","0","1","0",0.946,"L3_group",0,-0.0555127099302588
"57","5a06ebf2c259f300017656ee","5a06ebf2c259f300017656ee_empathy_intonation_perc_2025-04-30_10h01.31.083.csv","mibro","pseudoword","0","1","0",0.908,"L3_group",0,-0.0965109003808437
"58","5a06ebf2c259f300017656ee","5a06ebf2c259f300017656ee_empathy_intonation_perc_2025-04-30_10h01.31.083.csv","mango","three_way_cognate","1","1","0",1.124,"L3_group",1,0.116893751471499
"59","5a06ebf2c259f300017656ee","5a06ebf2c259f300017656ee_empathy_intonation_perc_2025-04-30_10h01.31.083.csv","cobén","pseudoword","0","0","1",0.65,"L3_group",1,-0.430782916092454
"60","5a06ebf2c259f300017656ee","5a06ebf2c259f300017656ee_empathy_intonation_perc_2025-04-30_10h01.31.083.csv","equipo","non_cognate","1","0","1",0.862,"L3_group",0,-0.148500008318444
"61","5a06ebf2c259f300017656ee","5a06ebf2c259f300017656ee_empathy_intonation_perc_2025-04-30_10h01.31.083.csv","mauja","pseudoword","0","0","1",1.209,"L3_group",1,0.189793571632656
"62","5a06ebf2c259f300017656ee","5a06ebf2c259f300017656ee_empathy_intonation_perc_2025-04-30_10h01.31.083.csv","edioso","pseudoword","0","1","0",1.521,"L3_group",0,0.419368013277156
"63","5a06ebf2c259f300017656ee","5a06ebf2c259f300017656ee_empathy_intonation_perc_2025-04-30_10h01.31.083.csv","torso","two_way_cognate","1","1","0",0.561,"L3_group",1,-0.578034373459441
"64","5a06ebf2c259f300017656ee","5a06ebf2c259f300017656ee_empathy_intonation_perc_2025-04-30_10h01.31.083.csv","rumor","two_way_cognate","1","1","0",1.044,"L3_group",1,0.043059489460447
"65","5a06ebf2c259f300017656ee","5a06ebf2c259f300017656ee_empathy_intonation_perc_2025-04-30_10h01.31.083.csv","losco","pseudoword","0","1","0",1.113,"L3_group",0,0.107059072293408
"66","5a06ebf2c259f300017656ee","5a06ebf2c259f300017656ee_empathy_intonation_perc_2025-04-30_10h01.31.083.csv","rendir","non_cognate","1","1","0",0.978,"L3_group",1,-0.0222456089473197
"67","5a06ebf2c259f300017656ee","5a06ebf2c259f300017656ee_empathy_intonation_perc_2025-04-30_10h01.31.083.csv","cuenco","non_cognate","1","1","0",0.975,"L3_group",1,-0.0253178079842899
"68","5a06ebf2c259f300017656ee","5a06ebf2c259f300017656ee_empathy_intonation_perc_2025-04-30_10h01.31.083.csv","pelvis","two_way_cognate","1","0","1",1.327,"L3_group",0,0.28292075535007
"69","5a06ebf2c259f300017656ee","5a06ebf2c259f300017656ee_empathy_intonation_perc_2025-04-30_10h01.31.083.csv","babrá","pseudoword","0","1","0",1.155,"L3_group",0,0.144100343973757
"70","5a06ebf2c259f300017656ee","5a06ebf2c259f300017656ee_empathy_intonation_perc_2025-04-30_10h01.31.083.csv","hotel","three_way_cognate","1","1","0",0.931,"L3_group",1,-0.0714960017050699
"71","5a06ebf2c259f300017656ee","5a06ebf2c259f300017656ee_empathy_intonation_perc_2025-04-30_10h01.31.083.csv","aduana","non_cognate","1","1","0",1.083,"L3_group",1,0.0797349680188535
"72","5a06ebf2c259f300017656ee","5a06ebf2c259f300017656ee_empathy_intonation_perc_2025-04-30_10h01.31.083.csv","regalo","non_cognate","1","1","0",0.664,"L3_group",1,-0.409473129505703
"73","5a06ebf2c259f300017656ee","5a06ebf2c259f300017656ee_empathy_intonation_perc_2025-04-30_10h01.31.083.csv","collar","two_way_cognate","1","1","0",1.549,"L3_group",1,0.437609561434732
"74","5a06ebf2c259f300017656ee","5a06ebf2c259f300017656ee_empathy_intonation_perc_2025-04-30_10h01.31.083.csv","morrá","pseudoword","0","0","1",0.658,"L3_group",1,-0.41855034765682
"75","5a06ebf2c259f300017656ee","5a06ebf2c259f300017656ee_empathy_intonation_perc_2025-04-30_10h01.31.083.csv","pelvis","two_way_cognate","1","1","0",0.859,"L3_group",1,-0.151986356997882
"76","5a06ebf2c259f300017656ee","5a06ebf2c259f300017656ee_empathy_intonation_perc_2025-04-30_10h01.31.083.csv","pasta","two_way_cognate","1","1","0",0.824,"L3_group",1,-0.193584749072665
"77","5a06ebf2c259f300017656ee","5a06ebf2c259f300017656ee_empathy_intonation_perc_2025-04-30_10h01.31.083.csv","pegar","non_cognate","1","1","0",0.839,"L3_group",1,-0.175544572514931
"78","5a06ebf2c259f300017656ee","5a06ebf2c259f300017656ee_empathy_intonation_perc_2025-04-30_10h01.31.083.csv","lobe","pseudoword","0","1","0",0.664,"L3_group",0,-0.409473129505703
"79","5a06ebf2c259f300017656ee","5a06ebf2c259f300017656ee_empathy_intonation_perc_2025-04-30_10h01.31.083.csv","vigor","two_way_cognate","1","0","1",0.823,"L3_group",0,-0.194799078305067
"80","5a06ebf2c259f300017656ee","5a06ebf2c259f300017656ee_empathy_intonation_perc_2025-04-30_10h01.31.083.csv","aleta","non_cognate","1","1","0",0.673,"L3_group",1,-0.396009949337409
"81","5a06ebf2c259f300017656ee","5a06ebf2c259f300017656ee_empathy_intonation_perc_2025-04-30_10h01.31.083.csv","extra","three_way_cognate","1","0","1",0.905,"L3_group",0,-0.0998203352822109
"82","5a06ebf2c259f300017656ee","5a06ebf2c259f300017656ee_empathy_intonation_perc_2025-04-30_10h01.31.083.csv","teñir","non_cognate","1","0","1",0.823,"L3_group",0,-0.194799078305067
"83","5a06ebf2c259f300017656ee","5a06ebf2c259f300017656ee_empathy_intonation_perc_2025-04-30_10h01.31.083.csv","halo","two_way_cognate","1","1","0",1.285,"L3_group",1,0.250758718347183
"84","5a06ebf2c259f300017656ee","5a06ebf2c259f300017656ee_empathy_intonation_perc_2025-04-30_10h01.31.083.csv","enigma","two_way_cognate","1","1","0",0.697,"L3_group",1,-0.360969868221613
"85","5a06ebf2c259f300017656ee","5a06ebf2c259f300017656ee_empathy_intonation_perc_2025-04-30_10h01.31.083.csv","barbs","pseudoword","0","1","0",1.196,"L3_group",0,0.17898265552844
"86","5a06ebf2c259f300017656ee","5a06ebf2c259f300017656ee_empathy_intonation_perc_2025-04-30_10h01.31.083.csv","venado","non_cognate","1","0","1",0.986,"L3_group",0,-0.0140989243795016
"87","5a06ebf2c259f300017656ee","5a06ebf2c259f300017656ee_empathy_intonation_perc_2025-04-30_10h01.31.083.csv","estulo","pseudoword","0","1","0",0.616,"L3_group",0,-0.484508315448617
"88","5a06ebf2c259f300017656ee","5a06ebf2c259f300017656ee_empathy_intonation_perc_2025-04-30_10h01.31.083.csv","diroco","pseudoword","0","1","0",0.818,"L3_group",0,-0.20089294237939
"89","5a06ebf2c259f300017656ee","5a06ebf2c259f300017656ee_empathy_intonation_perc_2025-04-30_10h01.31.083.csv","próces","pseudoword","0","1","0",1.075,"L3_group",0,0.0723206615796261
"90","5a06ebf2c259f300017656ee","5a06ebf2c259f300017656ee_empathy_intonation_perc_2025-04-30_10h01.31.083.csv","civil","two_way_cognate","1","0","1",1.182,"L3_group",0,0.167207918983906
"91","5a06ebf2c259f300017656ee","5a06ebf2c259f300017656ee_empathy_intonation_perc_2025-04-30_10h01.31.083.csv","llamar","non_cognate","1","1","0",1.014,"L3_group",1,0.0139029051689914
"92","5a06ebf2c259f300017656ee","5a06ebf2c259f300017656ee_empathy_intonation_perc_2025-04-30_10h01.31.083.csv","mortal","two_way_cognate","1","0","1",0.836,"L3_group",0,-0.179126665897435
"93","5a06ebf2c259f300017656ee","5a06ebf2c259f300017656ee_empathy_intonation_perc_2025-04-30_10h01.31.083.csv","colcha","non_cognate","1","1","0",1.244,"L3_group",1,0.218331994316988
"94","5a06ebf2c259f300017656ee","5a06ebf2c259f300017656ee_empathy_intonation_perc_2025-04-30_10h01.31.083.csv","chote","pseudoword","0","1","0",0.97,"L3_group",0,-0.0304592074847086
"95","5a06ebf2c259f300017656ee","5a06ebf2c259f300017656ee_empathy_intonation_perc_2025-04-30_10h01.31.083.csv","suelet","pseudoword","0","1","0",0.682,"L3_group",0,-0.382725621138675
"96","5a06ebf2c259f300017656ee","5a06ebf2c259f300017656ee_empathy_intonation_perc_2025-04-30_10h01.31.083.csv","laras","pseudoword","0","0","1",0.976,"L3_group",1,-0.0242926925690446
"97","5a06ebf2c259f300017656ee","5a06ebf2c259f300017656ee_empathy_intonation_perc_2025-04-30_10h01.31.083.csv","pupica","pseudoword","0","1","0",1.201,"L3_group",0,0.183154543097847
"98","5a06ebf2c259f300017656ee","5a06ebf2c259f300017656ee_empathy_intonation_perc_2025-04-30_10h01.31.083.csv","nocita","pseudoword","0","1","0",1.143,"L3_group",0,0.133656384812674
"99","5a06ebf2c259f300017656ee","5a06ebf2c259f300017656ee_empathy_intonation_perc_2025-04-30_10h01.31.083.csv","virios","pseudoword","0","1","0",0.83,"L3_group",0,-0.186329578191493
"100","5a06ebf2c259f300017656ee","5a06ebf2c259f300017656ee_empathy_intonation_perc_2025-04-30_10h01.31.083.csv","seled","pseudoword","0","0","1",1.89,"L3_group",1,0.636576829071551
"101","5a06ebf2c259f300017656ee","5a06ebf2c259f300017656ee_empathy_intonation_perc_2025-04-30_10h01.31.083.csv","clan","three_way_cognate","1","0","1",1.05,"L3_group",0,0.048790164169432
"102","5a06ebf2c259f300017656ee","5a06ebf2c259f300017656ee_empathy_intonation_perc_2025-04-30_10h01.31.083.csv","muleta","non_cognate","1","1","0",1.317,"L3_group",1,0.275356422761144
"103","5a06ebf2c259f300017656ee","5a06ebf2c259f300017656ee_empathy_intonation_perc_2025-04-30_10h01.31.083.csv","siglo","non_cognate","1","1","0",0.757,"L3_group",1,-0.278392025544688
"104","5a06ebf2c259f300017656ee","5a06ebf2c259f300017656ee_empathy_intonation_perc_2025-04-30_10h01.31.083.csv","aurora","two_way_cognate","1","0","1",1.354,"L3_group",0,0.303063174490083
"105","5a06ebf2c259f300017656ee","5a06ebf2c259f300017656ee_empathy_intonation_perc_2025-04-30_10h01.31.083.csv","cricó","pseudoword","0","0","1",1.464,"L3_group",1,0.38117241553912
"106","5a06ebf2c259f300017656ee","5a06ebf2c259f300017656ee_empathy_intonation_perc_2025-04-30_10h01.31.083.csv","suave","non_cognate","1","0","1",1.925,"L3_group",0,0.654925967739748
"107","5a06ebf2c259f300017656ee","5a06ebf2c259f300017656ee_empathy_intonation_perc_2025-04-30_10h01.31.083.csv","tobre","pseudoword","0","0","1",1.396,"L3_group",1,0.333611004340181
"108","5a06ebf2c259f300017656ee","5a06ebf2c259f300017656ee_empathy_intonation_perc_2025-04-30_10h01.31.083.csv","panté","pseudoword","0","1","0",1.183,"L3_group",0,0.16805358499625
"109","5a06ebf2c259f300017656ee","5a06ebf2c259f300017656ee_empathy_intonation_perc_2025-04-30_10h01.31.083.csv","gió","pseudoword","0","1","0",1.353,"L3_group",0,0.302324349188651
"110","5a06ebf2c259f300017656ee","5a06ebf2c259f300017656ee_empathy_intonation_perc_2025-04-30_10h01.31.083.csv","hueas","pseudoword","0","1","0",1.257,"L3_group",0,0.22872792960811
"111","5a06ebf2c259f300017656ee","5a06ebf2c259f300017656ee_empathy_intonation_perc_2025-04-30_10h01.31.083.csv","aura","three_way_cognate","1","1","0",1.048,"L3_group",1,0.0468835858988505
"112","5a06ebf2c259f300017656ee","5a06ebf2c259f300017656ee_empathy_intonation_perc_2025-04-30_10h01.31.083.csv","albino","three_way_cognate","1","1","0",1.328,"L3_group",1,0.283674051054242
"113","5a06ebf2c259f300017656ee","5a06ebf2c259f300017656ee_empathy_intonation_perc_2025-04-30_10h01.31.083.csv","emén","pseudoword","0","0","1",0.985,"L3_group",1,-0.0151136378100482
"114","5a06ebf2c259f300017656ee","5a06ebf2c259f300017656ee_empathy_intonation_perc_2025-04-30_10h01.31.083.csv","llevar","non_cognate","1","1","0",0.701,"L3_group",1,-0.355247391947547
"115","5a06ebf2c259f300017656ee","5a06ebf2c259f300017656ee_empathy_intonation_perc_2025-04-30_10h01.31.083.csv","martir","pseudoword","0","1","0",1.265,"L3_group",0,0.235072122179483
"116","5a06ebf2c259f300017656ee","5a06ebf2c259f300017656ee_empathy_intonation_perc_2025-04-30_10h01.31.083.csv","dobbo","pseudoword","0","1","0",1.329,"L3_group",0,0.284426779731108
"117","5a06ebf2c259f300017656ee","5a06ebf2c259f300017656ee_empathy_intonation_perc_2025-04-30_10h01.31.083.csv","jauda","pseudoword","0","1","0",0.892,"L3_group",0,-0.114289146402128
"118","5a06ebf2c259f300017656ee","5a06ebf2c259f300017656ee_empathy_intonation_perc_2025-04-30_10h01.31.083.csv","viable","two_way_cognate","1","1","0",1.669,"L3_group",1,0.512224644679698
"119","5a06ebf2c259f300017656ee","5a06ebf2c259f300017656ee_empathy_intonation_perc_2025-04-30_10h01.31.083.csv","inichó","pseudoword","0","1","0",1.892,"L3_group",0,0.637634470629686
"120","5a06ebf2c259f300017656ee","5a06ebf2c259f300017656ee_empathy_intonation_perc_2025-04-30_10h01.31.083.csv","percha","non_cognate","1","0","1",0.968,"L3_group",0,-0.0325231917055601
"121","5a06ebf2c259f300017656ee","5a06ebf2c259f300017656ee_empathy_intonation_perc_2025-04-30_10h01.31.083.csv","civas","pseudoword","0","1","0",0.801,"L3_group",0,-0.221894331913778
"122","5a06ebf2c259f300017656ee","5a06ebf2c259f300017656ee_empathy_intonation_perc_2025-04-30_10h01.31.083.csv","diebro","pseudoword","0","1","0",0.972,"L3_group",0,-0.028399474521698
"123","5a06ebf2c259f300017656ee","5a06ebf2c259f300017656ee_empathy_intonation_perc_2025-04-30_10h01.31.083.csv","listo","non_cognate","1","0","1",0.628,"L3_group",0,-0.465215112513938
"124","5a06ebf2c259f300017656ee","5a06ebf2c259f300017656ee_empathy_intonation_perc_2025-04-30_10h01.31.083.csv","cengo","pseudoword","0","1","0",1.019,"L3_group",0,0.0188217542405877
"125","5a06ebf2c259f300017656ee","5a06ebf2c259f300017656ee_empathy_intonation_perc_2025-04-30_10h01.31.083.csv","editor","two_way_cognate","1","0","1",0.86,"L3_group",0,-0.150822889734584
"126","5a06ebf2c259f300017656ee","5a06ebf2c259f300017656ee_empathy_intonation_perc_2025-04-30_10h01.31.083.csv","molor","pseudoword","0","1","0",0.84,"L3_group",0,-0.174353387144778
"127","5a06ebf2c259f300017656ee","5a06ebf2c259f300017656ee_empathy_intonation_perc_2025-04-30_10h01.31.083.csv","punta","non_cognate","1","0","1",0.885,"L3_group",0,-0.122167633974208
"128","5a06ebf2c259f300017656ee","5a06ebf2c259f300017656ee_empathy_intonation_perc_2025-04-30_10h01.31.083.csv","huenos","pseudoword","0","1","0",1.026,"L3_group",0,0.0256677467485778
"129","5a06ebf2c259f300017656ee","5a06ebf2c259f300017656ee_empathy_intonation_perc_2025-04-30_10h01.31.083.csv","asumie","pseudoword","0","1","0",0.866,"L3_group",0,-0.143870370419702
"130","5a06ebf2c259f300017656ee","5a06ebf2c259f300017656ee_empathy_intonation_perc_2025-04-30_10h01.31.083.csv","sasos","pseudoword","0","1","0",0.973,"L3_group",0,-0.027371196796132
"131","5a06ebf2c259f300017656ee","5a06ebf2c259f300017656ee_empathy_intonation_perc_2025-04-30_10h01.31.083.csv","ceme","pseudoword","0","1","0",1.497,"L3_group",0,0.403463105437491
"132","5a06ebf2c259f300017656ee","5a06ebf2c259f300017656ee_empathy_intonation_perc_2025-04-30_10h01.31.083.csv","aviso","non_cognate","1","1","0",1.422,"L3_group",1,0.352064331381049
"133","5a06ebf2c259f300017656ee","5a06ebf2c259f300017656ee_empathy_intonation_perc_2025-04-30_10h01.31.083.csv","ala","non_cognate","1","0","1",0.966,"L3_group",0,-0.0345914447696191
"134","5a06ebf2c259f300017656ee","5a06ebf2c259f300017656ee_empathy_intonation_perc_2025-04-30_10h01.31.083.csv","hálito","non_cognate","1","1","0",1.117,"L3_group",1,0.110646520087064
"135","5a06ebf2c259f300017656ee","5a06ebf2c259f300017656ee_empathy_intonation_perc_2025-04-30_10h01.31.083.csv","pico","non_cognate","1","0","1",0.956,"L3_group",0,-0.0449973659307358
"136","5a06ebf2c259f300017656ee","5a06ebf2c259f300017656ee_empathy_intonation_perc_2025-04-30_10h01.31.083.csv","flecha","non_cognate","1","1","0",0.807,"L3_group",1,-0.214431610712188
"137","5a06ebf2c259f300017656ee","5a06ebf2c259f300017656ee_empathy_intonation_perc_2025-04-30_10h01.31.083.csv","trugo","pseudoword","0","0","1",0.759,"L3_group",1,-0.275753501586507
"138","5a06ebf2c259f300017656ee","5a06ebf2c259f300017656ee_empathy_intonation_perc_2025-04-30_10h01.31.083.csv","plago","pseudoword","0","1","0",1.117,"L3_group",0,0.110646520087064
"139","5a06ebf2c259f300017656ee","5a06ebf2c259f300017656ee_empathy_intonation_perc_2025-04-30_10h01.31.083.csv","densó","pseudoword","0","1","0",0.841,"L3_group",0,-0.173163619009189
"140","5a06ebf2c259f300017656ee","5a06ebf2c259f300017656ee_empathy_intonation_perc_2025-04-30_10h01.31.083.csv","fomeó","pseudoword","0","1","0",1.253,"L3_group",0,0.225540675913931
"141","5a06ebf2c259f300017656ee","5a06ebf2c259f300017656ee_empathy_intonation_perc_2025-04-30_10h01.31.083.csv","brillo","non_cognate","1","1","0",1.232,"L3_group",1,0.208638865111328
"142","5a06ebf2c259f300017656ee","5a06ebf2c259f300017656ee_empathy_intonation_perc_2025-04-30_10h01.31.083.csv","portal","three_way_cognate","1","1","0",0.838,"L3_group",1,-0.176737178500054
"143","5a06ebf2c259f300017656ee","5a06ebf2c259f300017656ee_empathy_intonation_perc_2025-04-30_10h01.31.083.csv","hilo","non_cognate","1","1","0",1.012,"L3_group",1,0.0119285708652738
"144","5a06ebf2c259f300017656ee","5a06ebf2c259f300017656ee_empathy_intonation_perc_2025-04-30_10h01.31.083.csv","piano","two_way_cognate","1","1","0",0.833,"L3_group",1,-0.182721636815294
"145","5a06ebf2c259f300017656ee","5a06ebf2c259f300017656ee_empathy_intonation_perc_2025-04-30_10h01.31.083.csv","tecia","pseudoword","0","1","0",1.123,"L3_group",0,0.116003675756306
"146","5a06ebf2c259f300017656ee","5a06ebf2c259f300017656ee_empathy_intonation_perc_2025-04-30_10h01.31.083.csv","kilo","three_way_cognate","1","1","0",0.725,"L3_group",1,-0.321583624127462
"147","5a06ebf2c259f300017656ee","5a06ebf2c259f300017656ee_empathy_intonation_perc_2025-04-30_10h01.31.083.csv","gotro","pseudoword","0","1","0",1.198,"L3_group",0,0.180653499693258
"148","5a06ebf2c259f300017656ee","5a06ebf2c259f300017656ee_empathy_intonation_perc_2025-04-30_10h01.31.083.csv","tapón","non_cognate","1","0","1",1.144,"L3_group",0,0.134530892957606
"149","5a06ebf2c259f300017656ee","5a06ebf2c259f300017656ee_empathy_intonation_perc_2025-04-30_10h01.31.083.csv","moral","three_way_cognate","1","1","0",1.282,"L3_group",1,0.248421358498478
"150","5a06ebf2c259f300017656ee","5a06ebf2c259f300017656ee_empathy_intonation_perc_2025-04-30_10h01.31.083.csv","dubo","pseudoword","0","1","0",1.229,"L3_group",0,0.206200830583898
"151","5a06ebf2c259f300017656ee","5a06ebf2c259f300017656ee_empathy_intonation_perc_2025-04-30_10h01.31.083.csv","ozoso","pseudoword","0","1","0",0.931,"L3_group",0,-0.0714960017050699
"152","5a06ebf2c259f300017656ee","5a06ebf2c259f300017656ee_empathy_intonation_perc_2025-04-30_10h01.31.083.csv","plural","three_way_cognate","1","1","0",0.907,"L3_group",1,-0.0976128288670004
"153","5a06ebf2c259f300017656ee","5a06ebf2c259f300017656ee_empathy_intonation_perc_2025-04-30_10h01.31.083.csv","tapa","non_cognate","1","0","1",0.922,"L3_group",0,-0.0812100554255432
"154","5a06ebf2c259f300017656ee","5a06ebf2c259f300017656ee_empathy_intonation_perc_2025-04-30_10h01.31.083.csv","ardor","two_way_cognate","1","1","0",0.905,"L3_group",1,-0.0998203352822109
"155","5a06ebf2c259f300017656ee","5a06ebf2c259f300017656ee_empathy_intonation_perc_2025-04-30_10h01.31.083.csv","muñeca","non_cognate","1","1","0",0.966,"L3_group",1,-0.0345914447696191
"156","5a06ebf2c259f300017656ee","5a06ebf2c259f300017656ee_empathy_intonation_perc_2025-04-30_10h01.31.083.csv","casual","two_way_cognate","1","1","0",1.077,"L3_group",1,0.0741793981742515
"157","5a06ebf2c259f300017656ee","5a06ebf2c259f300017656ee_empathy_intonation_perc_2025-04-30_10h01.31.083.csv","llzan","pseudoword","0","1","0",0.952,"L3_group",0,-0.0491902441907718
"158","5a06ebf2c259f300017656ee","5a06ebf2c259f300017656ee_empathy_intonation_perc_2025-04-30_10h01.31.083.csv","chocar","non_cognate","1","1","0",0.784,"L3_group",1,-0.243346258631729
"159","5a06ebf2c259f300017656ee","5a06ebf2c259f300017656ee_empathy_intonation_perc_2025-04-30_10h01.31.083.csv","drama","three_way_cognate","1","1","0",1.033,"L3_group",1,0.0324671901375014
"160","5a06ebf2c259f300017656ee","5a06ebf2c259f300017656ee_empathy_intonation_perc_2025-04-30_10h01.31.083.csv","mafia","three_way_cognate","1","1","0",0.716,"L3_group",1,-0.334075112021491
"161","5a06ebf2c259f300017656ee","5a06ebf2c259f300017656ee_empathy_intonation_perc_2025-04-30_10h01.31.083.csv","prías","pseudoword","0","0","1",1.149,"L3_group",1,0.138891998866619
"162","5a06ebf2c259f300017656ee","5a06ebf2c259f300017656ee_empathy_intonation_perc_2025-04-30_10h01.31.083.csv","tradía","pseudoword","0","1","0",0.634,"L3_group",0,-0.455706324544911
"163","5a06ebf2c259f300017656ee","5a06ebf2c259f300017656ee_empathy_intonation_perc_2025-04-30_10h01.31.083.csv","disco","three_way_cognate","1","1","0",1.151,"L3_group",1,0.140631129739746
"164","5a06ebf2c259f300017656ee","5a06ebf2c259f300017656ee_empathy_intonation_perc_2025-04-30_10h01.31.083.csv","pelí","pseudoword","0","1","0",1.252,"L3_group",0,0.224742272677907
"165","5a06ebf2c259f300017656ee","5a06ebf2c259f300017656ee_empathy_intonation_perc_2025-04-30_10h01.31.083.csv","nocó","pseudoword","0","1","0",0.671,"L3_group",0,-0.398986142010455
"166","5a06ebf2c259f300017656ee","5a06ebf2c259f300017656ee_empathy_intonation_perc_2025-04-30_10h01.31.083.csv","sacar","non_cognate","1","1","0",1,"L3_group",1,0
"167","5a06ebf2c259f300017656ee","5a06ebf2c259f300017656ee_empathy_intonation_perc_2025-04-30_10h01.31.083.csv","maldad","non_cognate","1","0","1",1.189,"L3_group",0,0.173112617708645
"168","5a06ebf2c259f300017656ee","5a06ebf2c259f300017656ee_empathy_intonation_perc_2025-04-30_10h01.31.083.csv","lidena","pseudoword","0","0","1",1.05,"L3_group",1,0.048790164169432
"169","5a06ebf2c259f300017656ee","5a06ebf2c259f300017656ee_empathy_intonation_perc_2025-04-30_10h01.31.083.csv","rizate","pseudoword","0","1","0",0.832,"L3_group",0,-0.183922838160928
"170","5a06ebf2c259f300017656ee","5a06ebf2c259f300017656ee_empathy_intonation_perc_2025-04-30_10h01.31.083.csv","chorde","pseudoword","0","1","0",0.765,"L3_group",0,-0.267879445155601
"171","5a06ebf2c259f300017656ee","5a06ebf2c259f300017656ee_empathy_intonation_perc_2025-04-30_10h01.31.083.csv","blando","non_cognate","1","0","1",0.76,"L3_group",0,-0.27443684570176
"172","5a06ebf2c259f300017656ee","5a06ebf2c259f300017656ee_empathy_intonation_perc_2025-04-30_10h01.31.083.csv","actor","two_way_cognate","1","1","0",0.978,"L3_group",1,-0.0222456089473197
"173","5a06ebf2c259f300017656ee","5a06ebf2c259f300017656ee_empathy_intonation_perc_2025-04-30_10h01.31.083.csv","bará","pseudoword","0","1","0",0.802,"L3_group",0,-0.220646671115623
"174","5a06ebf2c259f300017656ee","5a06ebf2c259f300017656ee_empathy_intonation_perc_2025-04-30_10h01.31.083.csv","aljizo","pseudoword","0","1","0",0.671,"L3_group",0,-0.398986142010455
"175","5a06ebf2c259f300017656ee","5a06ebf2c259f300017656ee_empathy_intonation_perc_2025-04-30_10h01.31.083.csv","diabo","pseudoword","0","0","1",0.992,"L3_group",1,-0.00803217169726427
"176","5a06ebf2c259f300017656ee","5a06ebf2c259f300017656ee_empathy_intonation_perc_2025-04-30_10h01.31.083.csv","amplir","pseudoword","0","1","0",0.76,"L3_group",0,-0.27443684570176
"177","5a06ebf2c259f300017656ee","5a06ebf2c259f300017656ee_empathy_intonation_perc_2025-04-30_10h01.31.083.csv","coyo","pseudoword","0","1","0",1.326,"L3_group",0,0.282166891763671
"178","5a06ebf2c259f300017656ee","5a06ebf2c259f300017656ee_empathy_intonation_perc_2025-04-30_10h01.31.083.csv","dogue","pseudoword","0","1","0",0.681,"L3_group",0,-0.384192972832625
"179","5a06ebf2c259f300017656ee","5a06ebf2c259f300017656ee_empathy_intonation_perc_2025-04-30_10h01.31.083.csv","tator","pseudoword","0","0","1",0.869,"L3_group",1,-0.140412153716745
"180","5a06ebf2c259f300017656ee","5a06ebf2c259f300017656ee_empathy_intonation_perc_2025-04-30_10h01.31.083.csv","dogma","three_way_cognate","1","1","0",0.957,"L3_group",1,-0.0439518875291828
"181","5a06ebf2c259f300017656ee","5a06ebf2c259f300017656ee_empathy_intonation_perc_2025-04-30_10h01.31.083.csv","alla","pseudoword","0","1","0",0.753,"L3_group",0,-0.283690051182243
"182","5a06ebf2c259f300017656ee","5a06ebf2c259f300017656ee_empathy_intonation_perc_2025-04-30_10h01.31.083.csv","clamor","two_way_cognate","1","1","0",1.042,"L3_group",1,0.0411419433311752
"183","5a06ebf2c259f300017656ee","5a06ebf2c259f300017656ee_empathy_intonation_perc_2025-04-30_10h01.31.083.csv","monue","pseudoword","0","1","0",1.157,"L3_group",0,0.14583044821154
"184","5a06ebf2c259f300017656ee","5a06ebf2c259f300017656ee_empathy_intonation_perc_2025-04-30_10h01.31.083.csv","horror","three_way_cognate","1","1","0",0.628,"L3_group",1,-0.465215112513938
"185","5b8eab705206680001da3583","5b8eab705206680001da3583_empathy_intonation_perc_2025-05-01_18h27.31.722.csv","tecia","pseudoword","0","0","1",0.8317,"L3_group",1,-0.184283480107495
"186","5b8eab705206680001da3583","5b8eab705206680001da3583_empathy_intonation_perc_2025-05-01_18h27.31.722.csv","torta","non_cognate","1","1","0",0.8949,"L3_group",1,-0.111043298793325
"187","5b8eab705206680001da3583","5b8eab705206680001da3583_empathy_intonation_perc_2025-05-01_18h27.31.722.csv","viable","two_way_cognate","1","1","0",0.9868,"L3_group",1,-0.0132878943269354
"188","5b8eab705206680001da3583","5b8eab705206680001da3583_empathy_intonation_perc_2025-05-01_18h27.31.722.csv","laras","pseudoword","0","0","1",0.9032,"L3_group",1,-0.101811266146685
"189","5b8eab705206680001da3583","5b8eab705206680001da3583_empathy_intonation_perc_2025-05-01_18h27.31.722.csv","piano","two_way_cognate","1","1","0",0.6096,"L3_group",1,-0.4949522746097
"190","5b8eab705206680001da3583","5b8eab705206680001da3583_empathy_intonation_perc_2025-05-01_18h27.31.722.csv","samón","pseudoword","0","0","1",0.8536,"L3_group",1,-0.158292578994593
"191","5b8eab705206680001da3583","5b8eab705206680001da3583_empathy_intonation_perc_2025-05-01_18h27.31.722.csv","cobén","pseudoword","0","0","1",0.7422,"L3_group",1,-0.29813653035564
"192","5b8eab705206680001da3583","5b8eab705206680001da3583_empathy_intonation_perc_2025-05-01_18h27.31.722.csv","morrá","pseudoword","0","0","1",0.6446,"L3_group",1,-0.4391253096008
"193","5b8eab705206680001da3583","5b8eab705206680001da3583_empathy_intonation_perc_2025-05-01_18h27.31.722.csv","virios","pseudoword","0","0","1",0.7909,"L3_group",1,-0.234583741456765
"194","5b8eab705206680001da3583","5b8eab705206680001da3583_empathy_intonation_perc_2025-05-01_18h27.31.722.csv","diabo","pseudoword","0","1","0",0.5502,"L3_group",0,-0.597473430491663
"195","5b8eab705206680001da3583","5b8eab705206680001da3583_empathy_intonation_perc_2025-05-01_18h27.31.722.csv","altar","three_way_cognate","1","1","0",0.5344,"L3_group",1,-0.626610656759701
"196","5b8eab705206680001da3583","5b8eab705206680001da3583_empathy_intonation_perc_2025-05-01_18h27.31.722.csv","ardor","two_way_cognate","1","1","0",0.8629,"L3_group",1,-0.147456469467875
"197","5b8eab705206680001da3583","5b8eab705206680001da3583_empathy_intonation_perc_2025-05-01_18h27.31.722.csv","chorde","pseudoword","0","0","1",0.655,"L3_group",1,-0.423120043346885
"198","5b8eab705206680001da3583","5b8eab705206680001da3583_empathy_intonation_perc_2025-05-01_18h27.31.722.csv","vueras","pseudoword","0","1","0",0.8141,"L3_group",0,-0.205672070402205
"199","5b8eab705206680001da3583","5b8eab705206680001da3583_empathy_intonation_perc_2025-05-01_18h27.31.722.csv","patada","non_cognate","1","0","1",0.8208,"L3_group",0,-0.197475804565632
"200","5b8eab705206680001da3583","5b8eab705206680001da3583_empathy_intonation_perc_2025-05-01_18h27.31.722.csv","pegar","non_cognate","1","1","0",1.0426,"L3_group",1,0.0417175933518685
"201","5b8eab705206680001da3583","5b8eab705206680001da3583_empathy_intonation_perc_2025-05-01_18h27.31.722.csv","asumie","pseudoword","0","0","1",0.7086,"L3_group",1,-0.344464086550765
"202","5b8eab705206680001da3583","5b8eab705206680001da3583_empathy_intonation_perc_2025-05-01_18h27.31.722.csv","dobbo","pseudoword","0","0","1",0.7068,"L3_group",1,-0.347007538536596
"203","5b8eab705206680001da3583","5b8eab705206680001da3583_empathy_intonation_perc_2025-05-01_18h27.31.722.csv","hotel","three_way_cognate","1","1","0",0.6232,"L3_group",1,-0.472887784425599
"204","5b8eab705206680001da3583","5b8eab705206680001da3583_empathy_intonation_perc_2025-05-01_18h27.31.722.csv","puñal","non_cognate","1","0","1",0.9251,"L3_group",0,-0.0778534392048641
"205","5b8eab705206680001da3583","5b8eab705206680001da3583_empathy_intonation_perc_2025-05-01_18h27.31.722.csv","nocó","pseudoword","0","0","1",0.8806,"L3_group",1,-0.127151785660484
"206","5b8eab705206680001da3583","5b8eab705206680001da3583_empathy_intonation_perc_2025-05-01_18h27.31.722.csv","pabea","pseudoword","0","0","1",1.5238,"L3_group",1,0.421207215056772
"207","5b8eab705206680001da3583","5b8eab705206680001da3583_empathy_intonation_perc_2025-05-01_18h27.31.722.csv","próces","pseudoword","0","1","0",0.8983,"L3_group",0,-0.107251190746976
"208","5b8eab705206680001da3583","5b8eab705206680001da3583_empathy_intonation_perc_2025-05-01_18h27.31.722.csv","venado","non_cognate","1","0","1",0.6347,"L3_group",0,-0.454602832669713
"209","5b8eab705206680001da3583","5b8eab705206680001da3583_empathy_intonation_perc_2025-05-01_18h27.31.722.csv","civil","two_way_cognate","1","1","0",0.5704,"L3_group",1,-0.561417409882051
"210","5b8eab705206680001da3583","5b8eab705206680001da3583_empathy_intonation_perc_2025-05-01_18h27.31.722.csv","inichó","pseudoword","0","0","1",0.846,"L3_group",1,-0.167235919375914
"211","5b8eab705206680001da3583","5b8eab705206680001da3583_empathy_intonation_perc_2025-05-01_18h27.31.722.csv","animal","two_way_cognate","1","1","0",0.5391,"L3_group",1,-0.617854196524514
"212","5b8eab705206680001da3583","5b8eab705206680001da3583_empathy_intonation_perc_2025-05-01_18h27.31.722.csv","bará","pseudoword","0","0","1",0.5988,"L3_group",1,-0.512827626436664
"213","5b8eab705206680001da3583","5b8eab705206680001da3583_empathy_intonation_perc_2025-05-01_18h27.31.722.csv","mafia","three_way_cognate","1","1","0",0.6749,"L3_group",1,-0.393190747232776
"214","5b8eab705206680001da3583","5b8eab705206680001da3583_empathy_intonation_perc_2025-05-01_18h27.31.722.csv","estulo","pseudoword","0","0","1",0.7524,"L3_group",1,-0.284487181555262
"215","5b8eab705206680001da3583","5b8eab705206680001da3583_empathy_intonation_perc_2025-05-01_18h27.31.722.csv","drama","three_way_cognate","1","1","0",0.6663,"L3_group",1,-0.406015259413646
"216","5b8eab705206680001da3583","5b8eab705206680001da3583_empathy_intonation_perc_2025-05-01_18h27.31.722.csv","total","two_way_cognate","1","1","0",1.1129,"L3_group",1,0.106969220997242
"217","5b8eab705206680001da3583","5b8eab705206680001da3583_empathy_intonation_perc_2025-05-01_18h27.31.722.csv","lobe","pseudoword","0","0","1",1.0336,"L3_group",1,0.0330478540462004
"218","5b8eab705206680001da3583","5b8eab705206680001da3583_empathy_intonation_perc_2025-05-01_18h27.31.722.csv","pico","non_cognate","1","0","1",0.5408,"L3_group",0,-0.614705754253383
"219","5b8eab705206680001da3583","5b8eab705206680001da3583_empathy_intonation_perc_2025-05-01_18h27.31.722.csv","pelvis","two_way_cognate","1","0","1",0.555,"L3_group",0,-0.588787165235702
"220","5b8eab705206680001da3583","5b8eab705206680001da3583_empathy_intonation_perc_2025-05-01_18h27.31.722.csv","llevar","non_cognate","1","1","0",0.756,"L3_group",1,-0.279713902802604
"221","5b8eab705206680001da3583","5b8eab705206680001da3583_empathy_intonation_perc_2025-05-01_18h27.31.722.csv","portal","three_way_cognate","1","1","0",0.8538,"L3_group",1,-0.158058304658275
"222","5b8eab705206680001da3583","5b8eab705206680001da3583_empathy_intonation_perc_2025-05-01_18h27.31.722.csv","dogue","pseudoword","0","0","1",0.5894,"L3_group",1,-0.528650208678543
"223","5b8eab705206680001da3583","5b8eab705206680001da3583_empathy_intonation_perc_2025-05-01_18h27.31.722.csv","trcia","pseudoword","0","0","1",0.8124,"L3_group",1,-0.207762449275907
"224","5b8eab705206680001da3583","5b8eab705206680001da3583_empathy_intonation_perc_2025-05-01_18h27.31.722.csv","esís","pseudoword","0","0","1",0.6337,"L3_group",1,-0.456179622652666
"225","5b8eab705206680001da3583","5b8eab705206680001da3583_empathy_intonation_perc_2025-05-01_18h27.31.722.csv","enigma","two_way_cognate","1","1","0",0.9317,"L3_group",1,-0.0707444045257578
"226","5b8eab705206680001da3583","5b8eab705206680001da3583_empathy_intonation_perc_2025-05-01_18h27.31.722.csv","regalo","non_cognate","1","1","0",0.6676,"L3_group",1,-0.404066087194457
"227","5b8eab705206680001da3583","5b8eab705206680001da3583_empathy_intonation_perc_2025-05-01_18h27.31.722.csv","muñeca","non_cognate","1","0","1",0.6749,"L3_group",0,-0.393190747232776
"228","5b8eab705206680001da3583","5b8eab705206680001da3583_empathy_intonation_perc_2025-05-01_18h27.31.722.csv","monue","pseudoword","0","0","1",0.8137,"L3_group",1,-0.206163531279525
"229","5b8eab705206680001da3583","5b8eab705206680001da3583_empathy_intonation_perc_2025-05-01_18h27.31.722.csv","extra","three_way_cognate","1","1","0",0.6444,"L3_group",1,-0.439435627679318
"230","5b8eab705206680001da3583","5b8eab705206680001da3583_empathy_intonation_perc_2025-05-01_18h27.31.722.csv","siglo","non_cognate","1","0","1",0.5411,"L3_group",0,-0.614151174333447
"231","5b8eab705206680001da3583","5b8eab705206680001da3583_empathy_intonation_perc_2025-05-01_18h27.31.722.csv","maldad","non_cognate","1","0","1",0.8867,"L3_group",0,-0.120248572596176
"232","5b8eab705206680001da3583","5b8eab705206680001da3583_empathy_intonation_perc_2025-05-01_18h27.31.722.csv","suave","non_cognate","1","1","0",0.7333,"L3_group",1,-0.310200383882383
"233","5b8eab705206680001da3583","5b8eab705206680001da3583_empathy_intonation_perc_2025-05-01_18h27.31.722.csv","golf","three_way_cognate","1","1","0",0.6576,"L3_group",1,-0.419158435240167
"234","5b8eab705206680001da3583","5b8eab705206680001da3583_empathy_intonation_perc_2025-05-01_18h27.31.722.csv","clamor","two_way_cognate","1","0","1",0.7047,"L3_group",0,-0.34998309864916
"235","5b8eab705206680001da3583","5b8eab705206680001da3583_empathy_intonation_perc_2025-05-01_18h27.31.722.csv","guerra","non_cognate","1","1","0",0.6239,"L3_group",1,-0.471765179865396
"236","5b8eab705206680001da3583","5b8eab705206680001da3583_empathy_intonation_perc_2025-05-01_18h27.31.722.csv","peniz","pseudoword","0","0","1",0.8575,"L3_group",1,-0.153734099942042
"237","5b8eab705206680001da3583","5b8eab705206680001da3583_empathy_intonation_perc_2025-05-01_18h27.31.722.csv","flora","three_way_cognate","1","1","0",0.632,"L3_group",1,-0.45886588483528
"238","5b8eab705206680001da3583","5b8eab705206680001da3583_empathy_intonation_perc_2025-05-01_18h27.31.722.csv","mortal","two_way_cognate","1","1","0",1.035,"L3_group",1,0.0344014267173323
"239","5b8eab705206680001da3583","5b8eab705206680001da3583_empathy_intonation_perc_2025-05-01_18h27.31.722.csv","gino","pseudoword","0","0","1",0.5077,"L3_group",1,-0.677864557028788
"240","5b8eab705206680001da3583","5b8eab705206680001da3583_empathy_intonation_perc_2025-05-01_18h27.31.722.csv","halo","two_way_cognate","1","1","0",0.7514,"L3_group",1,-0.285817145842269
"241","5b8eab705206680001da3583","5b8eab705206680001da3583_empathy_intonation_perc_2025-05-01_18h27.31.722.csv","nocita","pseudoword","0","0","1",0.7015,"L3_group",1,-0.354534379439621
"242","5b8eab705206680001da3583","5b8eab705206680001da3583_empathy_intonation_perc_2025-05-01_18h27.31.722.csv","frasis","pseudoword","0","0","1",0.7469,"L3_group",1,-0.291823971619116
"243","5b8eab705206680001da3583","5b8eab705206680001da3583_empathy_intonation_perc_2025-05-01_18h27.31.722.csv","sierra","non_cognate","1","1","0",0.7018,"L3_group",1,-0.354106815833022
"244","5b8eab705206680001da3583","5b8eab705206680001da3583_empathy_intonation_perc_2025-05-01_18h27.31.722.csv","aduana","non_cognate","1","0","1",0.6913,"L3_group",0,-0.369181396030918
"245","5b8eab705206680001da3583","5b8eab705206680001da3583_empathy_intonation_perc_2025-05-01_18h27.31.722.csv","listo","non_cognate","1","1","0",0.5692,"L3_group",1,-0.56352341276644
"246","5b8eab705206680001da3583","5b8eab705206680001da3583_empathy_intonation_perc_2025-05-01_18h27.31.722.csv","percha","non_cognate","1","0","1",0.6585,"L3_group",0,-0.417790757798801
"247","5b8eab705206680001da3583","5b8eab705206680001da3583_empathy_intonation_perc_2025-05-01_18h27.31.722.csv","prías","pseudoword","0","0","1",0.6214,"L3_group",1,-0.47578028202319
"248","5b8eab705206680001da3583","5b8eab705206680001da3583_empathy_intonation_perc_2025-05-01_18h27.31.722.csv","edioso","pseudoword","0","0","1",0.6868,"L3_group",1,-0.375712149958817
"249","5b8eab705206680001da3583","5b8eab705206680001da3583_empathy_intonation_perc_2025-05-01_18h27.31.722.csv","forro","non_cognate","1","0","1",0.5612,"L3_group",0,-0.577677930753831
"250","5b8eab705206680001da3583","5b8eab705206680001da3583_empathy_intonation_perc_2025-05-01_18h27.31.722.csv","pelí","pseudoword","0","0","1",0.6007,"L3_group",1,-0.509659637126021
"251","5b8eab705206680001da3583","5b8eab705206680001da3583_empathy_intonation_perc_2025-05-01_18h27.31.722.csv","vien","pseudoword","0","1","0",0.5871,"L3_group",0,-0.532560115911997
"252","5b8eab705206680001da3583","5b8eab705206680001da3583_empathy_intonation_perc_2025-05-01_18h27.31.722.csv","casual","two_way_cognate","1","1","0",0.5914,"L3_group",1,-0.52526267156376
"253","5b8eab705206680001da3583","5b8eab705206680001da3583_empathy_intonation_perc_2025-05-01_18h27.31.722.csv","gió","pseudoword","0","0","1",0.6675,"L3_group",1,-0.404215888707733
"254","5b8eab705206680001da3583","5b8eab705206680001da3583_empathy_intonation_perc_2025-05-01_18h27.31.722.csv","tumor","three_way_cognate","1","1","0",0.6494,"L3_group",1,-0.431706419313391
"255","5b8eab705206680001da3583","5b8eab705206680001da3583_empathy_intonation_perc_2025-05-01_18h27.31.722.csv","brillo","non_cognate","1","0","1",0.6772,"L3_group",0,-0.389788628723157
"256","5b8eab705206680001da3583","5b8eab705206680001da3583_empathy_intonation_perc_2025-05-01_18h27.31.722.csv","equipo","non_cognate","1","1","0",0.5729,"L3_group",1,-0.557044097567605
"257","5b8eab705206680001da3583","5b8eab705206680001da3583_empathy_intonation_perc_2025-05-01_18h27.31.722.csv","golla","pseudoword","0","0","1",0.6198,"L3_group",1,-0.478358433628489
"258","5b8eab705206680001da3583","5b8eab705206680001da3583_empathy_intonation_perc_2025-05-01_18h27.31.722.csv","losco","pseudoword","0","0","1",0.5648,"L3_group",1,-0.571283592803105
"259","5b8eab705206680001da3583","5b8eab705206680001da3583_empathy_intonation_perc_2025-05-01_18h27.31.722.csv","desaro","pseudoword","0","0","1",0.6188,"L3_group",1,-0.479973160283226
"260","5b8eab705206680001da3583","5b8eab705206680001da3583_empathy_intonation_perc_2025-05-01_18h27.31.722.csv","llzan","pseudoword","0","0","1",0.5737,"L3_group",1,-0.555648667374312
"261","5b8eab705206680001da3583","5b8eab705206680001da3583_empathy_intonation_perc_2025-05-01_18h27.31.722.csv","gotro","pseudoword","0","0","1",0.5678,"L3_group",1,-0.565986034943266
"262","5b8eab705206680001da3583","5b8eab705206680001da3583_empathy_intonation_perc_2025-05-01_18h27.31.722.csv","blando","non_cognate","1","0","1",0.6873,"L3_group",0,-0.374984400854578
"263","5b8eab705206680001da3583","5b8eab705206680001da3583_empathy_intonation_perc_2025-05-01_18h27.31.722.csv","listo","non_cognate","1","1","0",0.5467,"L3_group",1,-0.603855073081184
"264","5b8eab705206680001da3583","5b8eab705206680001da3583_empathy_intonation_perc_2025-05-01_18h27.31.722.csv","rendir","non_cognate","1","0","1",0.7243,"L3_group",0,-0.322549607780857
"265","5b8eab705206680001da3583","5b8eab705206680001da3583_empathy_intonation_perc_2025-05-01_18h27.31.722.csv","flecha","non_cognate","1","1","0",0.673,"L3_group",1,-0.396009949337409
"266","5b8eab705206680001da3583","5b8eab705206680001da3583_empathy_intonation_perc_2025-05-01_18h27.31.722.csv","mango","three_way_cognate","1","1","0",0.5555,"L3_group",1,-0.587886669902452
"267","5b8eab705206680001da3583","5b8eab705206680001da3583_empathy_intonation_perc_2025-05-01_18h27.31.722.csv","sacar","non_cognate","1","1","0",0.6899,"L3_group",1,-0.371208619430074
"268","5b8eab705206680001da3583","5b8eab705206680001da3583_empathy_intonation_perc_2025-05-01_18h27.31.722.csv","seled","pseudoword","0","0","1",0.6946,"L3_group",1,-0.364419138672163
"269","5b8eab705206680001da3583","5b8eab705206680001da3583_empathy_intonation_perc_2025-05-01_18h27.31.722.csv","huenos","pseudoword","0","0","1",0.7173,"L3_group",1,-0.332261115849748
"270","5b8eab705206680001da3583","5b8eab705206680001da3583_empathy_intonation_perc_2025-05-01_18h27.31.722.csv","fomeó","pseudoword","0","0","1",0.6787,"L3_group",1,-0.387576075272424
"271","5b8eab705206680001da3583","5b8eab705206680001da3583_empathy_intonation_perc_2025-05-01_18h27.31.722.csv","editor","two_way_cognate","1","1","0",0.5375,"L3_group",1,-0.620826518980319
"272","5b8eab705206680001da3583","5b8eab705206680001da3583_empathy_intonation_perc_2025-05-01_18h27.31.722.csv","rumor","two_way_cognate","1","0","1",0.8315,"L3_group",0,-0.184523980349155
"273","5b8eab705206680001da3583","5b8eab705206680001da3583_empathy_intonation_perc_2025-05-01_18h27.31.722.csv","rizado","non_cognate","1","0","1",0.5676,"L3_group",0,-0.566338333696249
"274","5b8eab705206680001da3583","5b8eab705206680001da3583_empathy_intonation_perc_2025-05-01_18h27.31.722.csv","hurcos","pseudoword","0","0","1",0.6449,"L3_group",1,-0.438660012965805
"275","5b8eab705206680001da3583","5b8eab705206680001da3583_empathy_intonation_perc_2025-05-01_18h27.31.722.csv","nasce","pseudoword","0","0","1",0.6728,"L3_group",1,-0.396307170323399
"276","5b8eab705206680001da3583","5b8eab705206680001da3583_empathy_intonation_perc_2025-05-01_18h27.31.722.csv","martir","pseudoword","0","0","1",1.005,"L3_group",1,0.00498754151103897
"277","5b8eab705206680001da3583","5b8eab705206680001da3583_empathy_intonation_perc_2025-05-01_18h27.31.722.csv","bugor","pseudoword","0","0","1",0.7516,"L3_group",1,-0.285551011442827
"278","5b8eab705206680001da3583","5b8eab705206680001da3583_empathy_intonation_perc_2025-05-01_18h27.31.722.csv","grigir","pseudoword","0","0","1",0.735,"L3_group",1,-0.3078847797693
"279","5b8eab705206680001da3583","5b8eab705206680001da3583_empathy_intonation_perc_2025-05-01_18h27.31.722.csv","colcha","non_cognate","1","0","1",0.6743,"L3_group",0,-0.394080163241601
"280","5b8eab705206680001da3583","5b8eab705206680001da3583_empathy_intonation_perc_2025-05-01_18h27.31.722.csv","vinzó","pseudoword","0","0","1",0.7038,"L3_group",1,-0.351261054094652
"281","5b8eab705206680001da3583","5b8eab705206680001da3583_empathy_intonation_perc_2025-05-01_18h27.31.722.csv","disco","three_way_cognate","1","1","0",0.5507,"L3_group",1,-0.596565082713701
"282","5b8eab705206680001da3583","5b8eab705206680001da3583_empathy_intonation_perc_2025-05-01_18h27.31.722.csv","kilo","three_way_cognate","1","1","0",0.5159,"L3_group",1,-0.661842330731533
"283","5b8eab705206680001da3583","5b8eab705206680001da3583_empathy_intonation_perc_2025-05-01_18h27.31.722.csv","muleta","non_cognate","1","0","1",0.6864,"L3_group",0,-0.376294730808384
"284","5b8eab705206680001da3583","5b8eab705206680001da3583_empathy_intonation_perc_2025-05-01_18h27.31.722.csv","entodo","pseudoword","0","1","0",0.7987,"L3_group",0,-0.224769873058794
"285","5b8eab705206680001da3583","5b8eab705206680001da3583_empathy_intonation_perc_2025-05-01_18h27.31.722.csv","ánimo","non_cognate","1","1","0",0.6662,"L3_group",1,-0.406165353222558
"286","5b8eab705206680001da3583","5b8eab705206680001da3583_empathy_intonation_perc_2025-05-01_18h27.31.722.csv","medium","pseudoword","0","1","0",0.6184,"L3_group",0,-0.480619781708925
"287","5b8eab705206680001da3583","5b8eab705206680001da3583_empathy_intonation_perc_2025-05-01_18h27.31.722.csv","densó","pseudoword","0","1","0",0.6471,"L3_group",0,-0.435254436918917
"288","5b8eab705206680001da3583","5b8eab705206680001da3583_empathy_intonation_perc_2025-05-01_18h27.31.722.csv","anfia","pseudoword","0","0","1",0.6143,"L3_group",1,-0.487271870812255
"289","5b8eab705206680001da3583","5b8eab705206680001da3583_empathy_intonation_perc_2025-05-01_18h27.31.722.csv","babrá","pseudoword","0","0","1",0.595,"L3_group",1,-0.519193873436507
"290","5b8eab705206680001da3583","5b8eab705206680001da3583_empathy_intonation_perc_2025-05-01_18h27.31.722.csv","llamar","non_cognate","1","1","0",0.549,"L3_group",1,-0.599656837472606
"291","5b8eab705206680001da3583","5b8eab705206680001da3583_empathy_intonation_perc_2025-05-01_18h27.31.722.csv","actor","two_way_cognate","1","1","0",0.582,"L3_group",1,-0.541284831250699
"292","5b8eab705206680001da3583","5b8eab705206680001da3583_empathy_intonation_perc_2025-05-01_18h27.31.722.csv","tradía","pseudoword","0","0","1",0.9112,"L3_group",1,-0.0929928668491647
"293","5b8eab705206680001da3583","5b8eab705206680001da3583_empathy_intonation_perc_2025-05-01_18h27.31.722.csv","fiscal","two_way_cognate","1","0","1",0.7133,"L3_group",0,-0.337853189698145
"294","5b8eab705206680001da3583","5b8eab705206680001da3583_empathy_intonation_perc_2025-05-01_18h27.31.722.csv","panté","pseudoword","0","0","1",0.7085,"L3_group",1,-0.344605219851402
"295","5b8eab705206680001da3583","5b8eab705206680001da3583_empathy_intonation_perc_2025-05-01_18h27.31.722.csv","sasos","pseudoword","0","0","1",0.721,"L3_group",1,-0.327116141697188
"296","5b8eab705206680001da3583","5b8eab705206680001da3583_empathy_intonation_perc_2025-05-01_18h27.31.722.csv","lidena","pseudoword","0","0","1",0.6769,"L3_group",1,-0.390231727467575
"297","5b8eab705206680001da3583","5b8eab705206680001da3583_empathy_intonation_perc_2025-05-01_18h27.31.722.csv","fuar","pseudoword","0","0","1",0.7512,"L3_group",1,-0.286083351088084
"298","5b8eab705206680001da3583","5b8eab705206680001da3583_empathy_intonation_perc_2025-05-01_18h27.31.722.csv","feo","non_cognate","1","1","0",0.6193,"L3_group",1,-0.479165471038122
"299","5b8eab705206680001da3583","5b8eab705206680001da3583_empathy_intonation_perc_2025-05-01_18h27.31.722.csv","plago","pseudoword","0","0","1",0.8826,"L3_group",1,-0.12488318214669
"300","5b8eab705206680001da3583","5b8eab705206680001da3583_empathy_intonation_perc_2025-05-01_18h27.31.722.csv","tator","pseudoword","0","0","1",0.6464,"L3_group",1,-0.436336771775251
"301","5b8eab705206680001da3583","5b8eab705206680001da3583_empathy_intonation_perc_2025-05-01_18h27.31.722.csv","parre","pseudoword","0","0","1",0.6732,"L3_group",1,-0.395712816665486
"302","5b8eab705206680001da3583","5b8eab705206680001da3583_empathy_intonation_perc_2025-05-01_18h27.31.722.csv","arane","pseudoword","0","0","1",0.6724,"L3_group",1,-0.396901877447677
"303","5b8eab705206680001da3583","5b8eab705206680001da3583_empathy_intonation_perc_2025-05-01_18h27.31.722.csv","enorme","non_cognate","1","1","0",0.5904,"L3_group",1,-0.526955005695874
"304","5b8eab705206680001da3583","5b8eab705206680001da3583_empathy_intonation_perc_2025-05-01_18h27.31.722.csv","dubo","pseudoword","0","0","1",0.5773,"L3_group",1,-0.549393216915249
"305","5b8eab705206680001da3583","5b8eab705206680001da3583_empathy_intonation_perc_2025-05-01_18h27.31.722.csv","boñaz","pseudoword","0","0","1",0.5837,"L3_group",1,-0.538368126772392
"306","5b8eab705206680001da3583","5b8eab705206680001da3583_empathy_intonation_perc_2025-05-01_18h27.31.722.csv","tiza","non_cognate","1","0","1",0.6103,"L3_group",0,-0.493804639431688
"307","5b8eab705206680001da3583","5b8eab705206680001da3583_empathy_intonation_perc_2025-05-01_18h27.31.722.csv","aurora","two_way_cognate","1","1","0",0.6636,"L3_group",1,-0.410075720665848
"308","5b8eab705206680001da3583","5b8eab705206680001da3583_empathy_intonation_perc_2025-05-01_18h27.31.722.csv","moral","three_way_cognate","1","1","0",0.5335,"L3_group",1,-0.628296208240329
"309","5b8eab705206680001da3583","5b8eab705206680001da3583_empathy_intonation_perc_2025-05-01_18h27.31.722.csv","rostro","non_cognate","1","0","1",0.5649,"L3_group",0,-0.571106554650921
"310","5b8eab705206680001da3583","5b8eab705206680001da3583_empathy_intonation_perc_2025-05-01_18h27.31.722.csv","albino","three_way_cognate","1","1","0",0.69,"L3_group",1,-0.371063681390832
"311","5b8eab705206680001da3583","5b8eab705206680001da3583_empathy_intonation_perc_2025-05-01_18h27.31.722.csv","trugo","pseudoword","0","0","1",0.5714,"L3_group",1,-0.559665789185464
"312","5b8eab705206680001da3583","5b8eab705206680001da3583_empathy_intonation_perc_2025-05-01_18h27.31.722.csv","harvé","pseudoword","0","0","1",0.6273,"L3_group",1,-0.46633038387944
"313","5b8eab705206680001da3583","5b8eab705206680001da3583_empathy_intonation_perc_2025-05-01_18h27.31.722.csv","ala","non_cognate","1","1","0",0.7702,"L3_group",1,-0.261105057601329
"314","5b8eab705206680001da3583","5b8eab705206680001da3583_empathy_intonation_perc_2025-05-01_18h27.31.722.csv","gripar","pseudoword","0","1","0",0.6291,"L3_group",0,-0.463465052406153
"315","5b8eab705206680001da3583","5b8eab705206680001da3583_empathy_intonation_perc_2025-05-01_18h27.31.722.csv","pelvis","two_way_cognate","1","1","0",0.8093,"L3_group",1,-0.211585602480481
"316","5b8eab705206680001da3583","5b8eab705206680001da3583_empathy_intonation_perc_2025-05-01_18h27.31.722.csv","aljizo","pseudoword","0","0","1",0.596,"L3_group",1,-0.517514611916787
"317","5b8eab705206680001da3583","5b8eab705206680001da3583_empathy_intonation_perc_2025-05-01_18h27.31.722.csv","dogma","three_way_cognate","1","1","0",0.776,"L3_group",1,-0.253602758798918
"318","5b8eab705206680001da3583","5b8eab705206680001da3583_empathy_intonation_perc_2025-05-01_18h27.31.722.csv","diroco","pseudoword","0","0","1",0.5687,"L3_group",1,-0.564402224669383
"319","5b8eab705206680001da3583","5b8eab705206680001da3583_empathy_intonation_perc_2025-05-01_18h27.31.722.csv","barbs","pseudoword","0","0","1",0.732,"L3_group",1,-0.311974765020825
"320","5b8eab705206680001da3583","5b8eab705206680001da3583_empathy_intonation_perc_2025-05-01_18h27.31.722.csv","hueas","pseudoword","0","0","1",0.724,"L3_group",1,-0.322963886596421
"321","5b8eab705206680001da3583","5b8eab705206680001da3583_empathy_intonation_perc_2025-05-01_18h27.31.722.csv","conso","pseudoword","0","0","1",0.6447,"L3_group",1,-0.438970186665563
"322","5b8eab705206680001da3583","5b8eab705206680001da3583_empathy_intonation_perc_2025-05-01_18h27.31.722.csv","horror","three_way_cognate","1","1","0",0.5816,"L3_group",1,-0.541972352762827
"323","5b8eab705206680001da3583","5b8eab705206680001da3583_empathy_intonation_perc_2025-05-01_18h27.31.722.csv","collar","two_way_cognate","1","1","0",0.8626,"L3_group",1,-0.147804194768394
"324","5b8eab705206680001da3583","5b8eab705206680001da3583_empathy_intonation_perc_2025-05-01_18h27.31.722.csv","color","two_way_cognate","1","1","0",0.667,"L3_group",1,-0.404965233066513
"325","5b8eab705206680001da3583","5b8eab705206680001da3583_empathy_intonation_perc_2025-05-01_18h27.31.722.csv","pupica","pseudoword","0","0","1",0.6774,"L3_group",1,-0.389493338598466
"326","5b8eab705206680001da3583","5b8eab705206680001da3583_empathy_intonation_perc_2025-05-01_18h27.31.722.csv","dibrea","pseudoword","0","0","1",0.6347,"L3_group",1,-0.454602832669713
"327","5b8eab705206680001da3583","5b8eab705206680001da3583_empathy_intonation_perc_2025-05-01_18h27.31.722.csv","aleta","non_cognate","1","0","1",0.6391,"L3_group",0,-0.447694342325901
"328","5b8eab705206680001da3583","5b8eab705206680001da3583_empathy_intonation_perc_2025-05-01_18h27.31.722.csv","épinas","pseudoword","0","0","1",0.6607,"L3_group",1,-0.414455399946297
"329","5b8eab705206680001da3583","5b8eab705206680001da3583_empathy_intonation_perc_2025-05-01_18h27.31.722.csv","hálito","non_cognate","1","0","1",0.6005,"L3_group",0,-0.509992637462099
"330","5b8eab705206680001da3583","5b8eab705206680001da3583_empathy_intonation_perc_2025-05-01_18h27.31.722.csv","ceme","pseudoword","0","0","1",0.9097,"L3_group",1,-0.0946404041541209
"331","5b8eab705206680001da3583","5b8eab705206680001da3583_empathy_intonation_perc_2025-05-01_18h27.31.722.csv","chote","pseudoword","0","0","1",0.7075,"L3_group",1,-0.346017649464744
"332","5b8eab705206680001da3583","5b8eab705206680001da3583_empathy_intonation_perc_2025-05-01_18h27.31.722.csv","caro","non_cognate","1","1","0",0.6741,"L3_group",1,-0.394376811122744
"333","5b8eab705206680001da3583","5b8eab705206680001da3583_empathy_intonation_perc_2025-05-01_18h27.31.722.csv","chat","three_way_cognate","1","1","0",0.6108,"L3_group",1,-0.49298570563766
"334","5b8eab705206680001da3583","5b8eab705206680001da3583_empathy_intonation_perc_2025-05-01_18h27.31.722.csv","retina","three_way_cognate","1","1","0",0.8405,"L3_group",1,-0.173758326133467
"335","5b8eab705206680001da3583","5b8eab705206680001da3583_empathy_intonation_perc_2025-05-01_18h27.31.722.csv","test","three_way_cognate","1","0","1",0.9323,"L3_group",0,-0.0701006276794891
"336","5b8eab705206680001da3583","5b8eab705206680001da3583_empathy_intonation_perc_2025-05-01_18h27.31.722.csv","nomata","pseudoword","0","0","1",0.6471,"L3_group",1,-0.435254436918917
"337","5b8eab705206680001da3583","5b8eab705206680001da3583_empathy_intonation_perc_2025-05-01_18h27.31.722.csv","torso","two_way_cognate","1","0","1",0.8155,"L3_group",0,-0.203953856921068
"338","5b8eab705206680001da3583","5b8eab705206680001da3583_empathy_intonation_perc_2025-05-01_18h27.31.722.csv","pitis","pseudoword","0","0","1",0.8354,"L3_group",1,-0.179844626919062
"339","5b8eab705206680001da3583","5b8eab705206680001da3583_empathy_intonation_perc_2025-05-01_18h27.31.722.csv","honor","two_way_cognate","1","1","0",0.7107,"L3_group",1,-0.341504879149288
"340","5b8eab705206680001da3583","5b8eab705206680001da3583_empathy_intonation_perc_2025-05-01_18h27.31.722.csv","kugis","pseudoword","0","0","1",0.549,"L3_group",1,-0.599656837472606
"341","5b8eab705206680001da3583","5b8eab705206680001da3583_empathy_intonation_perc_2025-05-01_18h27.31.722.csv","amplir","pseudoword","0","0","1",0.5807,"L3_group",1,-0.543521006604133
"342","5b8eab705206680001da3583","5b8eab705206680001da3583_empathy_intonation_perc_2025-05-01_18h27.31.722.csv","cuenco","non_cognate","1","0","1",0.5754,"L3_group",0,-0.552689827864689
"343","5b8eab705206680001da3583","5b8eab705206680001da3583_empathy_intonation_perc_2025-05-01_18h27.31.722.csv","aviso","non_cognate","1","0","1",0.5219,"L3_group",0,-0.65027928033277
"344","5b8eab705206680001da3583","5b8eab705206680001da3583_empathy_intonation_perc_2025-05-01_18h27.31.722.csv","civas","pseudoword","0","0","1",0.7216,"L3_group",1,-0.326284310233723
"345","5b8eab705206680001da3583","5b8eab705206680001da3583_empathy_intonation_perc_2025-05-01_18h27.31.722.csv","chocar","non_cognate","1","0","1",0.686,"L3_group",0,-0.376877651256252
"346","5b8eab705206680001da3583","5b8eab705206680001da3583_empathy_intonation_perc_2025-05-01_18h27.31.722.csv","hilo","non_cognate","1","1","0",0.5684,"L3_group",1,-0.564929882759191
"347","5b8eab705206680001da3583","5b8eab705206680001da3583_empathy_intonation_perc_2025-05-01_18h27.31.722.csv","vigor","two_way_cognate","1","1","0",0.5521,"L3_group",1,-0.594026089692138
"348","5b8eab705206680001da3583","5b8eab705206680001da3583_empathy_intonation_perc_2025-05-01_18h27.31.722.csv","punta","non_cognate","1","1","0",0.6289,"L3_group",1,-0.463783017432679
"349","5b8eab705206680001da3583","5b8eab705206680001da3583_empathy_intonation_perc_2025-05-01_18h27.31.722.csv","rizate","pseudoword","0","0","1",0.7414,"L3_group",1,-0.299214988265505
"350","5b8eab705206680001da3583","5b8eab705206680001da3583_empathy_intonation_perc_2025-05-01_18h27.31.722.csv","plural","three_way_cognate","1","1","0",0.5684,"L3_group",1,-0.564929882759191
"351","5b8eab705206680001da3583","5b8eab705206680001da3583_empathy_intonation_perc_2025-05-01_18h27.31.722.csv","jauda","pseudoword","0","0","1",0.5667,"L3_group",1,-0.567925215806564
"352","5b8eab705206680001da3583","5b8eab705206680001da3583_empathy_intonation_perc_2025-05-01_18h27.31.722.csv","tapón","non_cognate","1","0","1",0.5891,"L3_group",0,-0.529159330454495
"353","5b8eab705206680001da3583","5b8eab705206680001da3583_empathy_intonation_perc_2025-05-01_18h27.31.722.csv","aura","three_way_cognate","1","1","0",0.5919,"L3_group",1,-0.524417577285458
"354","5b8eab705206680001da3583","5b8eab705206680001da3583_empathy_intonation_perc_2025-05-01_18h27.31.722.csv","cricó","pseudoword","0","0","1",0.5683,"L3_group",1,-0.565105830679061
"355","5b8eab705206680001da3583","5b8eab705206680001da3583_empathy_intonation_perc_2025-05-01_18h27.31.722.csv","mauja","pseudoword","0","0","1",0.6302,"L3_group",1,-0.461718049658963
"356","5b8eab705206680001da3583","5b8eab705206680001da3583_empathy_intonation_perc_2025-05-01_18h27.31.722.csv","trauma","three_way_cognate","1","1","0",0.6657,"L3_group",1,-0.406916160375479
"357","5b8eab705206680001da3583","5b8eab705206680001da3583_empathy_intonation_perc_2025-05-01_18h27.31.722.csv","coyo","pseudoword","0","0","1",0.6239,"L3_group",1,-0.471765179865396
"358","5b8eab705206680001da3583","5b8eab705206680001da3583_empathy_intonation_perc_2025-05-01_18h27.31.722.csv","tobre","pseudoword","0","0","1",0.6287,"L3_group",1,-0.464101083593122
"359","5b8eab705206680001da3583","5b8eab705206680001da3583_empathy_intonation_perc_2025-05-01_18h27.31.722.csv","molor","pseudoword","0","0","1",0.6672,"L3_group",1,-0.4046654279376
"360","5b8eab705206680001da3583","5b8eab705206680001da3583_empathy_intonation_perc_2025-05-01_18h27.31.722.csv","teñir","non_cognate","1","0","1",0.6242,"L3_group",0,-0.471284449145458
"361","5b8eab705206680001da3583","5b8eab705206680001da3583_empathy_intonation_perc_2025-05-01_18h27.31.722.csv","gravés","pseudoword","0","1","0",0.6397,"L3_group",0,-0.446755962526045
"362","5b8eab705206680001da3583","5b8eab705206680001da3583_empathy_intonation_perc_2025-05-01_18h27.31.722.csv","suelet","pseudoword","0","0","1",0.5488,"L3_group",1,-0.600021202570462
"363","5b8eab705206680001da3583","5b8eab705206680001da3583_empathy_intonation_perc_2025-05-01_18h27.31.722.csv","rúo","pseudoword","0","0","1",0.5434,"L3_group",1,-0.60990958198989
"364","5b8eab705206680001da3583","5b8eab705206680001da3583_empathy_intonation_perc_2025-05-01_18h27.31.722.csv","prave","pseudoword","0","0","1",0.5624,"L3_group",1,-0.575541938485682
"365","5b8eab705206680001da3583","5b8eab705206680001da3583_empathy_intonation_perc_2025-05-01_18h27.31.722.csv","suelo","non_cognate","1","1","0",0.6492,"L3_group",1,-0.432014443341701
"366","5b8eab705206680001da3583","5b8eab705206680001da3583_empathy_intonation_perc_2025-05-01_18h27.31.722.csv","clan","three_way_cognate","1","0","1",0.5831,"L3_group",0,-0.539396580754027
"367","5b8eab705206680001da3583","5b8eab705206680001da3583_empathy_intonation_perc_2025-05-01_18h27.31.722.csv","tapa","non_cognate","1","1","0",0.6091,"L3_group",1,-0.495772821139698
"368","5b8eab705206680001da3583","5b8eab705206680001da3583_empathy_intonation_perc_2025-05-01_18h27.31.722.csv","cuenco","non_cognate","1","0","1",0.5824,"L3_group",0,-0.540597782099661
"369","5b8eab705206680001da3583","5b8eab705206680001da3583_empathy_intonation_perc_2025-05-01_18h27.31.722.csv","cengo","pseudoword","0","0","1",0.7352,"L3_group",1,-0.30761270794066
"370","5b8eab705206680001da3583","5b8eab705206680001da3583_empathy_intonation_perc_2025-05-01_18h27.31.722.csv","diebro","pseudoword","0","0","1",0.5914,"L3_group",1,-0.52526267156376
"371","5b8eab705206680001da3583","5b8eab705206680001da3583_empathy_intonation_perc_2025-05-01_18h27.31.722.csv","alla","pseudoword","0","1","0",0.5475,"L3_group",0,-0.602392817291481
"372","5b8eab705206680001da3583","5b8eab705206680001da3583_empathy_intonation_perc_2025-05-01_18h27.31.722.csv","plan","three_way_cognate","1","1","0",0.6942,"L3_group",1,-0.364995175554451
"373","5b8eab705206680001da3583","5b8eab705206680001da3583_empathy_intonation_perc_2025-05-01_18h27.31.722.csv","mibro","pseudoword","0","0","1",0.5917,"L3_group",1,-0.524755529299489
"374","5b8eab705206680001da3583","5b8eab705206680001da3583_empathy_intonation_perc_2025-05-01_18h27.31.722.csv","ozoso","pseudoword","0","1","0",0.6271,"L3_group",0,-0.466649261433162
"375","5b8eab705206680001da3583","5b8eab705206680001da3583_empathy_intonation_perc_2025-05-01_18h27.31.722.csv","pasta","two_way_cognate","1","1","0",0.6244,"L3_group",1,-0.47096409034086
"376","5bbbdca68f3bd70001e713ef","5bbbdca68f3bd70001e713ef_empathy_intonation_perc_2025-04-30_16h12.01.646.csv","vien","pseudoword","0","0","1",1.0534,"L3_group",1,0.0520230280671518
"377","5bbbdca68f3bd70001e713ef","5bbbdca68f3bd70001e713ef_empathy_intonation_perc_2025-04-30_16h12.01.646.csv","chocar","non_cognate","1","0","1",1.4199,"L3_group",0,0.350586446598175
"378","5bbbdca68f3bd70001e713ef","5bbbdca68f3bd70001e713ef_empathy_intonation_perc_2025-04-30_16h12.01.646.csv","tator","pseudoword","0","1","0",1.455,"L3_group",0,0.375005900623456
"379","5bbbdca68f3bd70001e713ef","5bbbdca68f3bd70001e713ef_empathy_intonation_perc_2025-04-30_16h12.01.646.csv","rendir","non_cognate","1","0","1",0.9368,"L3_group",0,-0.0652854666986295
"380","5bbbdca68f3bd70001e713ef","5bbbdca68f3bd70001e713ef_empathy_intonation_perc_2025-04-30_16h12.01.646.csv","trcia","pseudoword","0","1","0",1.2032,"L3_group",0,0.184984674213438
"381","5bbbdca68f3bd70001e713ef","5bbbdca68f3bd70001e713ef_empathy_intonation_perc_2025-04-30_16h12.01.646.csv","moral","three_way_cognate","1","1","0",1.515,"L3_group",1,0.415415438961332
"382","5bbbdca68f3bd70001e713ef","5bbbdca68f3bd70001e713ef_empathy_intonation_perc_2025-04-30_16h12.01.646.csv","diabo","pseudoword","0","1","0",1.323,"L3_group",0,0.279901885132819
"383","5bbbdca68f3bd70001e713ef","5bbbdca68f3bd70001e713ef_empathy_intonation_perc_2025-04-30_16h12.01.646.csv","gino","pseudoword","0","0","1",1.4033,"L3_group",1,0.338826605774953
"384","5bbbdca68f3bd70001e713ef","5bbbdca68f3bd70001e713ef_empathy_intonation_perc_2025-04-30_16h12.01.646.csv","estulo","pseudoword","0","1","0",1.6067,"L3_group",0,0.474182386067152
"385","5bbbdca68f3bd70001e713ef","5bbbdca68f3bd70001e713ef_empathy_intonation_perc_2025-04-30_16h12.01.646.csv","muleta","non_cognate","1","1","0",1.7878,"L3_group",1,0.580985813671615
"386","5bbbdca68f3bd70001e713ef","5bbbdca68f3bd70001e713ef_empathy_intonation_perc_2025-04-30_16h12.01.646.csv","torta","non_cognate","1","1","0",0.7543,"L3_group",1,-0.281965112122552
"387","5bbbdca68f3bd70001e713ef","5bbbdca68f3bd70001e713ef_empathy_intonation_perc_2025-04-30_16h12.01.646.csv","morrá","pseudoword","0","1","0",1.0515,"L3_group",0,0.0502177161606175
"388","5bbbdca68f3bd70001e713ef","5bbbdca68f3bd70001e713ef_empathy_intonation_perc_2025-04-30_16h12.01.646.csv","albino","three_way_cognate","1","0","1",0.9367,"L3_group",0,-0.0653922187670522
"389","5bbbdca68f3bd70001e713ef","5bbbdca68f3bd70001e713ef_empathy_intonation_perc_2025-04-30_16h12.01.646.csv","nomata","pseudoword","0","1","0",1.5265,"L3_group",0,0.422977533192795
"390","5bbbdca68f3bd70001e713ef","5bbbdca68f3bd70001e713ef_empathy_intonation_perc_2025-04-30_16h12.01.646.csv","pico","non_cognate","1","1","0",1.2755,"L3_group",1,0.243338258599729
"391","5bbbdca68f3bd70001e713ef","5bbbdca68f3bd70001e713ef_empathy_intonation_perc_2025-04-30_16h12.01.646.csv","animal","two_way_cognate","1","0","1",1.5524,"L3_group",0,0.439802120512614
"392","5bbbdca68f3bd70001e713ef","5bbbdca68f3bd70001e713ef_empathy_intonation_perc_2025-04-30_16h12.01.646.csv","esís","pseudoword","0","1","0",1.7504,"L3_group",0,0.559844333245525
"393","5bbbdca68f3bd70001e713ef","5bbbdca68f3bd70001e713ef_empathy_intonation_perc_2025-04-30_16h12.01.646.csv","ánimo","non_cognate","1","0","1",1.6859,"L3_group",0,0.522299545839618
"394","5bbbdca68f3bd70001e713ef","5bbbdca68f3bd70001e713ef_empathy_intonation_perc_2025-04-30_16h12.01.646.csv","hilo","non_cognate","1","0","1",1.2679,"L3_group",0,0.237361988551765
"395","5bbbdca68f3bd70001e713ef","5bbbdca68f3bd70001e713ef_empathy_intonation_perc_2025-04-30_16h12.01.646.csv","civil","two_way_cognate","1","1","0",1.1701,"L3_group",1,0.157089215242775
"396","5bbbdca68f3bd70001e713ef","5bbbdca68f3bd70001e713ef_empathy_intonation_perc_2025-04-30_16h12.01.646.csv","rizate","pseudoword","0","0","1",1.0199,"L3_group",1,0.0197045832743354
"397","5bbbdca68f3bd70001e713ef","5bbbdca68f3bd70001e713ef_empathy_intonation_perc_2025-04-30_16h12.01.646.csv","plan","three_way_cognate","1","0","1",1.5339,"L3_group",0,0.427813511771926
"398","5bbbdca68f3bd70001e713ef","5bbbdca68f3bd70001e713ef_empathy_intonation_perc_2025-04-30_16h12.01.646.csv","huenos","pseudoword","0","1","0",1.3367,"L3_group",0,0.29020388999529
"399","5bbbdca68f3bd70001e713ef","5bbbdca68f3bd70001e713ef_empathy_intonation_perc_2025-04-30_16h12.01.646.csv","aviso","non_cognate","1","0","1",1.8877,"L3_group",0,0.635359156792551
"400","5bbbdca68f3bd70001e713ef","5bbbdca68f3bd70001e713ef_empathy_intonation_perc_2025-04-30_16h12.01.646.csv","gió","pseudoword","0","0","1",0.8093,"L3_group",1,-0.211585602480481
"401","5bbbdca68f3bd70001e713ef","5bbbdca68f3bd70001e713ef_empathy_intonation_perc_2025-04-30_16h12.01.646.csv","seled","pseudoword","0","0","1",1.3203,"L3_group",1,0.277858983503018
"402","5bbbdca68f3bd70001e713ef","5bbbdca68f3bd70001e713ef_empathy_intonation_perc_2025-04-30_16h12.01.646.csv","extra","three_way_cognate","1","0","1",1.5006,"L3_group",0,0.405865028129491
"403","5bbbdca68f3bd70001e713ef","5bbbdca68f3bd70001e713ef_empathy_intonation_perc_2025-04-30_16h12.01.646.csv","tapa","non_cognate","1","1","0",0.856,"L3_group",1,-0.155484902840395
"404","5bbbdca68f3bd70001e713ef","5bbbdca68f3bd70001e713ef_empathy_intonation_perc_2025-04-30_16h12.01.646.csv","dogma","three_way_cognate","1","0","1",1.2864,"L3_group",0,0.251847619442565
"405","5bbbdca68f3bd70001e713ef","5bbbdca68f3bd70001e713ef_empathy_intonation_perc_2025-04-30_16h12.01.646.csv","golla","pseudoword","0","0","1",1.4007,"L3_group",1,0.336972111662864
"406","5bbbdca68f3bd70001e713ef","5bbbdca68f3bd70001e713ef_empathy_intonation_perc_2025-04-30_16h12.01.646.csv","horror","three_way_cognate","1","0","1",1.1198,"L3_group",0,0.113150097932656
"407","5bbbdca68f3bd70001e713ef","5bbbdca68f3bd70001e713ef_empathy_intonation_perc_2025-04-30_16h12.01.646.csv","collar","two_way_cognate","1","0","1",1.2529,"L3_group",0,0.22546086426937
"408","5bbbdca68f3bd70001e713ef","5bbbdca68f3bd70001e713ef_empathy_intonation_perc_2025-04-30_16h12.01.646.csv","pitis","pseudoword","0","0","1",0.9226,"L3_group",1,-0.0805595078584169
"409","5bbbdca68f3bd70001e713ef","5bbbdca68f3bd70001e713ef_empathy_intonation_perc_2025-04-30_16h12.01.646.csv","aljizo","pseudoword","0","0","1",1.1881,"L3_group",1,0.172355392482105
"410","5bbbdca68f3bd70001e713ef","5bbbdca68f3bd70001e713ef_empathy_intonation_perc_2025-04-30_16h12.01.646.csv","cuenco","non_cognate","1","1","0",0.8708,"L3_group",1,-0.138342949621745
"411","5bbbdca68f3bd70001e713ef","5bbbdca68f3bd70001e713ef_empathy_intonation_perc_2025-04-30_16h12.01.646.csv","viable","two_way_cognate","1","0","1",1.1416,"L3_group",0,0.13243078718049
"412","5bbbdca68f3bd70001e713ef","5bbbdca68f3bd70001e713ef_empathy_intonation_perc_2025-04-30_16h12.01.646.csv","color","two_way_cognate","1","0","1",0.9882,"L3_group",0,-0.0118701725704874
"413","5bbbdca68f3bd70001e713ef","5bbbdca68f3bd70001e713ef_empathy_intonation_perc_2025-04-30_16h12.01.646.csv","chat","three_way_cognate","1","0","1",1.7187,"L3_group",0,0.541568191100505
"414","5bbbdca68f3bd70001e713ef","5bbbdca68f3bd70001e713ef_empathy_intonation_perc_2025-04-30_16h12.01.646.csv","regalo","non_cognate","1","1","0",0.8203,"L3_group",1,-0.198085151973433
"415","5bbbdca68f3bd70001e713ef","5bbbdca68f3bd70001e713ef_empathy_intonation_perc_2025-04-30_16h12.01.646.csv","plago","pseudoword","0","1","0",0.9572,"L3_group",0,-0.0437429229479187
"416","5bbbdca68f3bd70001e713ef","5bbbdca68f3bd70001e713ef_empathy_intonation_perc_2025-04-30_16h12.01.646.csv","conso","pseudoword","0","0","1",1.303,"L3_group",1,0.264669298142708
"417","5bbbdca68f3bd70001e713ef","5bbbdca68f3bd70001e713ef_empathy_intonation_perc_2025-04-30_16h12.01.646.csv","total","two_way_cognate","1","1","0",1.0869,"L3_group",1,0.0833296075870042
"418","5bbbdca68f3bd70001e713ef","5bbbdca68f3bd70001e713ef_empathy_intonation_perc_2025-04-30_16h12.01.646.csv","laras","pseudoword","0","0","1",1.3891,"L3_group",1,0.328656055421207
"419","5bbbdca68f3bd70001e713ef","5bbbdca68f3bd70001e713ef_empathy_intonation_perc_2025-04-30_16h12.01.646.csv","altar","three_way_cognate","1","1","0",0.9578,"L3_group",1,-0.0431162910736281
"420","5bbbdca68f3bd70001e713ef","5bbbdca68f3bd70001e713ef_empathy_intonation_perc_2025-04-30_16h12.01.646.csv","portal","three_way_cognate","1","0","1",1.8848,"L3_group",0,0.633821714475131
"421","5bbbdca68f3bd70001e713ef","5bbbdca68f3bd70001e713ef_empathy_intonation_perc_2025-04-30_16h12.01.646.csv","arane","pseudoword","0","0","1",1.0908,"L3_group",1,0.0869113719892964
"422","5bbbdca68f3bd70001e713ef","5bbbdca68f3bd70001e713ef_empathy_intonation_perc_2025-04-30_16h12.01.646.csv","losco","pseudoword","0","1","0",1.2015,"L3_group",0,0.183570776194387
"423","5bbbdca68f3bd70001e713ef","5bbbdca68f3bd70001e713ef_empathy_intonation_perc_2025-04-30_16h12.01.646.csv","casual","two_way_cognate","1","0","1",0.9691,"L3_group",0,-0.0313874732416327
"424","5bbbdca68f3bd70001e713ef","5bbbdca68f3bd70001e713ef_empathy_intonation_perc_2025-04-30_16h12.01.646.csv","vinzó","pseudoword","0","0","1",1.4719,"L3_group",1,0.386554083216404
"425","5bbbdca68f3bd70001e713ef","5bbbdca68f3bd70001e713ef_empathy_intonation_perc_2025-04-30_16h12.01.646.csv","listo","non_cognate","1","1","0",1.9854,"L3_group",1,0.685820405173484
"426","5bbbdca68f3bd70001e713ef","5bbbdca68f3bd70001e713ef_empathy_intonation_perc_2025-04-30_16h12.01.646.csv","ceme","pseudoword","0","0","1",0.8511,"L3_group",1,-0.161225648499222
"427","5bbbdca68f3bd70001e713ef","5bbbdca68f3bd70001e713ef_empathy_intonation_perc_2025-04-30_16h12.01.646.csv","lobe","pseudoword","0","0","1",1.1642,"L3_group",1,0.152034155855498
"428","5bbbdca68f3bd70001e713ef","5bbbdca68f3bd70001e713ef_empathy_intonation_perc_2025-04-30_16h12.01.646.csv","feo","non_cognate","1","1","0",1.0722,"L3_group",1,0.0697126124113003
"429","5bbbdca68f3bd70001e713ef","5bbbdca68f3bd70001e713ef_empathy_intonation_perc_2025-04-30_16h12.01.646.csv","aleta","non_cognate","1","1","0",1.1481,"L3_group",1,0.138108402117629
"430","5bbbdca68f3bd70001e713ef","5bbbdca68f3bd70001e713ef_empathy_intonation_perc_2025-04-30_16h12.01.646.csv","enigma","two_way_cognate","1","0","1",1.0979,"L3_group",0,0.0933992642585498
"431","5bbbdca68f3bd70001e713ef","5bbbdca68f3bd70001e713ef_empathy_intonation_perc_2025-04-30_16h12.01.646.csv","ozoso","pseudoword","0","1","0",1.2025,"L3_group",0,0.184402722997779
"432","5bbbdca68f3bd70001e713ef","5bbbdca68f3bd70001e713ef_empathy_intonation_perc_2025-04-30_16h12.01.646.csv","prías","pseudoword","0","1","0",1.2141,"L3_group",0,0.194003061567792
"433","5bbbdca68f3bd70001e713ef","5bbbdca68f3bd70001e713ef_empathy_intonation_perc_2025-04-30_16h12.01.646.csv","rizado","non_cognate","1","0","1",0.9741,"L3_group",0,-0.0262413112052271
"434","5bbbdca68f3bd70001e713ef","5bbbdca68f3bd70001e713ef_empathy_intonation_perc_2025-04-30_16h12.01.646.csv","caro","non_cognate","1","1","0",1.0016,"L3_group",1,0.00159872136369707
"435","5bbbdca68f3bd70001e713ef","5bbbdca68f3bd70001e713ef_empathy_intonation_perc_2025-04-30_16h12.01.646.csv","monue","pseudoword","0","0","1",0.8403,"L3_group",1,-0.173996308047964
"436","5bbbdca68f3bd70001e713ef","5bbbdca68f3bd70001e713ef_empathy_intonation_perc_2025-04-30_16h12.01.646.csv","punta","non_cognate","1","1","0",1.1168,"L3_group",1,0.110467453025971
"437","5bbbdca68f3bd70001e713ef","5bbbdca68f3bd70001e713ef_empathy_intonation_perc_2025-04-30_16h12.01.646.csv","venado","non_cognate","1","0","1",1.5157,"L3_group",0,0.415877378455474
"438","5bbbdca68f3bd70001e713ef","5bbbdca68f3bd70001e713ef_empathy_intonation_perc_2025-04-30_16h12.01.646.csv","grigir","pseudoword","0","0","1",0.9028,"L3_group",1,-0.102254234038756
"439","5bbbdca68f3bd70001e713ef","5bbbdca68f3bd70001e713ef_empathy_intonation_perc_2025-04-30_16h12.01.646.csv","suave","non_cognate","1","0","1",1.1335,"L3_group",0,0.125310190965447
"440","5bbbdca68f3bd70001e713ef","5bbbdca68f3bd70001e713ef_empathy_intonation_perc_2025-04-30_16h12.01.646.csv","colcha","non_cognate","1","1","0",0.9698,"L3_group",1,-0.0306654143108852
"441","5bbbdca68f3bd70001e713ef","5bbbdca68f3bd70001e713ef_empathy_intonation_perc_2025-04-30_16h12.01.646.csv","densó","pseudoword","0","1","0",1.1484,"L3_group",0,0.138369669264772
"442","5bbbdca68f3bd70001e713ef","5bbbdca68f3bd70001e713ef_empathy_intonation_perc_2025-04-30_16h12.01.646.csv","editor","two_way_cognate","1","0","1",0.7994,"L3_group",0,-0.223893832704914
"443","5bbbdca68f3bd70001e713ef","5bbbdca68f3bd70001e713ef_empathy_intonation_perc_2025-04-30_16h12.01.646.csv","enorme","non_cognate","1","1","0",1.2984,"L3_group",1,0.261132737218244
"444","5bbbdca68f3bd70001e713ef","5bbbdca68f3bd70001e713ef_empathy_intonation_perc_2025-04-30_16h12.01.646.csv","hueas","pseudoword","0","1","0",1.7505,"L3_group",0,0.559901461412583
"445","5bbbdca68f3bd70001e713ef","5bbbdca68f3bd70001e713ef_empathy_intonation_perc_2025-04-30_16h12.01.646.csv","torso","two_way_cognate","1","1","0",1.0166,"L3_group",1,0.016463726030665
"446","5bbbdca68f3bd70001e713ef","5bbbdca68f3bd70001e713ef_empathy_intonation_perc_2025-04-30_16h12.01.646.csv","mango","three_way_cognate","1","0","1",1.4396,"L3_group",0,0.364365297222739
"447","5bbbdca68f3bd70001e713ef","5bbbdca68f3bd70001e713ef_empathy_intonation_perc_2025-04-30_16h12.01.646.csv","clan","three_way_cognate","1","0","1",1.3464,"L3_group",0,0.297434363894459
"448","5bbbdca68f3bd70001e713ef","5bbbdca68f3bd70001e713ef_empathy_intonation_perc_2025-04-30_16h12.01.646.csv","chote","pseudoword","0","0","1",1.1333,"L3_group",1,0.125133730756766
"449","5bbbdca68f3bd70001e713ef","5bbbdca68f3bd70001e713ef_empathy_intonation_perc_2025-04-30_16h12.01.646.csv","medium","pseudoword","0","0","1",1.1131,"L3_group",1,0.107148915517043
"450","5bbbdca68f3bd70001e713ef","5bbbdca68f3bd70001e713ef_empathy_intonation_perc_2025-04-30_16h12.01.646.csv","mortal","two_way_cognate","1","1","0",1.6412,"L3_group",1,0.495427681585894
"451","5bbbdca68f3bd70001e713ef","5bbbdca68f3bd70001e713ef_empathy_intonation_perc_2025-04-30_16h12.01.646.csv","llzan","pseudoword","0","0","1",0.7845,"L3_group",1,-0.24270870680905
"452","5bbbdca68f3bd70001e713ef","5bbbdca68f3bd70001e713ef_empathy_intonation_perc_2025-04-30_16h12.01.646.csv","peniz","pseudoword","0","0","1",1.2825,"L3_group",1,0.248811298062788
"453","5bbbdca68f3bd70001e713ef","5bbbdca68f3bd70001e713ef_empathy_intonation_perc_2025-04-30_16h12.01.646.csv","barbs","pseudoword","0","0","1",1.2351,"L3_group",1,0.211151938461832
"454","5bbbdca68f3bd70001e713ef","5bbbdca68f3bd70001e713ef_empathy_intonation_perc_2025-04-30_16h12.01.646.csv","hurcos","pseudoword","0","1","0",1.2319,"L3_group",0,0.208557692985791
"455","5bbbdca68f3bd70001e713ef","5bbbdca68f3bd70001e713ef_empathy_intonation_perc_2025-04-30_16h12.01.646.csv","golf","three_way_cognate","1","0","1",1.0021,"L3_group",0,0.00209779808214612
"456","5bbbdca68f3bd70001e713ef","5bbbdca68f3bd70001e713ef_empathy_intonation_perc_2025-04-30_16h12.01.646.csv","civas","pseudoword","0","1","0",1.0378,"L3_group",0,0.0371030879515023
"457","5bbbdca68f3bd70001e713ef","5bbbdca68f3bd70001e713ef_empathy_intonation_perc_2025-04-30_16h12.01.646.csv","rumor","two_way_cognate","1","0","1",1.3392,"L3_group",0,0.292072420753074
"458","5bbbdca68f3bd70001e713ef","5bbbdca68f3bd70001e713ef_empathy_intonation_perc_2025-04-30_16h12.01.646.csv","trugo","pseudoword","0","1","0",0.9328,"L3_group",0,-0.0695644633859092
"459","5bbbdca68f3bd70001e713ef","5bbbdca68f3bd70001e713ef_empathy_intonation_perc_2025-04-30_16h12.01.646.csv","épinas","pseudoword","0","1","0",0.9711,"L3_group",0,-0.0293258293818287
"460","5bbbdca68f3bd70001e713ef","5bbbdca68f3bd70001e713ef_empathy_intonation_perc_2025-04-30_16h12.01.646.csv","retina","three_way_cognate","1","0","1",1.0152,"L3_group",0,0.015085637418041
"461","5bbbdca68f3bd70001e713ef","5bbbdca68f3bd70001e713ef_empathy_intonation_perc_2025-04-30_16h12.01.646.csv","lidena","pseudoword","0","0","1",1.0498,"L3_group",1,0.0485996698360624
"462","5bbbdca68f3bd70001e713ef","5bbbdca68f3bd70001e713ef_empathy_intonation_perc_2025-04-30_16h12.01.646.csv","pelvis","two_way_cognate","1","0","1",0.7871,"L3_group",0,-0.239399973833733
"463","5bbbdca68f3bd70001e713ef","5bbbdca68f3bd70001e713ef_empathy_intonation_perc_2025-04-30_16h12.01.646.csv","parre","pseudoword","0","0","1",0.8174,"L3_group",1,-0.20162670785196
"464","5bbbdca68f3bd70001e713ef","5bbbdca68f3bd70001e713ef_empathy_intonation_perc_2025-04-30_16h12.01.646.csv","llevar","non_cognate","1","1","0",0.8476,"L3_group",1,-0.165346452587993
"465","5bbbdca68f3bd70001e713ef","5bbbdca68f3bd70001e713ef_empathy_intonation_perc_2025-04-30_16h12.01.646.csv","ala","non_cognate","1","0","1",1.0086,"L3_group",0,0.00856323066048781
"466","5bbbdca68f3bd70001e713ef","5bbbdca68f3bd70001e713ef_empathy_intonation_perc_2025-04-30_16h12.01.646.csv","ardor","two_way_cognate","1","0","1",0.9498,"L3_group",0,-0.0515038428671156
"467","5bbbdca68f3bd70001e713ef","5bbbdca68f3bd70001e713ef_empathy_intonation_perc_2025-04-30_16h12.01.646.csv","molor","pseudoword","0","0","1",0.8035,"L3_group",1,-0.21877809380457
"468","5bbbdca68f3bd70001e713ef","5bbbdca68f3bd70001e713ef_empathy_intonation_perc_2025-04-30_16h12.01.646.csv","forro","non_cognate","1","0","1",1.6516,"L3_group",0,0.501744515029798
"469","5bbbdca68f3bd70001e713ef","5bbbdca68f3bd70001e713ef_empathy_intonation_perc_2025-04-30_16h12.01.646.csv","patada","non_cognate","1","1","0",0.9827,"L3_group",1,-0.0174513936137559
"470","5bbbdca68f3bd70001e713ef","5bbbdca68f3bd70001e713ef_empathy_intonation_perc_2025-04-30_16h12.01.646.csv","pupica","pseudoword","0","1","0",1.4731,"L3_group",0,0.387369023838756
"471","5bbbdca68f3bd70001e713ef","5bbbdca68f3bd70001e713ef_empathy_intonation_perc_2025-04-30_16h12.01.646.csv","listo","non_cognate","1","1","0",0.8814,"L3_group",1,-0.12624372657425
"472","5bbbdca68f3bd70001e713ef","5bbbdca68f3bd70001e713ef_empathy_intonation_perc_2025-04-30_16h12.01.646.csv","gripar","pseudoword","0","1","0",1.1649,"L3_group",0,0.152635246423594
"473","5bbbdca68f3bd70001e713ef","5bbbdca68f3bd70001e713ef_empathy_intonation_perc_2025-04-30_16h12.01.646.csv","clamor","two_way_cognate","1","0","1",1.0389,"L3_group",0,0.0381624610943489
"474","5bbbdca68f3bd70001e713ef","5bbbdca68f3bd70001e713ef_empathy_intonation_perc_2025-04-30_16h12.01.646.csv","cengo","pseudoword","0","0","1",1.2814,"L3_group",1,0.247953230222784
"475","5bbbdca68f3bd70001e713ef","5bbbdca68f3bd70001e713ef_empathy_intonation_perc_2025-04-30_16h12.01.646.csv","aura","three_way_cognate","1","0","1",1.7554,"L3_group",0,0.56269675117588
"476","5bbbdca68f3bd70001e713ef","5bbbdca68f3bd70001e713ef_empathy_intonation_perc_2025-04-30_16h12.01.646.csv","cricó","pseudoword","0","1","0",1.1715,"L3_group",0,0.158284978965713
"477","5bbbdca68f3bd70001e713ef","5bbbdca68f3bd70001e713ef_empathy_intonation_perc_2025-04-30_16h12.01.646.csv","panté","pseudoword","0","0","1",1.0725,"L3_group",1,0.069992371820035
"478","5bbbdca68f3bd70001e713ef","5bbbdca68f3bd70001e713ef_empathy_intonation_perc_2025-04-30_16h12.01.646.csv","nasce","pseudoword","0","0","1",0.8313,"L3_group",1,-0.184764538445095
"479","5bbbdca68f3bd70001e713ef","5bbbdca68f3bd70001e713ef_empathy_intonation_perc_2025-04-30_16h12.01.646.csv","tapón","non_cognate","1","0","1",1.2822,"L3_group",0,0.24857735257102
"480","5bbbdca68f3bd70001e713ef","5bbbdca68f3bd70001e713ef_empathy_intonation_perc_2025-04-30_16h12.01.646.csv","llamar","non_cognate","1","1","0",0.9982,"L3_group",1,-0.00180162194662821
"481","5bbbdca68f3bd70001e713ef","5bbbdca68f3bd70001e713ef_empathy_intonation_perc_2025-04-30_16h12.01.646.csv","mauja","pseudoword","0","0","1",1.0406,"L3_group",1,0.0397974698740661
"482","5bbbdca68f3bd70001e713ef","5bbbdca68f3bd70001e713ef_empathy_intonation_perc_2025-04-30_16h12.01.646.csv","hotel","three_way_cognate","1","0","1",1.7674,"L3_group",0,0.569509540101767
"483","5bbbdca68f3bd70001e713ef","5bbbdca68f3bd70001e713ef_empathy_intonation_perc_2025-04-30_16h12.01.646.csv","jauda","pseudoword","0","0","1",0.9039,"L3_group",1,-0.101036544177772
"484","5bbbdca68f3bd70001e713ef","5bbbdca68f3bd70001e713ef_empathy_intonation_perc_2025-04-30_16h12.01.646.csv","honor","two_way_cognate","1","0","1",0.7984,"L3_group",0,-0.225145553984883
"485","5bbbdca68f3bd70001e713ef","5bbbdca68f3bd70001e713ef_empathy_intonation_perc_2025-04-30_16h12.01.646.csv","tecia","pseudoword","0","1","0",0.7541,"L3_group",0,-0.282230293773536
"486","5bbbdca68f3bd70001e713ef","5bbbdca68f3bd70001e713ef_empathy_intonation_perc_2025-04-30_16h12.01.646.csv","fiscal","two_way_cognate","1","1","0",1.2313,"L3_group",1,0.208070521816689
"487","5bbbdca68f3bd70001e713ef","5bbbdca68f3bd70001e713ef_empathy_intonation_perc_2025-04-30_16h12.01.646.csv","asumie","pseudoword","0","0","1",1.0447,"L3_group",1,0.0437297628613252
"488","5bbbdca68f3bd70001e713ef","5bbbdca68f3bd70001e713ef_empathy_intonation_perc_2025-04-30_16h12.01.646.csv","babrá","pseudoword","0","1","0",1.0983,"L3_group",0,0.0937635298121632
"489","5bbbdca68f3bd70001e713ef","5bbbdca68f3bd70001e713ef_empathy_intonation_perc_2025-04-30_16h12.01.646.csv","suelo","non_cognate","1","1","0",1.0977,"L3_group",1,0.0932170817111337
"490","5bbbdca68f3bd70001e713ef","5bbbdca68f3bd70001e713ef_empathy_intonation_perc_2025-04-30_16h12.01.646.csv","nocó","pseudoword","0","1","0",1.5698,"L3_group",0,0.450948222710576
"491","5bbbdca68f3bd70001e713ef","5bbbdca68f3bd70001e713ef_empathy_intonation_perc_2025-04-30_16h12.01.646.csv","virios","pseudoword","0","0","1",1.0811,"L3_group",1,0.0779790413165886
"492","5bbbdca68f3bd70001e713ef","5bbbdca68f3bd70001e713ef_empathy_intonation_perc_2025-04-30_16h12.01.646.csv","tobre","pseudoword","0","1","0",1.1651,"L3_group",0,0.152806920243758
"493","5bbbdca68f3bd70001e713ef","5bbbdca68f3bd70001e713ef_empathy_intonation_perc_2025-04-30_16h12.01.646.csv","maldad","non_cognate","1","0","1",1.2633,"L3_group",0,0.233727344853855
"494","5bbbdca68f3bd70001e713ef","5bbbdca68f3bd70001e713ef_empathy_intonation_perc_2025-04-30_16h12.01.646.csv","flecha","non_cognate","1","0","1",1.583,"L3_group",0,0.459321780898875
"495","5bbbdca68f3bd70001e713ef","5bbbdca68f3bd70001e713ef_empathy_intonation_perc_2025-04-30_16h12.01.646.csv","aurora","two_way_cognate","1","1","0",1.7488,"L3_group",1,0.558929838440137
"496","5bbbdca68f3bd70001e713ef","5bbbdca68f3bd70001e713ef_empathy_intonation_perc_2025-04-30_16h12.01.646.csv","drama","three_way_cognate","1","0","1",1.3643,"L3_group",0,0.310641476586691
"497","5bbbdca68f3bd70001e713ef","5bbbdca68f3bd70001e713ef_empathy_intonation_perc_2025-04-30_16h12.01.646.csv","gravés","pseudoword","0","1","0",0.9474,"L3_group",0,-0.0540338884924856
"498","5bbbdca68f3bd70001e713ef","5bbbdca68f3bd70001e713ef_empathy_intonation_perc_2025-04-30_16h12.01.646.csv","diroco","pseudoword","0","0","1",1.9658,"L3_group",1,0.675899287150392
"499","5bbbdca68f3bd70001e713ef","5bbbdca68f3bd70001e713ef_empathy_intonation_perc_2025-04-30_16h12.01.646.csv","edioso","pseudoword","0","1","0",1.7193,"L3_group",0,0.541917231243664
"500","5bbbdca68f3bd70001e713ef","5bbbdca68f3bd70001e713ef_empathy_intonation_perc_2025-04-30_16h12.01.646.csv","puñal","non_cognate","1","0","1",1.0404,"L3_group",0,0.0396052545923594
"501","5bbbdca68f3bd70001e713ef","5bbbdca68f3bd70001e713ef_empathy_intonation_perc_2025-04-30_16h12.01.646.csv","cuenco","non_cognate","1","1","0",1.1907,"L3_group",1,0.174541369474992
"502","5bbbdca68f3bd70001e713ef","5bbbdca68f3bd70001e713ef_empathy_intonation_perc_2025-04-30_16h12.01.646.csv","piano","two_way_cognate","1","0","1",1.1571,"L3_group",0,0.145916874900155
"503","5bbbdca68f3bd70001e713ef","5bbbdca68f3bd70001e713ef_empathy_intonation_perc_2025-04-30_16h12.01.646.csv","boñaz","pseudoword","0","0","1",1.3967,"L3_group",1,0.334112311329589
"504","5bbbdca68f3bd70001e713ef","5bbbdca68f3bd70001e713ef_empathy_intonation_perc_2025-04-30_16h12.01.646.csv","mibro","pseudoword","0","0","1",0.8489,"L3_group",1,-0.163813885238215
"505","5bbbdca68f3bd70001e713ef","5bbbdca68f3bd70001e713ef_empathy_intonation_perc_2025-04-30_16h12.01.646.csv","siglo","non_cognate","1","0","1",1.6151,"L3_group",0,0.47939687426233
"506","5bbbdca68f3bd70001e713ef","5bbbdca68f3bd70001e713ef_empathy_intonation_perc_2025-04-30_16h12.01.646.csv","vigor","two_way_cognate","1","0","1",1.2508,"L3_group",0,0.223783346601549
"507","5bbbdca68f3bd70001e713ef","5bbbdca68f3bd70001e713ef_empathy_intonation_perc_2025-04-30_16h12.01.646.csv","pelvis","two_way_cognate","1","0","1",0.7852,"L3_group",0,-0.241816816579831
"508","5bbbdca68f3bd70001e713ef","5bbbdca68f3bd70001e713ef_empathy_intonation_perc_2025-04-30_16h12.01.646.csv","anfia","pseudoword","0","0","1",1.7505,"L3_group",1,0.559901461412583
"509","5bbbdca68f3bd70001e713ef","5bbbdca68f3bd70001e713ef_empathy_intonation_perc_2025-04-30_16h12.01.646.csv","dobbo","pseudoword","0","0","1",0.815,"L3_group",1,-0.204567165741274
"510","5bbbdca68f3bd70001e713ef","5bbbdca68f3bd70001e713ef_empathy_intonation_perc_2025-04-30_16h12.01.646.csv","rostro","non_cognate","1","0","1",1.1805,"L3_group",0,0.165938077543431
"511","5bbbdca68f3bd70001e713ef","5bbbdca68f3bd70001e713ef_empathy_intonation_perc_2025-04-30_16h12.01.646.csv","aduana","non_cognate","1","1","0",0.9985,"L3_group",1,-0.00150112612626709
"512","5bbbdca68f3bd70001e713ef","5bbbdca68f3bd70001e713ef_empathy_intonation_perc_2025-04-30_16h12.01.646.csv","martir","pseudoword","0","0","1",1.5499,"L3_group",1,0.438190412720868
"513","5bbbdca68f3bd70001e713ef","5bbbdca68f3bd70001e713ef_empathy_intonation_perc_2025-04-30_16h12.01.646.csv","pegar","non_cognate","1","1","0",1.0943,"L3_group",1,0.0901148894422603
"514","5bbbdca68f3bd70001e713ef","5bbbdca68f3bd70001e713ef_empathy_intonation_perc_2025-04-30_16h12.01.646.csv","dibrea","pseudoword","0","0","1",1.1143,"L3_group",1,0.108226405070871
"515","5bbbdca68f3bd70001e713ef","5bbbdca68f3bd70001e713ef_empathy_intonation_perc_2025-04-30_16h12.01.646.csv","chorde","pseudoword","0","0","1",1.2828,"L3_group",1,0.249045188836863
"516","5bbbdca68f3bd70001e713ef","5bbbdca68f3bd70001e713ef_empathy_intonation_perc_2025-04-30_16h12.01.646.csv","bugor","pseudoword","0","0","1",1.1647,"L3_group",1,0.152463543126469
"517","5bbbdca68f3bd70001e713ef","5bbbdca68f3bd70001e713ef_empathy_intonation_perc_2025-04-30_16h12.01.646.csv","brillo","non_cognate","1","1","0",0.9571,"L3_group",1,-0.0438473997802763
"518","5bbbdca68f3bd70001e713ef","5bbbdca68f3bd70001e713ef_empathy_intonation_perc_2025-04-30_16h12.01.646.csv","sacar","non_cognate","1","1","0",1.0232,"L3_group",1,0.022934971282496
"519","5bbbdca68f3bd70001e713ef","5bbbdca68f3bd70001e713ef_empathy_intonation_perc_2025-04-30_16h12.01.646.csv","actor","two_way_cognate","1","0","1",1.0973,"L3_group",0,0.0928526170146163
"520","5bbbdca68f3bd70001e713ef","5bbbdca68f3bd70001e713ef_empathy_intonation_perc_2025-04-30_16h12.01.646.csv","próces","pseudoword","0","0","1",1.9315,"L3_group",1,0.658296903124199
"521","5bbbdca68f3bd70001e713ef","5bbbdca68f3bd70001e713ef_empathy_intonation_perc_2025-04-30_16h12.01.646.csv","sasos","pseudoword","0","1","0",1.2317,"L3_group",0,0.208395328965302
"522","5bbbdca68f3bd70001e713ef","5bbbdca68f3bd70001e713ef_empathy_intonation_perc_2025-04-30_16h12.01.646.csv","dogue","pseudoword","0","0","1",1.2026,"L3_group",1,0.184485879623331
"523","5bbbdca68f3bd70001e713ef","5bbbdca68f3bd70001e713ef_empathy_intonation_perc_2025-04-30_16h12.01.646.csv","entodo","pseudoword","0","0","1",1.7722,"L3_group",1,0.572221712631065
"524","5bbbdca68f3bd70001e713ef","5bbbdca68f3bd70001e713ef_empathy_intonation_perc_2025-04-30_16h12.01.646.csv","suelet","pseudoword","0","0","1",1.1151,"L3_group",1,0.108944086989179
"525","5bbbdca68f3bd70001e713ef","5bbbdca68f3bd70001e713ef_empathy_intonation_perc_2025-04-30_16h12.01.646.csv","cobén","pseudoword","0","0","1",0.9642,"L3_group",1,-0.0364565370106152
"526","5bbbdca68f3bd70001e713ef","5bbbdca68f3bd70001e713ef_empathy_intonation_perc_2025-04-30_16h12.01.646.csv","desaro","pseudoword","0","1","0",0.8833,"L3_group",0,-0.124090385231051
"527","5bbbdca68f3bd70001e713ef","5bbbdca68f3bd70001e713ef_empathy_intonation_perc_2025-04-30_16h12.01.646.csv","muñeca","non_cognate","1","1","0",1.1532,"L3_group",1,0.14254068678211
"528","5bbbdca68f3bd70001e713ef","5bbbdca68f3bd70001e713ef_empathy_intonation_perc_2025-04-30_16h12.01.646.csv","sierra","non_cognate","1","1","0",0.8853,"L3_group",1,-0.121828708365134
"529","5bbbdca68f3bd70001e713ef","5bbbdca68f3bd70001e713ef_empathy_intonation_perc_2025-04-30_16h12.01.646.csv","diebro","pseudoword","0","0","1",1.7646,"L3_group",1,0.567924035805867
"530","5bbbdca68f3bd70001e713ef","5bbbdca68f3bd70001e713ef_empathy_intonation_perc_2025-04-30_16h12.01.646.csv","amplir","pseudoword","0","1","0",0.8309,"L3_group",0,-0.185245828311201
"531","5bbbdca68f3bd70001e713ef","5bbbdca68f3bd70001e713ef_empathy_intonation_perc_2025-04-30_16h12.01.646.csv","dubo","pseudoword","0","0","1",0.8467,"L3_group",1,-0.166408838333906
"532","5bbbdca68f3bd70001e713ef","5bbbdca68f3bd70001e713ef_empathy_intonation_perc_2025-04-30_16h12.01.646.csv","pabea","pseudoword","0","0","1",1.1678,"L3_group",1,0.1551216368673
"533","5bbbdca68f3bd70001e713ef","5bbbdca68f3bd70001e713ef_empathy_intonation_perc_2025-04-30_16h12.01.646.csv","kugis","pseudoword","0","0","1",0.7558,"L3_group",1,-0.279978488066748
"534","5bbbdca68f3bd70001e713ef","5bbbdca68f3bd70001e713ef_empathy_intonation_perc_2025-04-30_16h12.01.646.csv","flora","three_way_cognate","1","0","1",1.235,"L3_group",0,0.211070970079941
"535","5bbbdca68f3bd70001e713ef","5bbbdca68f3bd70001e713ef_empathy_intonation_perc_2025-04-30_16h12.01.646.csv","teñir","non_cognate","1","0","1",0.8763,"L3_group",0,-0.132046780920332
"536","5bbbdca68f3bd70001e713ef","5bbbdca68f3bd70001e713ef_empathy_intonation_perc_2025-04-30_16h12.01.646.csv","alla","pseudoword","0","1","0",1.2041,"L3_group",0,0.185732399916036
"537","5bbbdca68f3bd70001e713ef","5bbbdca68f3bd70001e713ef_empathy_intonation_perc_2025-04-30_16h12.01.646.csv","test","three_way_cognate","1","0","1",0.7478,"L3_group",0,-0.290619716439124
"538","5bbbdca68f3bd70001e713ef","5bbbdca68f3bd70001e713ef_empathy_intonation_perc_2025-04-30_16h12.01.646.csv","gotro","pseudoword","0","0","1",1.9345,"L3_group",1,0.659848895158431
"539","5bbbdca68f3bd70001e713ef","5bbbdca68f3bd70001e713ef_empathy_intonation_perc_2025-04-30_16h12.01.646.csv","samón","pseudoword","0","1","0",1.7397,"L3_group",0,0.553712684568368
