"","ppt","source","word","type","correct_reponse","key_resp_lextale_trial.keys","key_resp_lextale_trial.corr","key_resp_lextale_trial.rt","is_correct","log_rt"
"1",1,"/Users/kyleparrish/Documents/GitHub/l3_cognate_study_pilot/data/raw/5fb16308dc5973607fa3041c_empathy_intonation_perc_2024-06-07_07h33.44.669.csv","test","three_way_cognate","1","1","0",1.3851,1,0.325772339198916
"2",1,"/Users/kyleparrish/Documents/GitHub/l3_cognate_study_pilot/data/raw/5fb16308dc5973607fa3041c_empathy_intonation_perc_2024-06-07_07h33.44.669.csv","crene","pseudoword","0","0","1",1.3998,1,0.336329369273302
"3",1,"/Users/kyleparrish/Documents/GitHub/l3_cognate_study_pilot/data/raw/5fb16308dc5973607fa3041c_empathy_intonation_perc_2024-06-07_07h33.44.669.csv","golf","three_way_cognate","1","1","0",0.6495,1,-0.431552442871483
"4",1,"/Users/kyleparrish/Documents/GitHub/l3_cognate_study_pilot/data/raw/5fb16308dc5973607fa3041c_empathy_intonation_perc_2024-06-07_07h33.44.669.csv","medón","pseudoword","0","0","1",0.7843,1,-0.242963678763516
"5",1,"/Users/kyleparrish/Documents/GitHub/l3_cognate_study_pilot/data/raw/5fb16308dc5973607fa3041c_empathy_intonation_perc_2024-06-07_07h33.44.669.csv","mortal","two_way_cognate","1","1","0",0.9021,1,-0.103029900319544
"6",1,"/Users/kyleparrish/Documents/GitHub/l3_cognate_study_pilot/data/raw/5fb16308dc5973607fa3041c_empathy_intonation_perc_2024-06-07_07h33.44.669.csv","rombar","pseudoword","0","0","1",1.5148,1,0.415283417045503
"7",1,"/Users/kyleparrish/Documents/GitHub/l3_cognate_study_pilot/data/raw/5fb16308dc5973607fa3041c_empathy_intonation_perc_2024-06-07_07h33.44.669.csv","escare","pseudoword","0","0","1",1.2168,1,0.196224461962946
"8",1,"/Users/kyleparrish/Documents/GitHub/l3_cognate_study_pilot/data/raw/5fb16308dc5973607fa3041c_empathy_intonation_perc_2024-06-07_07h33.44.669.csv","tirafa","pseudoword","0","0","1",1.4361,1,0.361931106084436
"9",1,"/Users/kyleparrish/Documents/GitHub/l3_cognate_study_pilot/data/raw/5fb16308dc5973607fa3041c_empathy_intonation_perc_2024-06-07_07h33.44.669.csv","tumor","three_way_cognate","1","1","0",0.5972,1,-0.515503213317102
"10",1,"/Users/kyleparrish/Documents/GitHub/l3_cognate_study_pilot/data/raw/5fb16308dc5973607fa3041c_empathy_intonation_perc_2024-06-07_07h33.44.669.csv","viarle","pseudoword","0","0","1",0.7811,1,-0.247052096365885
"11",1,"/Users/kyleparrish/Documents/GitHub/l3_cognate_study_pilot/data/raw/5fb16308dc5973607fa3041c_empathy_intonation_perc_2024-06-07_07h33.44.669.csv","aurora","two_way_cognate","1","1","0",0.5982,1,-0.51383013278629
"12",1,"/Users/kyleparrish/Documents/GitHub/l3_cognate_study_pilot/data/raw/5fb16308dc5973607fa3041c_empathy_intonation_perc_2024-06-07_07h33.44.669.csv","coyo","pseudoword","0","0","1",0.8541,1,-0.157706996030036
"13",1,"/Users/kyleparrish/Documents/GitHub/l3_cognate_study_pilot/data/raw/5fb16308dc5973607fa3041c_empathy_intonation_perc_2024-06-07_07h33.44.669.csv","flora","three_way_cognate","1","1","0",0.652,1,-0.427710717055484
"14",1,"/Users/kyleparrish/Documents/GitHub/l3_cognate_study_pilot/data/raw/5fb16308dc5973607fa3041c_empathy_intonation_perc_2024-06-07_07h33.44.669.csv","total","two_way_cognate","1","1","0",0.6018,1,-0.507830114786192
"15",1,"/Users/kyleparrish/Documents/GitHub/l3_cognate_study_pilot/data/raw/5fb16308dc5973607fa3041c_empathy_intonation_perc_2024-06-07_07h33.44.669.csv","sierra","non_cognate","1","1","0",1.3719,1,0.316196640349982
"16",1,"/Users/kyleparrish/Documents/GitHub/l3_cognate_study_pilot/data/raw/5fb16308dc5973607fa3041c_empathy_intonation_perc_2024-06-07_07h33.44.669.csv","extra","three_way_cognate","1","1","0",0.6,1,-0.510825623765991
"17",1,"/Users/kyleparrish/Documents/GitHub/l3_cognate_study_pilot/data/raw/5fb16308dc5973607fa3041c_empathy_intonation_perc_2024-06-07_07h33.44.669.csv","disco","three_way_cognate","1","1","0",0.7197,1,-0.328920820468378
"18",1,"/Users/kyleparrish/Documents/GitHub/l3_cognate_study_pilot/data/raw/5fb16308dc5973607fa3041c_empathy_intonation_perc_2024-06-07_07h33.44.669.csv","fruzas","pseudoword","0","0","1",0.7938,1,-0.230923738633172
"19",1,"/Users/kyleparrish/Documents/GitHub/l3_cognate_study_pilot/data/raw/5fb16308dc5973607fa3041c_empathy_intonation_perc_2024-06-07_07h33.44.669.csv","pasta","two_way_cognate","1","1","0",0.6541,1,-0.42449503401497
"20",1,"/Users/kyleparrish/Documents/GitHub/l3_cognate_study_pilot/data/raw/5fb16308dc5973607fa3041c_empathy_intonation_perc_2024-06-07_07h33.44.669.csv","editor","two_way_cognate","1","1","0",0.6695,1,-0.40122411385091
"21",1,"/Users/kyleparrish/Documents/GitHub/l3_cognate_study_pilot/data/raw/5fb16308dc5973607fa3041c_empathy_intonation_perc_2024-06-07_07h33.44.669.csv","aura","three_way_cognate","1","1","0",0.5901,1,-0.527463264919014
"22",1,"/Users/kyleparrish/Documents/GitHub/l3_cognate_study_pilot/data/raw/5fb16308dc5973607fa3041c_empathy_intonation_perc_2024-06-07_07h33.44.669.csv","plamos","pseudoword","0","0","1",0.7508,1,-0.286615974269783
"23",1,"/Users/kyleparrish/Documents/GitHub/l3_cognate_study_pilot/data/raw/5fb16308dc5973607fa3041c_empathy_intonation_perc_2024-06-07_07h33.44.669.csv","piria","pseudoword","0","0","1",0.6021,1,-0.507331734511735
"24",1,"/Users/kyleparrish/Documents/GitHub/l3_cognate_study_pilot/data/raw/5fb16308dc5973607fa3041c_empathy_intonation_perc_2024-06-07_07h33.44.669.csv","difrás","pseudoword","0","0","1",0.6509,1,-0.429399258403795
"25",1,"/Users/kyleparrish/Documents/GitHub/l3_cognate_study_pilot/data/raw/5fb16308dc5973607fa3041c_empathy_intonation_perc_2024-06-07_07h33.44.669.csv","actor","two_way_cognate","1","1","0",0.585,1,-0.536143431750281
"26",1,"/Users/kyleparrish/Documents/GitHub/l3_cognate_study_pilot/data/raw/5fb16308dc5973607fa3041c_empathy_intonation_perc_2024-06-07_07h33.44.669.csv","horror","three_way_cognate","1","1","0",0.5665,1,-0.568278198514076
"27",1,"/Users/kyleparrish/Documents/GitHub/l3_cognate_study_pilot/data/raw/5fb16308dc5973607fa3041c_empathy_intonation_perc_2024-06-07_07h33.44.669.csv","ala","non_cognate","1","1","0",0.6032,1,-0.505506462288391
"28",1,"/Users/kyleparrish/Documents/GitHub/l3_cognate_study_pilot/data/raw/5fb16308dc5973607fa3041c_empathy_intonation_perc_2024-06-07_07h33.44.669.csv","pelvis","two_way_cognate","1","1","0",0.5505,1,-0.596928322819402
"29",1,"/Users/kyleparrish/Documents/GitHub/l3_cognate_study_pilot/data/raw/5fb16308dc5973607fa3041c_empathy_intonation_perc_2024-06-07_07h33.44.669.csv","mieris","pseudoword","0","0","1",0.606,1,-0.500875292912823
"30",1,"/Users/kyleparrish/Documents/GitHub/l3_cognate_study_pilot/data/raw/5fb16308dc5973607fa3041c_empathy_intonation_perc_2024-06-07_07h33.44.669.csv","sumer","pseudoword","0","0","1",1.2896,1,0.254332092770227
"31",1,"/Users/kyleparrish/Documents/GitHub/l3_cognate_study_pilot/data/raw/5fb16308dc5973607fa3041c_empathy_intonation_perc_2024-06-07_07h33.44.669.csv","clan","three_way_cognate","1","1","0",1.0157,1,0.0155780299633185
"32",1,"/Users/kyleparrish/Documents/GitHub/l3_cognate_study_pilot/data/raw/5fb16308dc5973607fa3041c_empathy_intonation_perc_2024-06-07_07h33.44.669.csv","curgué","pseudoword","0","0","1",0.5869,1,-0.532900831417848
"33",1,"/Users/kyleparrish/Documents/GitHub/l3_cognate_study_pilot/data/raw/5fb16308dc5973607fa3041c_empathy_intonation_perc_2024-06-07_07h33.44.669.csv","vibler","pseudoword","0","0","1",0.9522,1,-0.0489801822217186
"34",1,"/Users/kyleparrish/Documents/GitHub/l3_cognate_study_pilot/data/raw/5fb16308dc5973607fa3041c_empathy_intonation_perc_2024-06-07_07h33.44.669.csv","brillo","non_cognate","1","1","0",0.6535,1,-0.42541274591786
"35",1,"/Users/kyleparrish/Documents/GitHub/l3_cognate_study_pilot/data/raw/5fb16308dc5973607fa3041c_empathy_intonation_perc_2024-06-07_07h33.44.669.csv","cituló","pseudoword","0","0","1",0.5228,1,-0.64855629723207
"36",1,"/Users/kyleparrish/Documents/GitHub/l3_cognate_study_pilot/data/raw/5fb16308dc5973607fa3041c_empathy_intonation_perc_2024-06-07_07h33.44.669.csv","suchas","pseudoword","0","0","1",0.539,1,-0.61803970807314
"37",1,"/Users/kyleparrish/Documents/GitHub/l3_cognate_study_pilot/data/raw/5fb16308dc5973607fa3041c_empathy_intonation_perc_2024-06-07_07h33.44.669.csv","plural","three_way_cognate","1","1","0",0.6573,1,-0.419614743712607
"38",1,"/Users/kyleparrish/Documents/GitHub/l3_cognate_study_pilot/data/raw/5fb16308dc5973607fa3041c_empathy_intonation_perc_2024-06-07_07h33.44.669.csv","dubo","pseudoword","0","0","1",0.8024,1,-0.220148042334411
"39",1,"/Users/kyleparrish/Documents/GitHub/l3_cognate_study_pilot/data/raw/5fb16308dc5973607fa3041c_empathy_intonation_perc_2024-06-07_07h33.44.669.csv","porno","three_way_cognate","1","1","0",0.618,1,-0.481266821524446
"40",1,"/Users/kyleparrish/Documents/GitHub/l3_cognate_study_pilot/data/raw/5fb16308dc5973607fa3041c_empathy_intonation_perc_2024-06-07_07h33.44.669.csv","hágino","pseudoword","0","0","1",0.669,1,-0.401971218853909
"41",1,"/Users/kyleparrish/Documents/GitHub/l3_cognate_study_pilot/data/raw/5fb16308dc5973607fa3041c_empathy_intonation_perc_2024-06-07_07h33.44.669.csv","punta","non_cognate","1","1","0",0.6465,1,-0.436182080770225
"42",1,"/Users/kyleparrish/Documents/GitHub/l3_cognate_study_pilot/data/raw/5fb16308dc5973607fa3041c_empathy_intonation_perc_2024-06-07_07h33.44.669.csv","sacar","non_cognate","1","1","0",0.7448,1,-0.29463955301928
"43",1,"/Users/kyleparrish/Documents/GitHub/l3_cognate_study_pilot/data/raw/5fb16308dc5973607fa3041c_empathy_intonation_perc_2024-06-07_07h33.44.669.csv","sopleó","pseudoword","0","0","1",0.7027,1,-0.352825220783985
"44",1,"/Users/kyleparrish/Documents/GitHub/l3_cognate_study_pilot/data/raw/5fb16308dc5973607fa3041c_empathy_intonation_perc_2024-06-07_07h33.44.669.csv","vigor","two_way_cognate","1","1","0",0.7228,1,-0.324622720264064
"45",1,"/Users/kyleparrish/Documents/GitHub/l3_cognate_study_pilot/data/raw/5fb16308dc5973607fa3041c_empathy_intonation_perc_2024-06-07_07h33.44.669.csv","fertes","pseudoword","0","0","1",0.6219,1,-0.474975970872293
"46",1,"/Users/kyleparrish/Documents/GitHub/l3_cognate_study_pilot/data/raw/5fb16308dc5973607fa3041c_empathy_intonation_perc_2024-06-07_07h33.44.669.csv","albino","three_way_cognate","1","1","0",1.0654,1,0.0633503155007616
"47",1,"/Users/kyleparrish/Documents/GitHub/l3_cognate_study_pilot/data/raw/5fb16308dc5973607fa3041c_empathy_intonation_perc_2024-06-07_07h33.44.669.csv","halo","two_way_cognate","1","1","0",0.7652,1,-0.267618041416039
"48",1,"/Users/kyleparrish/Documents/GitHub/l3_cognate_study_pilot/data/raw/5fb16308dc5973607fa3041c_empathy_intonation_perc_2024-06-07_07h33.44.669.csv","animal","two_way_cognate","1","1","0",0.625,1,-0.470003629245736
"49",1,"/Users/kyleparrish/Documents/GitHub/l3_cognate_study_pilot/data/raw/5fb16308dc5973607fa3041c_empathy_intonation_perc_2024-06-07_07h33.44.669.csv","fiscal","two_way_cognate","1","1","0",0.9533,1,-0.0478256294826045
"50",1,"/Users/kyleparrish/Documents/GitHub/l3_cognate_study_pilot/data/raw/5fb16308dc5973607fa3041c_empathy_intonation_perc_2024-06-07_07h33.44.669.csv","collar","two_way_cognate","1","1","0",0.6519,1,-0.427864103051643
"51",1,"/Users/kyleparrish/Documents/GitHub/l3_cognate_study_pilot/data/raw/5fb16308dc5973607fa3041c_empathy_intonation_perc_2024-06-07_07h33.44.669.csv","kilo","three_way_cognate","1","1","0",0.8342,1,-0.181282097219292
"52",1,"/Users/kyleparrish/Documents/GitHub/l3_cognate_study_pilot/data/raw/5fb16308dc5973607fa3041c_empathy_intonation_perc_2024-06-07_07h33.44.669.csv","macayó","pseudoword","0","0","1",0.8317,1,-0.184283480107495
"53",1,"/Users/kyleparrish/Documents/GitHub/l3_cognate_study_pilot/data/raw/5fb16308dc5973607fa3041c_empathy_intonation_perc_2024-06-07_07h33.44.669.csv","ceme","pseudoword","0","0","1",0.7666,1,-0.265790126035682
"54",1,"/Users/kyleparrish/Documents/GitHub/l3_cognate_study_pilot/data/raw/5fb16308dc5973607fa3041c_empathy_intonation_perc_2024-06-07_07h33.44.669.csv","erede","pseudoword","0","0","1",0.7023,1,-0.353394615817162
"55",1,"/Users/kyleparrish/Documents/GitHub/l3_cognate_study_pilot/data/raw/5fb16308dc5973607fa3041c_empathy_intonation_perc_2024-06-07_07h33.44.669.csv","puñal","non_cognate","1","1","0",0.9251,1,-0.0778534392048641
"56",1,"/Users/kyleparrish/Documents/GitHub/l3_cognate_study_pilot/data/raw/5fb16308dc5973607fa3041c_empathy_intonation_perc_2024-06-07_07h33.44.669.csv","altar","three_way_cognate","1","1","0",0.6848,1,-0.378628454154605
"57",1,"/Users/kyleparrish/Documents/GitHub/l3_cognate_study_pilot/data/raw/5fb16308dc5973607fa3041c_empathy_intonation_perc_2024-06-07_07h33.44.669.csv","apunan","pseudoword","0","0","1",0.6996,1,-0.35724653583769
"58",1,"/Users/kyleparrish/Documents/GitHub/l3_cognate_study_pilot/data/raw/5fb16308dc5973607fa3041c_empathy_intonation_perc_2024-06-07_07h33.44.669.csv","drama","three_way_cognate","1","1","0",0.6004,1,-0.51015917922283
"59",1,"/Users/kyleparrish/Documents/GitHub/l3_cognate_study_pilot/data/raw/5fb16308dc5973607fa3041c_empathy_intonation_perc_2024-06-07_07h33.44.669.csv","civas","pseudoword","0","0","1",0.6035,1,-0.505009238444551
"60",1,"/Users/kyleparrish/Documents/GitHub/l3_cognate_study_pilot/data/raw/5fb16308dc5973607fa3041c_empathy_intonation_perc_2024-06-07_07h33.44.669.csv","hufón","pseudoword","0","0","1",0.5707,1,-0.560891601439475
"61",1,"/Users/kyleparrish/Documents/GitHub/l3_cognate_study_pilot/data/raw/5fb16308dc5973607fa3041c_empathy_intonation_perc_2024-06-07_07h33.44.669.csv","hotel","three_way_cognate","1","1","0",0.5008,1,-0.691548459196248
"62",1,"/Users/kyleparrish/Documents/GitHub/l3_cognate_study_pilot/data/raw/5fb16308dc5973607fa3041c_empathy_intonation_perc_2024-06-07_07h33.44.669.csv","civil","two_way_cognate","1","1","0",0.5616,1,-0.576965426270536
"63",1,"/Users/kyleparrish/Documents/GitHub/l3_cognate_study_pilot/data/raw/5fb16308dc5973607fa3041c_empathy_intonation_perc_2024-06-07_07h33.44.669.csv","mango","three_way_cognate","1","1","0",0.6307,1,-0.460924965312531
"64",1,"/Users/kyleparrish/Documents/GitHub/l3_cognate_study_pilot/data/raw/5fb16308dc5973607fa3041c_empathy_intonation_perc_2024-06-07_07h33.44.669.csv","piano","two_way_cognate","1","1","0",0.5707,1,-0.560891601439475
"65",1,"/Users/kyleparrish/Documents/GitHub/l3_cognate_study_pilot/data/raw/5fb16308dc5973607fa3041c_empathy_intonation_perc_2024-06-07_07h33.44.669.csv","baurá","pseudoword","0","0","1",0.64,1,-0.44628710262842
"66",1,"/Users/kyleparrish/Documents/GitHub/l3_cognate_study_pilot/data/raw/5fb16308dc5973607fa3041c_empathy_intonation_perc_2024-06-07_07h33.44.669.csv","portal","three_way_cognate","1","1","0",0.5875,1,-0.531879032963823
"67",1,"/Users/kyleparrish/Documents/GitHub/l3_cognate_study_pilot/data/raw/5fb16308dc5973607fa3041c_empathy_intonation_perc_2024-06-07_07h33.44.669.csv","color","two_way_cognate","1","1","0",0.531,1,-0.632993257740198
"68",1,"/Users/kyleparrish/Documents/GitHub/l3_cognate_study_pilot/data/raw/5fb16308dc5973607fa3041c_empathy_intonation_perc_2024-06-07_07h33.44.669.csv","nocó","pseudoword","0","0","1",0.4848,1,-0.724018844227032
"69",1,"/Users/kyleparrish/Documents/GitHub/l3_cognate_study_pilot/data/raw/5fb16308dc5973607fa3041c_empathy_intonation_perc_2024-06-07_07h33.44.669.csv","honor","two_way_cognate","1","1","0",0.5179,1,-0.657973105552291
"70",1,"/Users/kyleparrish/Documents/GitHub/l3_cognate_study_pilot/data/raw/5fb16308dc5973607fa3041c_empathy_intonation_perc_2024-06-07_07h33.44.669.csv","tapón","non_cognate","1","1","0",0.5981,1,-0.513997314931626
"71",1,"/Users/kyleparrish/Documents/GitHub/l3_cognate_study_pilot/data/raw/5fb16308dc5973607fa3041c_empathy_intonation_perc_2024-06-07_07h33.44.669.csv","glural","pseudoword","0","0","1",0.9301,1,-0.0724631717337157
"72",1,"/Users/kyleparrish/Documents/GitHub/l3_cognate_study_pilot/data/raw/5fb16308dc5973607fa3041c_empathy_intonation_perc_2024-06-07_07h33.44.669.csv","viable","two_way_cognate","1","1","0",0.748,1,-0.29035230100766
"73",1,"/Users/kyleparrish/Documents/GitHub/l3_cognate_study_pilot/data/raw/5fb16308dc5973607fa3041c_empathy_intonation_perc_2024-06-07_07h33.44.669.csv","pelvis","two_way_cognate","1","1","0",0.5987,1,-0.512994641050831
"74",1,"/Users/kyleparrish/Documents/GitHub/l3_cognate_study_pilot/data/raw/5fb16308dc5973607fa3041c_empathy_intonation_perc_2024-06-07_07h33.44.669.csv","tapa","non_cognate","1","1","0",0.5477,1,-0.602027587192462
"75",1,"/Users/kyleparrish/Documents/GitHub/l3_cognate_study_pilot/data/raw/5fb16308dc5973607fa3041c_empathy_intonation_perc_2024-06-07_07h33.44.669.csv","unglés","pseudoword","0","0","1",0.8363,1,-0.178767878594657
"76",1,"/Users/kyleparrish/Documents/GitHub/l3_cognate_study_pilot/data/raw/5fb16308dc5973607fa3041c_empathy_intonation_perc_2024-06-07_07h33.44.669.csv","hierno","pseudoword","0","0","1",0.7023,1,-0.353394615817162
"77",1,"/Users/kyleparrish/Documents/GitHub/l3_cognate_study_pilot/data/raw/5fb16308dc5973607fa3041c_empathy_intonation_perc_2024-06-07_07h33.44.669.csv","chat","three_way_cognate","1","1","0",0.6645,1,-0.408720400828837
"78",1,"/Users/kyleparrish/Documents/GitHub/l3_cognate_study_pilot/data/raw/5fb16308dc5973607fa3041c_empathy_intonation_perc_2024-06-07_07h33.44.669.csv","esís","pseudoword","0","0","1",0.5823,1,-0.540769500139063
"79",1,"/Users/kyleparrish/Documents/GitHub/l3_cognate_study_pilot/data/raw/5fb16308dc5973607fa3041c_empathy_intonation_perc_2024-06-07_07h33.44.669.csv","plan","three_way_cognate","1","1","0",0.5955,1,-0.518353890186782
"80",1,"/Users/kyleparrish/Documents/GitHub/l3_cognate_study_pilot/data/raw/5fb16308dc5973607fa3041c_empathy_intonation_perc_2024-06-07_07h33.44.669.csv","rumor","two_way_cognate","1","1","0",0.6637,1,-0.409925038830258
"81",1,"/Users/kyleparrish/Documents/GitHub/l3_cognate_study_pilot/data/raw/5fb16308dc5973607fa3041c_empathy_intonation_perc_2024-06-07_07h33.44.669.csv","pelí","pseudoword","0","0","1",0.5818,1,-0.541628532921036
"82",1,"/Users/kyleparrish/Documents/GitHub/l3_cognate_study_pilot/data/raw/5fb16308dc5973607fa3041c_empathy_intonation_perc_2024-06-07_07h33.44.669.csv","casual","two_way_cognate","1","1","0",0.6547,1,-0.423578163535091
"83",1,"/Users/kyleparrish/Documents/GitHub/l3_cognate_study_pilot/data/raw/5fb16308dc5973607fa3041c_empathy_intonation_perc_2024-06-07_07h33.44.669.csv","mafia","three_way_cognate","1","1","0",0.8036,1,-0.218653646041358
"84",1,"/Users/kyleparrish/Documents/GitHub/l3_cognate_study_pilot/data/raw/5fb16308dc5973607fa3041c_empathy_intonation_perc_2024-06-07_07h33.44.669.csv","suave","non_cognate","1","1","0",0.7496,1,-0.288215548057925
"85",1,"/Users/kyleparrish/Documents/GitHub/l3_cognate_study_pilot/data/raw/5fb16308dc5973607fa3041c_empathy_intonation_perc_2024-06-07_07h33.44.669.csv","furbos","pseudoword","0","0","1",1.2819,1,0.248343352335952
"86",1,"/Users/kyleparrish/Documents/GitHub/l3_cognate_study_pilot/data/raw/5fb16308dc5973607fa3041c_empathy_intonation_perc_2024-06-07_07h33.44.669.csv","anicio","pseudoword","0","0","1",0.5832,1,-0.539225098287689
"87",1,"/Users/kyleparrish/Documents/GitHub/l3_cognate_study_pilot/data/raw/5fb16308dc5973607fa3041c_empathy_intonation_perc_2024-06-07_07h33.44.669.csv","vacapó","pseudoword","0","0","1",0.6702,1,-0.400179103678927
"88",1,"/Users/kyleparrish/Documents/GitHub/l3_cognate_study_pilot/data/raw/5fb16308dc5973607fa3041c_empathy_intonation_perc_2024-06-07_07h33.44.669.csv","potos","pseudoword","0","0","1",0.6653,1,-0.407517212234295
"89",1,"/Users/kyleparrish/Documents/GitHub/l3_cognate_study_pilot/data/raw/5fb16308dc5973607fa3041c_empathy_intonation_perc_2024-06-07_07h33.44.669.csv","trauma","three_way_cognate","1","1","0",0.5683,1,-0.565105830679061
"90",3,"/Users/kyleparrish/Documents/GitHub/l3_cognate_study_pilot/data/raw/60fde74940100db428b34a06_empathy_intonation_perc_2024-06-07_07h47.31.872.csv","anicio","pseudoword","0","0","1",1.7492,1,0.559158540556629
"91",3,"/Users/kyleparrish/Documents/GitHub/l3_cognate_study_pilot/data/raw/60fde74940100db428b34a06_empathy_intonation_perc_2024-06-07_07h47.31.872.csv","vapen","pseudoword","0","0","1",1.4065,1,0.341104348947775
"92",3,"/Users/kyleparrish/Documents/GitHub/l3_cognate_study_pilot/data/raw/60fde74940100db428b34a06_empathy_intonation_perc_2024-06-07_07h47.31.872.csv","baurá","pseudoword","0","0","1",1.2384,1,0.213820223853326
"93",3,"/Users/kyleparrish/Documents/GitHub/l3_cognate_study_pilot/data/raw/60fde74940100db428b34a06_empathy_intonation_perc_2024-06-07_07h47.31.872.csv","mieris","pseudoword","0","0","1",0.8386,1,-0.176021444245475
"94",3,"/Users/kyleparrish/Documents/GitHub/l3_cognate_study_pilot/data/raw/60fde74940100db428b34a06_empathy_intonation_perc_2024-06-07_07h47.31.872.csv","llamar","non_cognate","1","1","0",0.9957,1,-0.0043092715880984
"95",3,"/Users/kyleparrish/Documents/GitHub/l3_cognate_study_pilot/data/raw/60fde74940100db428b34a06_empathy_intonation_perc_2024-06-07_07h47.31.872.csv","listo","non_cognate","1","1","0",0.9473,1,-0.0541394461006482
"96",3,"/Users/kyleparrish/Documents/GitHub/l3_cognate_study_pilot/data/raw/60fde74940100db428b34a06_empathy_intonation_perc_2024-06-07_07h47.31.872.csv","fertes","pseudoword","0","0","1",0.9942,1,-0.00581688532156485
"97",3,"/Users/kyleparrish/Documents/GitHub/l3_cognate_study_pilot/data/raw/60fde74940100db428b34a06_empathy_intonation_perc_2024-06-07_07h47.31.872.csv","hufón","pseudoword","0","0","1",1.3953,1,0.333109445916024
"98",3,"/Users/kyleparrish/Documents/GitHub/l3_cognate_study_pilot/data/raw/60fde74940100db428b34a06_empathy_intonation_perc_2024-06-07_07h47.31.872.csv","animal","two_way_cognate","1","1","0",0.8299,1,-0.186450067377735
"99",3,"/Users/kyleparrish/Documents/GitHub/l3_cognate_study_pilot/data/raw/60fde74940100db428b34a06_empathy_intonation_perc_2024-06-07_07h47.31.872.csv","actor","two_way_cognate","1","1","0",0.6852,1,-0.378044512532172
"100",3,"/Users/kyleparrish/Documents/GitHub/l3_cognate_study_pilot/data/raw/60fde74940100db428b34a06_empathy_intonation_perc_2024-06-07_07h47.31.872.csv","dogma","three_way_cognate","1","1","0",1.011900001,1,0.0118297527418172
"101",3,"/Users/kyleparrish/Documents/GitHub/l3_cognate_study_pilot/data/raw/60fde74940100db428b34a06_empathy_intonation_perc_2024-06-07_07h47.31.872.csv","flora","three_way_cognate","1","1","0",1.0807,1,0.0776089793269829
"102",3,"/Users/kyleparrish/Documents/GitHub/l3_cognate_study_pilot/data/raw/60fde74940100db428b34a06_empathy_intonation_perc_2024-06-07_07h47.31.872.csv","sopleó","pseudoword","0","0","1",0.8618,1,-0.148732053800399
"103",3,"/Users/kyleparrish/Documents/GitHub/l3_cognate_study_pilot/data/raw/60fde74940100db428b34a06_empathy_intonation_perc_2024-06-07_07h47.31.872.csv","albino","three_way_cognate","1","1","0",0.9942,1,-0.00581688532156485
"104",3,"/Users/kyleparrish/Documents/GitHub/l3_cognate_study_pilot/data/raw/60fde74940100db428b34a06_empathy_intonation_perc_2024-06-07_07h47.31.872.csv","golf","three_way_cognate","1","1","0",0.6463,1,-0.436491486713287
"105",3,"/Users/kyleparrish/Documents/GitHub/l3_cognate_study_pilot/data/raw/60fde74940100db428b34a06_empathy_intonation_perc_2024-06-07_07h47.31.872.csv","potos","pseudoword","0","0","1",1.883,1,0.632866249675015
"106",3,"/Users/kyleparrish/Documents/GitHub/l3_cognate_study_pilot/data/raw/60fde74940100db428b34a06_empathy_intonation_perc_2024-06-07_07h47.31.872.csv","vitra","pseudoword","0","0","1",1.3987,1,0.335543233803121
"107",3,"/Users/kyleparrish/Documents/GitHub/l3_cognate_study_pilot/data/raw/60fde74940100db428b34a06_empathy_intonation_perc_2024-06-07_07h47.31.872.csv","tirafa","pseudoword","0","0","1",1.4288,1,0.356834931140098
"108",3,"/Users/kyleparrish/Documents/GitHub/l3_cognate_study_pilot/data/raw/60fde74940100db428b34a06_empathy_intonation_perc_2024-06-07_07h47.31.872.csv","fuar","pseudoword","0","0","1",0.8624,1,-0.148036078827404
"109",3,"/Users/kyleparrish/Documents/GitHub/l3_cognate_study_pilot/data/raw/60fde74940100db428b34a06_empathy_intonation_perc_2024-06-07_07h47.31.872.csv","curgué","pseudoword","0","0","1",0.763,1,-0.27049724769768
"110",3,"/Users/kyleparrish/Documents/GitHub/l3_cognate_study_pilot/data/raw/60fde74940100db428b34a06_empathy_intonation_perc_2024-06-07_07h47.31.872.csv","honor","two_way_cognate","1","1","0",0.6786,1,-0.387723426632007
"111",3,"/Users/kyleparrish/Documents/GitHub/l3_cognate_study_pilot/data/raw/60fde74940100db428b34a06_empathy_intonation_perc_2024-06-07_07h47.31.872.csv","casual","two_way_cognate","1","1","0",0.6391,1,-0.447694342325901
"112",3,"/Users/kyleparrish/Documents/GitHub/l3_cognate_study_pilot/data/raw/60fde74940100db428b34a06_empathy_intonation_perc_2024-06-07_07h47.31.872.csv","rumor","two_way_cognate","1","1","0",1.312299999,1,0.271781322158083
"113",3,"/Users/kyleparrish/Documents/GitHub/l3_cognate_study_pilot/data/raw/60fde74940100db428b34a06_empathy_intonation_perc_2024-06-07_07h47.31.872.csv","plan","three_way_cognate","1","1","0",0.5625,1,-0.575364144903562
"114",3,"/Users/kyleparrish/Documents/GitHub/l3_cognate_study_pilot/data/raw/60fde74940100db428b34a06_empathy_intonation_perc_2024-06-07_07h47.31.872.csv","aurora","two_way_cognate","1","1","0",1.714,1,0.538829820175588
"115",3,"/Users/kyleparrish/Documents/GitHub/l3_cognate_study_pilot/data/raw/60fde74940100db428b34a06_empathy_intonation_perc_2024-06-07_07h47.31.872.csv","vigor","two_way_cognate","1","1","0",0.877700001,1,-0.130450428244724
"116",3,"/Users/kyleparrish/Documents/GitHub/l3_cognate_study_pilot/data/raw/60fde74940100db428b34a06_empathy_intonation_perc_2024-06-07_07h47.31.872.csv","unglés","pseudoword","0","0","1",0.8265,1,-0.190555361721058
"117",3,"/Users/kyleparrish/Documents/GitHub/l3_cognate_study_pilot/data/raw/60fde74940100db428b34a06_empathy_intonation_perc_2024-06-07_07h47.31.872.csv","fruzas","pseudoword","0","0","1",0.6963,1,-0.361974677033636
"118",3,"/Users/kyleparrish/Documents/GitHub/l3_cognate_study_pilot/data/raw/60fde74940100db428b34a06_empathy_intonation_perc_2024-06-07_07h47.31.872.csv","hierno","pseudoword","0","0","1",0.762700001,1,-0.270890508500813
"119",3,"/Users/kyleparrish/Documents/GitHub/l3_cognate_study_pilot/data/raw/60fde74940100db428b34a06_empathy_intonation_perc_2024-06-07_07h47.31.872.csv","ceme","pseudoword","0","0","1",0.7396,1,-0.301645779469167
"120",3,"/Users/kyleparrish/Documents/GitHub/l3_cognate_study_pilot/data/raw/60fde74940100db428b34a06_empathy_intonation_perc_2024-06-07_07h47.31.872.csv","nocó","pseudoword","0","0","1",0.8283,1,-0.188379871377919
"121",3,"/Users/kyleparrish/Documents/GitHub/l3_cognate_study_pilot/data/raw/60fde74940100db428b34a06_empathy_intonation_perc_2024-06-07_07h47.31.872.csv","collar","two_way_cognate","1","1","0",0.712099999,1,-0.339536929398355
"122",3,"/Users/kyleparrish/Documents/GitHub/l3_cognate_study_pilot/data/raw/60fde74940100db428b34a06_empathy_intonation_perc_2024-06-07_07h47.31.872.csv","pelvis","two_way_cognate","1","1","0",0.724599999,1,-0.322135501901232
"123",3,"/Users/kyleparrish/Documents/GitHub/l3_cognate_study_pilot/data/raw/60fde74940100db428b34a06_empathy_intonation_perc_2024-06-07_07h47.31.872.csv","brillo","non_cognate","1","1","0",1.9336,1,0.659383550407136
"124",3,"/Users/kyleparrish/Documents/GitHub/l3_cognate_study_pilot/data/raw/60fde74940100db428b34a06_empathy_intonation_perc_2024-06-07_07h47.31.872.csv","macayó","pseudoword","0","0","1",0.905200001,1,-0.0995993641180265
"125",3,"/Users/kyleparrish/Documents/GitHub/l3_cognate_study_pilot/data/raw/60fde74940100db428b34a06_empathy_intonation_perc_2024-06-07_07h47.31.872.csv","portal","three_way_cognate","1","1","0",0.7487,1,-0.289416909745497
"126",3,"/Users/kyleparrish/Documents/GitHub/l3_cognate_study_pilot/data/raw/60fde74940100db428b34a06_empathy_intonation_perc_2024-06-07_07h47.31.872.csv","hotel","three_way_cognate","1","1","0",0.563200001,1,-0.574120472362736
"127",3,"/Users/kyleparrish/Documents/GitHub/l3_cognate_study_pilot/data/raw/60fde74940100db428b34a06_empathy_intonation_perc_2024-06-07_07h47.31.872.csv","apunan","pseudoword","0","0","1",0.879099999,1,-0.128856623262531
"128",3,"/Users/kyleparrish/Documents/GitHub/l3_cognate_study_pilot/data/raw/60fde74940100db428b34a06_empathy_intonation_perc_2024-06-07_07h47.31.872.csv","trauma","three_way_cognate","1","1","0",0.7596,1,-0.274963300044006
"129",3,"/Users/kyleparrish/Documents/GitHub/l3_cognate_study_pilot/data/raw/60fde74940100db428b34a06_empathy_intonation_perc_2024-06-07_07h47.31.872.csv","listo","non_cognate","1","1","0",1.728900001,1,0.547485368706996
"130",3,"/Users/kyleparrish/Documents/GitHub/l3_cognate_study_pilot/data/raw/60fde74940100db428b34a06_empathy_intonation_perc_2024-06-07_07h47.31.872.csv","porno","three_way_cognate","1","1","0",1.3627,1,0.309468025773638
"131",3,"/Users/kyleparrish/Documents/GitHub/l3_cognate_study_pilot/data/raw/60fde74940100db428b34a06_empathy_intonation_perc_2024-06-07_07h47.31.872.csv","chat","three_way_cognate","1","1","0",0.6822,1,-0.382432408997592
"132",3,"/Users/kyleparrish/Documents/GitHub/l3_cognate_study_pilot/data/raw/60fde74940100db428b34a06_empathy_intonation_perc_2024-06-07_07h47.31.872.csv","cituló","pseudoword","0","0","1",1.2453,1,0.219376464744966
"133",3,"/Users/kyleparrish/Documents/GitHub/l3_cognate_study_pilot/data/raw/60fde74940100db428b34a06_empathy_intonation_perc_2024-06-07_07h47.31.872.csv","regalo","non_cognate","1","1","0",1.3643,1,0.310641476586691
"134",3,"/Users/kyleparrish/Documents/GitHub/l3_cognate_study_pilot/data/raw/60fde74940100db428b34a06_empathy_intonation_perc_2024-06-07_07h47.31.872.csv","glural","pseudoword","0","0","1",1.0654,1,0.0633503155007616
"135",3,"/Users/kyleparrish/Documents/GitHub/l3_cognate_study_pilot/data/raw/60fde74940100db428b34a06_empathy_intonation_perc_2024-06-07_07h47.31.872.csv","piria","pseudoword","0","0","1",1.6123,1,0.477661730987557
"136",3,"/Users/kyleparrish/Documents/GitHub/l3_cognate_study_pilot/data/raw/60fde74940100db428b34a06_empathy_intonation_perc_2024-06-07_07h47.31.872.csv","mafia","three_way_cognate","1","1","0",1.6299,1,0.48851866324345
"137",3,"/Users/kyleparrish/Documents/GitHub/l3_cognate_study_pilot/data/raw/60fde74940100db428b34a06_empathy_intonation_perc_2024-06-07_07h47.31.872.csv","vibler","pseudoword","0","0","1",1.09,1,0.0861776962410524
"138",3,"/Users/kyleparrish/Documents/GitHub/l3_cognate_study_pilot/data/raw/60fde74940100db428b34a06_empathy_intonation_perc_2024-06-07_07h47.31.872.csv","test","three_way_cognate","1","1","0",0.862,1,-0.148500008318444
"139",3,"/Users/kyleparrish/Documents/GitHub/l3_cognate_study_pilot/data/raw/60fde74940100db428b34a06_empathy_intonation_perc_2024-06-07_07h47.31.872.csv","punta","non_cognate","1","1","0",1.6118,1,0.477351566908274
"140",3,"/Users/kyleparrish/Documents/GitHub/l3_cognate_study_pilot/data/raw/60fde74940100db428b34a06_empathy_intonation_perc_2024-06-07_07h47.31.872.csv","crene","pseudoword","0","0","1",1.0787,1,0.0757566123992463
"141",3,"/Users/kyleparrish/Documents/GitHub/l3_cognate_study_pilot/data/raw/60fde74940100db428b34a06_empathy_intonation_perc_2024-06-07_07h47.31.872.csv","ánimo","non_cognate","1","1","0",1.8999,1,0.641801253208357
"142",3,"/Users/kyleparrish/Documents/GitHub/l3_cognate_study_pilot/data/raw/60fde74940100db428b34a06_empathy_intonation_perc_2024-06-07_07h47.31.872.csv","sumer","pseudoword","0","0","1",1.9462,1,0.665878753405752
"143",3,"/Users/kyleparrish/Documents/GitHub/l3_cognate_study_pilot/data/raw/60fde74940100db428b34a06_empathy_intonation_perc_2024-06-07_07h47.31.872.csv","rombar","pseudoword","0","0","1",1.597,1,0.468126869232875
"144",3,"/Users/kyleparrish/Documents/GitHub/l3_cognate_study_pilot/data/raw/60fde74940100db428b34a06_empathy_intonation_perc_2024-06-07_07h47.31.872.csv","coyo","pseudoword","0","0","1",0.9761,1,-0.0241902388012177
"145",3,"/Users/kyleparrish/Documents/GitHub/l3_cognate_study_pilot/data/raw/60fde74940100db428b34a06_empathy_intonation_perc_2024-06-07_07h47.31.872.csv","torso","two_way_cognate","1","1","0",0.88,1,-0.127833371509885
"146",3,"/Users/kyleparrish/Documents/GitHub/l3_cognate_study_pilot/data/raw/60fde74940100db428b34a06_empathy_intonation_perc_2024-06-07_07h47.31.872.csv","vien","pseudoword","0","0","1",1.1467,1,0.136888252062122
"147",3,"/Users/kyleparrish/Documents/GitHub/l3_cognate_study_pilot/data/raw/60fde74940100db428b34a06_empathy_intonation_perc_2024-06-07_07h47.31.872.csv","caro","non_cognate","1","1","0",1.072200001,1,0.069712613343962
"148",3,"/Users/kyleparrish/Documents/GitHub/l3_cognate_study_pilot/data/raw/60fde74940100db428b34a06_empathy_intonation_perc_2024-06-07_07h47.31.872.csv","disco","three_way_cognate","1","1","0",0.8674,1,-0.142255047580871
"149",3,"/Users/kyleparrish/Documents/GitHub/l3_cognate_study_pilot/data/raw/60fde74940100db428b34a06_empathy_intonation_perc_2024-06-07_07h47.31.872.csv","total","two_way_cognate","1","1","0",0.5942,1,-0.52053931595363
"150",3,"/Users/kyleparrish/Documents/GitHub/l3_cognate_study_pilot/data/raw/60fde74940100db428b34a06_empathy_intonation_perc_2024-06-07_07h47.31.872.csv","ala","non_cognate","1","1","0",1.728599999,1,0.547311831757898
"151",3,"/Users/kyleparrish/Documents/GitHub/l3_cognate_study_pilot/data/raw/60fde74940100db428b34a06_empathy_intonation_perc_2024-06-07_07h47.31.872.csv","extra","three_way_cognate","1","1","0",0.7448,1,-0.29463955301928
"152",3,"/Users/kyleparrish/Documents/GitHub/l3_cognate_study_pilot/data/raw/60fde74940100db428b34a06_empathy_intonation_perc_2024-06-07_07h47.31.872.csv","editor","two_way_cognate","1","1","0",0.828200001,1,-0.188500606663232
"153",3,"/Users/kyleparrish/Documents/GitHub/l3_cognate_study_pilot/data/raw/60fde74940100db428b34a06_empathy_intonation_perc_2024-06-07_07h47.31.872.csv","suchas","pseudoword","0","0","1",0.9122,1,-0.091896014704537
"154",3,"/Users/kyleparrish/Documents/GitHub/l3_cognate_study_pilot/data/raw/60fde74940100db428b34a06_empathy_intonation_perc_2024-06-07_07h47.31.872.csv","horror","three_way_cognate","1","1","0",0.6787,1,-0.387576075272424
"155",3,"/Users/kyleparrish/Documents/GitHub/l3_cognate_study_pilot/data/raw/60fde74940100db428b34a06_empathy_intonation_perc_2024-06-07_07h47.31.872.csv","escare","pseudoword","0","0","1",0.8128,1,-0.20727020215792
"156",3,"/Users/kyleparrish/Documents/GitHub/l3_cognate_study_pilot/data/raw/60fde74940100db428b34a06_empathy_intonation_perc_2024-06-07_07h47.31.872.csv","civil","two_way_cognate","1","1","0",0.896700001,1,-0.109033919908935
"157",3,"/Users/kyleparrish/Documents/GitHub/l3_cognate_study_pilot/data/raw/60fde74940100db428b34a06_empathy_intonation_perc_2024-06-07_07h47.31.872.csv","torta","non_cognate","1","1","0",1.416799999,1,0.348400806780671
"158",3,"/Users/kyleparrish/Documents/GitHub/l3_cognate_study_pilot/data/raw/60fde74940100db428b34a06_empathy_intonation_perc_2024-06-07_07h47.31.872.csv","mango","three_way_cognate","1","1","0",0.744400001,1,-0.295176752870678
"159",3,"/Users/kyleparrish/Documents/GitHub/l3_cognate_study_pilot/data/raw/60fde74940100db428b34a06_empathy_intonation_perc_2024-06-07_07h47.31.872.csv","altar","three_way_cognate","1","1","0",0.8496,1,-0.162989628494463
"160",3,"/Users/kyleparrish/Documents/GitHub/l3_cognate_study_pilot/data/raw/60fde74940100db428b34a06_empathy_intonation_perc_2024-06-07_07h47.31.872.csv","furbos","pseudoword","0","0","1",0.8121,1,-0.208131793693772
"161",3,"/Users/kyleparrish/Documents/GitHub/l3_cognate_study_pilot/data/raw/60fde74940100db428b34a06_empathy_intonation_perc_2024-06-07_07h47.31.872.csv","suelo","non_cognate","1","1","0",1.246099999,1,0.220018673164181
"162",3,"/Users/kyleparrish/Documents/GitHub/l3_cognate_study_pilot/data/raw/60fde74940100db428b34a06_empathy_intonation_perc_2024-06-07_07h47.31.872.csv","hágino","pseudoword","0","0","1",0.8097,1,-0.211091470290068
"163",3,"/Users/kyleparrish/Documents/GitHub/l3_cognate_study_pilot/data/raw/60fde74940100db428b34a06_empathy_intonation_perc_2024-06-07_07h47.31.872.csv","suave","non_cognate","1","1","0",1.129400001,1,0.121686519142025
"164",3,"/Users/kyleparrish/Documents/GitHub/l3_cognate_study_pilot/data/raw/60fde74940100db428b34a06_empathy_intonation_perc_2024-06-07_07h47.31.872.csv","kilo","three_way_cognate","1","1","0",1.205200001,1,0.186645529103747
"165",3,"/Users/kyleparrish/Documents/GitHub/l3_cognate_study_pilot/data/raw/60fde74940100db428b34a06_empathy_intonation_perc_2024-06-07_07h47.31.872.csv","gravés","pseudoword","0","0","1",1.0271,1,0.0267392971896215
"166",3,"/Users/kyleparrish/Documents/GitHub/l3_cognate_study_pilot/data/raw/60fde74940100db428b34a06_empathy_intonation_perc_2024-06-07_07h47.31.872.csv","halo","two_way_cognate","1","1","0",0.9625,1,-0.0382212128201977
"167",3,"/Users/kyleparrish/Documents/GitHub/l3_cognate_study_pilot/data/raw/60fde74940100db428b34a06_empathy_intonation_perc_2024-06-07_07h47.31.872.csv","sierra","non_cognate","1","1","0",1.0231,1,0.0228372339027571
"168",3,"/Users/kyleparrish/Documents/GitHub/l3_cognate_study_pilot/data/raw/60fde74940100db428b34a06_empathy_intonation_perc_2024-06-07_07h47.31.872.csv","plural","three_way_cognate","1","1","0",0.679299999,1,-0.386692424256984
"169",3,"/Users/kyleparrish/Documents/GitHub/l3_cognate_study_pilot/data/raw/60fde74940100db428b34a06_empathy_intonation_perc_2024-06-07_07h47.31.872.csv","civas","pseudoword","0","0","1",0.9778,1,-0.0224501288375919
"170",3,"/Users/kyleparrish/Documents/GitHub/l3_cognate_study_pilot/data/raw/60fde74940100db428b34a06_empathy_intonation_perc_2024-06-07_07h47.31.872.csv","feo","non_cognate","1","1","0",1.1625,1,0.150572858479374
"171",3,"/Users/kyleparrish/Documents/GitHub/l3_cognate_study_pilot/data/raw/60fde74940100db428b34a06_empathy_intonation_perc_2024-06-07_07h47.31.872.csv","aura","three_way_cognate","1","1","0",1.2103,1,0.190868262762421
"172",3,"/Users/kyleparrish/Documents/GitHub/l3_cognate_study_pilot/data/raw/60fde74940100db428b34a06_empathy_intonation_perc_2024-06-07_07h47.31.872.csv","fiscal","two_way_cognate","1","1","0",0.9453,1,-0.0562529415507984
"173",3,"/Users/kyleparrish/Documents/GitHub/l3_cognate_study_pilot/data/raw/60fde74940100db428b34a06_empathy_intonation_perc_2024-06-07_07h47.31.872.csv","drama","three_way_cognate","1","1","0",0.7613,1,-0.27272778066997
"174",3,"/Users/kyleparrish/Documents/GitHub/l3_cognate_study_pilot/data/raw/60fde74940100db428b34a06_empathy_intonation_perc_2024-06-07_07h47.31.872.csv","vacapó","pseudoword","0","0","1",1.3451,1,0.296468359732399
"175",3,"/Users/kyleparrish/Documents/GitHub/l3_cognate_study_pilot/data/raw/60fde74940100db428b34a06_empathy_intonation_perc_2024-06-07_07h47.31.872.csv","tapa","non_cognate","1","1","0",0.8068,1,-0.21467947290208
"176",3,"/Users/kyleparrish/Documents/GitHub/l3_cognate_study_pilot/data/raw/60fde74940100db428b34a06_empathy_intonation_perc_2024-06-07_07h47.31.872.csv","pledú","pseudoword","0","0","1",0.7287,1,-0.3164931543059
"177",3,"/Users/kyleparrish/Documents/GitHub/l3_cognate_study_pilot/data/raw/60fde74940100db428b34a06_empathy_intonation_perc_2024-06-07_07h47.31.872.csv","pasta","two_way_cognate","1","1","0",0.7615,1,-0.272465106646921
"178",3,"/Users/kyleparrish/Documents/GitHub/l3_cognate_study_pilot/data/raw/60fde74940100db428b34a06_empathy_intonation_perc_2024-06-07_07h47.31.872.csv","llevar","non_cognate","1","1","0",1.312599999,1,0.272009902295639
"179",3,"/Users/kyleparrish/Documents/GitHub/l3_cognate_study_pilot/data/raw/60fde74940100db428b34a06_empathy_intonation_perc_2024-06-07_07h47.31.872.csv","clamor","two_way_cognate","1","1","0",1.7308,1,0.548583729368593
"180",3,"/Users/kyleparrish/Documents/GitHub/l3_cognate_study_pilot/data/raw/60fde74940100db428b34a06_empathy_intonation_perc_2024-06-07_07h47.31.872.csv","pelvis","two_way_cognate","1","1","0",0.679099999,1,-0.386986888334929
"181",3,"/Users/kyleparrish/Documents/GitHub/l3_cognate_study_pilot/data/raw/60fde74940100db428b34a06_empathy_intonation_perc_2024-06-07_07h47.31.872.csv","viarle","pseudoword","0","0","1",0.697,1,-0.360969868221613
"182",3,"/Users/kyleparrish/Documents/GitHub/l3_cognate_study_pilot/data/raw/60fde74940100db428b34a06_empathy_intonation_perc_2024-06-07_07h47.31.872.csv","color","two_way_cognate","1","1","0",0.6651,1,-0.407817873691762
"183",3,"/Users/kyleparrish/Documents/GitHub/l3_cognate_study_pilot/data/raw/60fde74940100db428b34a06_empathy_intonation_perc_2024-06-07_07h47.31.872.csv","erede","pseudoword","0","0","1",0.9965,1,-0.00350613932928759
"184",3,"/Users/kyleparrish/Documents/GitHub/l3_cognate_study_pilot/data/raw/60fde74940100db428b34a06_empathy_intonation_perc_2024-06-07_07h47.31.872.csv","viable","two_way_cognate","1","1","0",0.862799999,1,-0.147572365626153
"185",3,"/Users/kyleparrish/Documents/GitHub/l3_cognate_study_pilot/data/raw/60fde74940100db428b34a06_empathy_intonation_perc_2024-06-07_07h47.31.872.csv","dubo","pseudoword","0","0","1",0.8401,1,-0.174234346611336
"186",3,"/Users/kyleparrish/Documents/GitHub/l3_cognate_study_pilot/data/raw/60fde74940100db428b34a06_empathy_intonation_perc_2024-06-07_07h47.31.872.csv","clan","three_way_cognate","1","1","0",0.929,1,-0.0736465401682985
"187",3,"/Users/kyleparrish/Documents/GitHub/l3_cognate_study_pilot/data/raw/60fde74940100db428b34a06_empathy_intonation_perc_2024-06-07_07h47.31.872.csv","enigma","two_way_cognate","1","1","0",0.9115,1,-0.0926636848634193
"188",3,"/Users/kyleparrish/Documents/GitHub/l3_cognate_study_pilot/data/raw/60fde74940100db428b34a06_empathy_intonation_perc_2024-06-07_07h47.31.872.csv","plamos","pseudoword","0","0","1",0.930099999,1,-0.072463172808869
"189",3,"/Users/kyleparrish/Documents/GitHub/l3_cognate_study_pilot/data/raw/60fde74940100db428b34a06_empathy_intonation_perc_2024-06-07_07h47.31.872.csv","tumor","three_way_cognate","1","1","0",0.7099,1,-0.342631163936797
"190",3,"/Users/kyleparrish/Documents/GitHub/l3_cognate_study_pilot/data/raw/60fde74940100db428b34a06_empathy_intonation_perc_2024-06-07_07h47.31.872.csv","medón","pseudoword","0","0","1",0.929,1,-0.0736465401682985
"191",3,"/Users/kyleparrish/Documents/GitHub/l3_cognate_study_pilot/data/raw/60fde74940100db428b34a06_empathy_intonation_perc_2024-06-07_07h47.31.872.csv","pelí","pseudoword","0","0","1",1.145200001,1,0.135579295115033
"192",3,"/Users/kyleparrish/Documents/GitHub/l3_cognate_study_pilot/data/raw/60fde74940100db428b34a06_empathy_intonation_perc_2024-06-07_07h47.31.872.csv","pico","non_cognate","1","1","0",1.119099999,1,0.112524789948269
"193",3,"/Users/kyleparrish/Documents/GitHub/l3_cognate_study_pilot/data/raw/60fde74940100db428b34a06_empathy_intonation_perc_2024-06-07_07h47.31.872.csv","teñir","non_cognate","1","1","0",1.2955,1,0.258896721020028
"194",3,"/Users/kyleparrish/Documents/GitHub/l3_cognate_study_pilot/data/raw/60fde74940100db428b34a06_empathy_intonation_perc_2024-06-07_07h47.31.872.csv","piano","two_way_cognate","1","1","0",0.688400001,1,-0.373385213192109
"195",7,"/Users/kyleparrish/Documents/GitHub/l3_cognate_study_pilot/data/raw/630f9d70f86ca1ee77a5b8dd_empathy_intonation_perc_2024-06-07_12h11.42.765.csv","albino","three_way_cognate","1","1","0",0.4063,1,-0.900663475988456
"196",7,"/Users/kyleparrish/Documents/GitHub/l3_cognate_study_pilot/data/raw/630f9d70f86ca1ee77a5b8dd_empathy_intonation_perc_2024-06-07_12h11.42.765.csv","ardor","two_way_cognate","1","1","0",1.617,1,0.48057258059497
"197",7,"/Users/kyleparrish/Documents/GitHub/l3_cognate_study_pilot/data/raw/630f9d70f86ca1ee77a5b8dd_empathy_intonation_perc_2024-06-07_12h11.42.765.csv","listo","non_cognate","1","1","0",0.6148,1,-0.486458267317696
"198",7,"/Users/kyleparrish/Documents/GitHub/l3_cognate_study_pilot/data/raw/630f9d70f86ca1ee77a5b8dd_empathy_intonation_perc_2024-06-07_12h11.42.765.csv","plan","three_way_cognate","1","1","0",1.6982,1,0.529568866583126
"199",7,"/Users/kyleparrish/Documents/GitHub/l3_cognate_study_pilot/data/raw/630f9d70f86ca1ee77a5b8dd_empathy_intonation_perc_2024-06-07_12h11.42.765.csv","feo","non_cognate","1","1","0",0.3321,1,-1.10231915059944
"200",7,"/Users/kyleparrish/Documents/GitHub/l3_cognate_study_pilot/data/raw/630f9d70f86ca1ee77a5b8dd_empathy_intonation_perc_2024-06-07_12h11.42.765.csv","tumor","three_way_cognate","1","1","0",0.4372,1,-0.827364522679754
"201",7,"/Users/kyleparrish/Documents/GitHub/l3_cognate_study_pilot/data/raw/630f9d70f86ca1ee77a5b8dd_empathy_intonation_perc_2024-06-07_12h11.42.765.csv","chat","three_way_cognate","1","1","0",0.3822,1,-0.961811247175964
"202",7,"/Users/kyleparrish/Documents/GitHub/l3_cognate_study_pilot/data/raw/630f9d70f86ca1ee77a5b8dd_empathy_intonation_perc_2024-06-07_12h11.42.765.csv","halo","two_way_cognate","1","1","0",0.5994,1,-0.511826124099574
"203",7,"/Users/kyleparrish/Documents/GitHub/l3_cognate_study_pilot/data/raw/630f9d70f86ca1ee77a5b8dd_empathy_intonation_perc_2024-06-07_12h11.42.765.csv","suave","non_cognate","1","1","0",1.5478,1,0.436834567854222
"204",7,"/Users/kyleparrish/Documents/GitHub/l3_cognate_study_pilot/data/raw/630f9d70f86ca1ee77a5b8dd_empathy_intonation_perc_2024-06-07_12h11.42.765.csv","tapón","non_cognate","1","1","0",0.5682,1,-0.565281809562049
"205",7,"/Users/kyleparrish/Documents/GitHub/l3_cognate_study_pilot/data/raw/630f9d70f86ca1ee77a5b8dd_empathy_intonation_perc_2024-06-07_12h11.42.765.csv","collar","two_way_cognate","1","1","0",0.4859,1,-0.72175243757028
"206",7,"/Users/kyleparrish/Documents/GitHub/l3_cognate_study_pilot/data/raw/630f9d70f86ca1ee77a5b8dd_empathy_intonation_perc_2024-06-07_12h11.42.765.csv","vitra","pseudoword","0","0","1",0.4981,1,-0.696954418902899
"207",7,"/Users/kyleparrish/Documents/GitHub/l3_cognate_study_pilot/data/raw/630f9d70f86ca1ee77a5b8dd_empathy_intonation_perc_2024-06-07_12h11.42.765.csv","piano","two_way_cognate","1","1","0",0.382,1,-0.962334670375562
"208",7,"/Users/kyleparrish/Documents/GitHub/l3_cognate_study_pilot/data/raw/630f9d70f86ca1ee77a5b8dd_empathy_intonation_perc_2024-06-07_12h11.42.765.csv","guerra","non_cognate","1","1","0",0.3834,1,-0.958676448370593
"209",7,"/Users/kyleparrish/Documents/GitHub/l3_cognate_study_pilot/data/raw/630f9d70f86ca1ee77a5b8dd_empathy_intonation_perc_2024-06-07_12h11.42.765.csv","percha","non_cognate","1","1","0",0.4156,1,-0.878032019757065
"210",7,"/Users/kyleparrish/Documents/GitHub/l3_cognate_study_pilot/data/raw/630f9d70f86ca1ee77a5b8dd_empathy_intonation_perc_2024-06-07_12h11.42.765.csv","patada","non_cognate","1","1","0",0.4486,1,-0.801623656896029
"211",7,"/Users/kyleparrish/Documents/GitHub/l3_cognate_study_pilot/data/raw/630f9d70f86ca1ee77a5b8dd_empathy_intonation_perc_2024-06-07_12h11.42.765.csv","animal","two_way_cognate","1","1","0",0.6314,1,-0.459815702858246
"212",7,"/Users/kyleparrish/Documents/GitHub/l3_cognate_study_pilot/data/raw/630f9d70f86ca1ee77a5b8dd_empathy_intonation_perc_2024-06-07_12h11.42.765.csv","fuar","pseudoword","0","0","1",0.8426,1,-0.171262929437221
"213",7,"/Users/kyleparrish/Documents/GitHub/l3_cognate_study_pilot/data/raw/630f9d70f86ca1ee77a5b8dd_empathy_intonation_perc_2024-06-07_12h11.42.765.csv","color","two_way_cognate","1","1","0",1.8311,1,0.604916879165531
"214",7,"/Users/kyleparrish/Documents/GitHub/l3_cognate_study_pilot/data/raw/630f9d70f86ca1ee77a5b8dd_empathy_intonation_perc_2024-06-07_12h11.42.765.csv","portal","three_way_cognate","1","1","0",0.7836,1,-0.243856592911751
"215",7,"/Users/kyleparrish/Documents/GitHub/l3_cognate_study_pilot/data/raw/630f9d70f86ca1ee77a5b8dd_empathy_intonation_perc_2024-06-07_12h11.42.765.csv","punta","non_cognate","1","1","0",0.7506,1,-0.286882392281217
"216",7,"/Users/kyleparrish/Documents/GitHub/l3_cognate_study_pilot/data/raw/630f9d70f86ca1ee77a5b8dd_empathy_intonation_perc_2024-06-07_12h11.42.765.csv","lobe","pseudoword","0","0","1",0.7416,1,-0.298945264730492
"217",7,"/Users/kyleparrish/Documents/GitHub/l3_cognate_study_pilot/data/raw/630f9d70f86ca1ee77a5b8dd_empathy_intonation_perc_2024-06-07_12h11.42.765.csv","vapen","pseudoword","0","0","1",0.3746,1,-0.981896488972149
"218",7,"/Users/kyleparrish/Documents/GitHub/l3_cognate_study_pilot/data/raw/630f9d70f86ca1ee77a5b8dd_empathy_intonation_perc_2024-06-07_12h11.42.765.csv","ala","non_cognate","1","1","0",0.5239,1,-0.646454452567963
"219",7,"/Users/kyleparrish/Documents/GitHub/l3_cognate_study_pilot/data/raw/630f9d70f86ca1ee77a5b8dd_empathy_intonation_perc_2024-06-07_12h11.42.765.csv","brillo","non_cognate","1","1","0",0.415,1,-0.879476758751439
"220",7,"/Users/kyleparrish/Documents/GitHub/l3_cognate_study_pilot/data/raw/630f9d70f86ca1ee77a5b8dd_empathy_intonation_perc_2024-06-07_12h11.42.765.csv","casual","two_way_cognate","1","1","0",0.4824,1,-0.728981633569161
"221",7,"/Users/kyleparrish/Documents/GitHub/l3_cognate_study_pilot/data/raw/630f9d70f86ca1ee77a5b8dd_empathy_intonation_perc_2024-06-07_12h11.42.765.csv","trauma","three_way_cognate","1","1","0",1.2892,1,0.254021870959146
"222",7,"/Users/kyleparrish/Documents/GitHub/l3_cognate_study_pilot/data/raw/630f9d70f86ca1ee77a5b8dd_empathy_intonation_perc_2024-06-07_12h11.42.765.csv","torta","non_cognate","1","1","0",0.9811,1,-0.019080887812792
"223",7,"/Users/kyleparrish/Documents/GitHub/l3_cognate_study_pilot/data/raw/630f9d70f86ca1ee77a5b8dd_empathy_intonation_perc_2024-06-07_12h11.42.765.csv","unglés","pseudoword","0","0","1",0.3696,1,-0.995333939214608
"224",7,"/Users/kyleparrish/Documents/GitHub/l3_cognate_study_pilot/data/raw/630f9d70f86ca1ee77a5b8dd_empathy_intonation_perc_2024-06-07_12h11.42.765.csv","mafia","three_way_cognate","1","1","0",0.366,1,-1.00512194558077
"225",7,"/Users/kyleparrish/Documents/GitHub/l3_cognate_study_pilot/data/raw/630f9d70f86ca1ee77a5b8dd_empathy_intonation_perc_2024-06-07_12h11.42.765.csv","porno","three_way_cognate","1","1","0",0.3379,1,-1.08500528526189
"226",7,"/Users/kyleparrish/Documents/GitHub/l3_cognate_study_pilot/data/raw/630f9d70f86ca1ee77a5b8dd_empathy_intonation_perc_2024-06-07_12h11.42.765.csv","civil","two_way_cognate","1","1","0",0.8488,1,-0.163931691682364
"227",7,"/Users/kyleparrish/Documents/GitHub/l3_cognate_study_pilot/data/raw/630f9d70f86ca1ee77a5b8dd_empathy_intonation_perc_2024-06-07_12h11.42.765.csv","aleta","non_cognate","1","1","0",1.0158,1,0.0156764793850076
"228",7,"/Users/kyleparrish/Documents/GitHub/l3_cognate_study_pilot/data/raw/630f9d70f86ca1ee77a5b8dd_empathy_intonation_perc_2024-06-07_12h11.42.765.csv","dogma","three_way_cognate","1","1","0",0.9823,1,-0.0178585183013132
"229",7,"/Users/kyleparrish/Documents/GitHub/l3_cognate_study_pilot/data/raw/630f9d70f86ca1ee77a5b8dd_empathy_intonation_perc_2024-06-07_12h11.42.765.csv","enorme","non_cognate","1","1","0",0.5891,1,-0.529159330454495
"230",7,"/Users/kyleparrish/Documents/GitHub/l3_cognate_study_pilot/data/raw/630f9d70f86ca1ee77a5b8dd_empathy_intonation_perc_2024-06-07_12h11.42.765.csv","equipo","non_cognate","1","1","0",1.1477,1,0.137759939704486
"231",7,"/Users/kyleparrish/Documents/GitHub/l3_cognate_study_pilot/data/raw/630f9d70f86ca1ee77a5b8dd_empathy_intonation_perc_2024-06-07_12h11.42.765.csv","piria","pseudoword","0","0","1",0.4805,1,-0.73292805057179
"232",7,"/Users/kyleparrish/Documents/GitHub/l3_cognate_study_pilot/data/raw/630f9d70f86ca1ee77a5b8dd_empathy_intonation_perc_2024-06-07_12h11.42.765.csv","suelo","non_cognate","1","1","0",0.7914,1,-0.233951750030813
"233",7,"/Users/kyleparrish/Documents/GitHub/l3_cognate_study_pilot/data/raw/630f9d70f86ca1ee77a5b8dd_empathy_intonation_perc_2024-06-07_12h11.42.765.csv","altar","three_way_cognate","1","1","0",0.6799,1,-0.385809550449723
"234",7,"/Users/kyleparrish/Documents/GitHub/l3_cognate_study_pilot/data/raw/630f9d70f86ca1ee77a5b8dd_empathy_intonation_perc_2024-06-07_12h11.42.765.csv","cuenco","non_cognate","1","1","0",1.0609,1,0.0591176044830888
"235",7,"/Users/kyleparrish/Documents/GitHub/l3_cognate_study_pilot/data/raw/630f9d70f86ca1ee77a5b8dd_empathy_intonation_perc_2024-06-07_12h11.42.765.csv","viseña","pseudoword","0","0","1",0.4252,1,-0.855195632514344
"236",7,"/Users/kyleparrish/Documents/GitHub/l3_cognate_study_pilot/data/raw/630f9d70f86ca1ee77a5b8dd_empathy_intonation_perc_2024-06-07_12h11.42.765.csv","pelí","pseudoword","0","0","1",0.8216,1,-0.196501620367789
"237",7,"/Users/kyleparrish/Documents/GitHub/l3_cognate_study_pilot/data/raw/630f9d70f86ca1ee77a5b8dd_empathy_intonation_perc_2024-06-07_12h11.42.765.csv","pegar","non_cognate","1","1","0",0.4665,1,-0.762497258694739
"238",7,"/Users/kyleparrish/Documents/GitHub/l3_cognate_study_pilot/data/raw/630f9d70f86ca1ee77a5b8dd_empathy_intonation_perc_2024-06-07_12h11.42.765.csv","viarle","pseudoword","0","0","1",0.499,1,-0.695149183230618
"239",7,"/Users/kyleparrish/Documents/GitHub/l3_cognate_study_pilot/data/raw/630f9d70f86ca1ee77a5b8dd_empathy_intonation_perc_2024-06-07_12h11.42.765.csv","horror","three_way_cognate","1","1","0",0.7375,1,-0.304489190768162
"240",7,"/Users/kyleparrish/Documents/GitHub/l3_cognate_study_pilot/data/raw/630f9d70f86ca1ee77a5b8dd_empathy_intonation_perc_2024-06-07_12h11.42.765.csv","suchas","pseudoword","0","0","1",1.0817,1,0.0785338776541069
"241",7,"/Users/kyleparrish/Documents/GitHub/l3_cognate_study_pilot/data/raw/630f9d70f86ca1ee77a5b8dd_empathy_intonation_perc_2024-06-07_12h11.42.765.csv","venado","non_cognate","1","1","0",0.5651,1,-0.570752572346339
"242",7,"/Users/kyleparrish/Documents/GitHub/l3_cognate_study_pilot/data/raw/630f9d70f86ca1ee77a5b8dd_empathy_intonation_perc_2024-06-07_12h11.42.765.csv","tapa","non_cognate","1","1","0",0.4752,1,-0.744019510933702
"243",7,"/Users/kyleparrish/Documents/GitHub/l3_cognate_study_pilot/data/raw/630f9d70f86ca1ee77a5b8dd_empathy_intonation_perc_2024-06-07_12h11.42.765.csv","mieris","pseudoword","0","0","1",0.7906,1,-0.234963128119552
"244",7,"/Users/kyleparrish/Documents/GitHub/l3_cognate_study_pilot/data/raw/630f9d70f86ca1ee77a5b8dd_empathy_intonation_perc_2024-06-07_12h11.42.765.csv","flora","three_way_cognate","1","1","0",1.4977,1,0.403930598016213
"245",7,"/Users/kyleparrish/Documents/GitHub/l3_cognate_study_pilot/data/raw/630f9d70f86ca1ee77a5b8dd_empathy_intonation_perc_2024-06-07_12h11.42.765.csv","chocar","non_cognate","1","1","0",0.6156,1,-0.485157877017413
"246",7,"/Users/kyleparrish/Documents/GitHub/l3_cognate_study_pilot/data/raw/630f9d70f86ca1ee77a5b8dd_empathy_intonation_perc_2024-06-07_12h11.42.765.csv","total","two_way_cognate","1","1","0",0.5706,1,-0.561066840202737
"247",7,"/Users/kyleparrish/Documents/GitHub/l3_cognate_study_pilot/data/raw/630f9d70f86ca1ee77a5b8dd_empathy_intonation_perc_2024-06-07_12h11.42.765.csv","llevar","non_cognate","1","1","0",0.9345,1,-0.0677436520865195
"248",7,"/Users/kyleparrish/Documents/GitHub/l3_cognate_study_pilot/data/raw/630f9d70f86ca1ee77a5b8dd_empathy_intonation_perc_2024-06-07_12h11.42.765.csv","blando","non_cognate","1","1","0",1.5312,1,0.426051741716553
"249",7,"/Users/kyleparrish/Documents/GitHub/l3_cognate_study_pilot/data/raw/630f9d70f86ca1ee77a5b8dd_empathy_intonation_perc_2024-06-07_12h11.42.765.csv","rizado","non_cognate","1","1","0",1.7308,1,0.548583729368593
"250",8,"/Users/kyleparrish/Documents/GitHub/l3_cognate_study_pilot/data/raw/63e646333cb69048119b58c5_empathy_intonation_perc_2024-06-07_11h55.50.760.csv","pelvis","two_way_cognate","1","1","0",0.5818,1,-0.541628532921036
"251",8,"/Users/kyleparrish/Documents/GitHub/l3_cognate_study_pilot/data/raw/63e646333cb69048119b58c5_empathy_intonation_perc_2024-06-07_11h55.50.760.csv","cituló","pseudoword","0","0","1",0.5736,1,-0.555822989696726
"252",8,"/Users/kyleparrish/Documents/GitHub/l3_cognate_study_pilot/data/raw/63e646333cb69048119b58c5_empathy_intonation_perc_2024-06-07_11h55.50.760.csv","fuar","pseudoword","0","0","1",0.9312,1,-0.0712812020049636
"253",8,"/Users/kyleparrish/Documents/GitHub/l3_cognate_study_pilot/data/raw/63e646333cb69048119b58c5_empathy_intonation_perc_2024-06-07_11h55.50.760.csv","patada","non_cognate","1","1","0",1.0483,1,0.0471698044763899
"254",8,"/Users/kyleparrish/Documents/GitHub/l3_cognate_study_pilot/data/raw/63e646333cb69048119b58c5_empathy_intonation_perc_2024-06-07_11h55.50.760.csv","torta","non_cognate","1","1","0",0.5154,1,-0.662811980763872
"255",8,"/Users/kyleparrish/Documents/GitHub/l3_cognate_study_pilot/data/raw/63e646333cb69048119b58c5_empathy_intonation_perc_2024-06-07_11h55.50.760.csv","hierno","pseudoword","0","0","1",0.3646,1,-1.00895441673757
"256",8,"/Users/kyleparrish/Documents/GitHub/l3_cognate_study_pilot/data/raw/63e646333cb69048119b58c5_empathy_intonation_perc_2024-06-07_11h55.50.760.csv","vapen","pseudoword","0","0","1",0.5546,1,-0.589508145800459
"257",8,"/Users/kyleparrish/Documents/GitHub/l3_cognate_study_pilot/data/raw/63e646333cb69048119b58c5_empathy_intonation_perc_2024-06-07_11h55.50.760.csv","disco","three_way_cognate","1","1","0",0.499,1,-0.695149183230618
"258",8,"/Users/kyleparrish/Documents/GitHub/l3_cognate_study_pilot/data/raw/63e646333cb69048119b58c5_empathy_intonation_perc_2024-06-07_11h55.50.760.csv","piria","pseudoword","0","0","1",0.4154,1,-0.878513367540125
"259",8,"/Users/kyleparrish/Documents/GitHub/l3_cognate_study_pilot/data/raw/63e646333cb69048119b58c5_empathy_intonation_perc_2024-06-07_11h55.50.760.csv","crene","pseudoword","0","0","1",0.5372,1,-0.621384814333054
"260",8,"/Users/kyleparrish/Documents/GitHub/l3_cognate_study_pilot/data/raw/63e646333cb69048119b58c5_empathy_intonation_perc_2024-06-07_11h55.50.760.csv","trauma","three_way_cognate","1","1","0",0.5186,1,-0.656622405877573
"261",8,"/Users/kyleparrish/Documents/GitHub/l3_cognate_study_pilot/data/raw/63e646333cb69048119b58c5_empathy_intonation_perc_2024-06-07_11h55.50.760.csv","plan","three_way_cognate","1","1","0",0.7829,1,-0.244750305068269
"262",8,"/Users/kyleparrish/Documents/GitHub/l3_cognate_study_pilot/data/raw/63e646333cb69048119b58c5_empathy_intonation_perc_2024-06-07_11h55.50.760.csv","civil","two_way_cognate","1","1","0",0.8157,1,-0.203708638675602
"263",8,"/Users/kyleparrish/Documents/GitHub/l3_cognate_study_pilot/data/raw/63e646333cb69048119b58c5_empathy_intonation_perc_2024-06-07_11h55.50.760.csv","aduana","non_cognate","1","1","0",0.9689,1,-0.0315938715911786
"264",8,"/Users/kyleparrish/Documents/GitHub/l3_cognate_study_pilot/data/raw/63e646333cb69048119b58c5_empathy_intonation_perc_2024-06-07_11h55.50.760.csv","baurá","pseudoword","0","0","1",0.8986,1,-0.106917282346078
"265",8,"/Users/kyleparrish/Documents/GitHub/l3_cognate_study_pilot/data/raw/63e646333cb69048119b58c5_empathy_intonation_perc_2024-06-07_11h55.50.760.csv","mortal","two_way_cognate","1","1","0",0.9651,1,-0.0355235560690467
"266",8,"/Users/kyleparrish/Documents/GitHub/l3_cognate_study_pilot/data/raw/63e646333cb69048119b58c5_empathy_intonation_perc_2024-06-07_11h55.50.760.csv","fiscal","two_way_cognate","1","1","0",0.711,1,-0.341082849178896
"267",8,"/Users/kyleparrish/Documents/GitHub/l3_cognate_study_pilot/data/raw/63e646333cb69048119b58c5_empathy_intonation_perc_2024-06-07_11h55.50.760.csv","tapa","non_cognate","1","1","0",0.9732,1,-0.0271656680727696
"268",8,"/Users/kyleparrish/Documents/GitHub/l3_cognate_study_pilot/data/raw/63e646333cb69048119b58c5_empathy_intonation_perc_2024-06-07_11h55.50.760.csv","enigma","two_way_cognate","1","1","0",0.8441,1,-0.169484307992463
"269",8,"/Users/kyleparrish/Documents/GitHub/l3_cognate_study_pilot/data/raw/63e646333cb69048119b58c5_empathy_intonation_perc_2024-06-07_11h55.50.760.csv","horror","three_way_cognate","1","1","0",0.7356,1,-0.307068786251971
"270",8,"/Users/kyleparrish/Documents/GitHub/l3_cognate_study_pilot/data/raw/63e646333cb69048119b58c5_empathy_intonation_perc_2024-06-07_11h55.50.760.csv","aurora","two_way_cognate","1","1","0",0.8146,1,-0.205058083767825
"271",8,"/Users/kyleparrish/Documents/GitHub/l3_cognate_study_pilot/data/raw/63e646333cb69048119b58c5_empathy_intonation_perc_2024-06-07_11h55.50.760.csv","tiza","non_cognate","1","1","0",1.116,1,0.109750863959119
"272",8,"/Users/kyleparrish/Documents/GitHub/l3_cognate_study_pilot/data/raw/63e646333cb69048119b58c5_empathy_intonation_perc_2024-06-07_11h55.50.760.csv","ánimo","non_cognate","1","1","0",1.1982,1,0.180820430667687
"273",8,"/Users/kyleparrish/Documents/GitHub/l3_cognate_study_pilot/data/raw/63e646333cb69048119b58c5_empathy_intonation_perc_2024-06-07_11h55.50.760.csv","listo","non_cognate","1","1","0",0.5492,1,-0.599292605088321
"274",8,"/Users/kyleparrish/Documents/GitHub/l3_cognate_study_pilot/data/raw/63e646333cb69048119b58c5_empathy_intonation_perc_2024-06-07_11h55.50.760.csv","sumer","pseudoword","0","0","1",0.6026,1,-0.506501652285936
"275",8,"/Users/kyleparrish/Documents/GitHub/l3_cognate_study_pilot/data/raw/63e646333cb69048119b58c5_empathy_intonation_perc_2024-06-07_11h55.50.760.csv","honor","two_way_cognate","1","1","0",0.4338,1,-0.835171680589363
"276",8,"/Users/kyleparrish/Documents/GitHub/l3_cognate_study_pilot/data/raw/63e646333cb69048119b58c5_empathy_intonation_perc_2024-06-07_11h55.50.760.csv","hufón","pseudoword","0","0","1",0.7327,1,-0.311018937816219
"277",8,"/Users/kyleparrish/Documents/GitHub/l3_cognate_study_pilot/data/raw/63e646333cb69048119b58c5_empathy_intonation_perc_2024-06-07_11h55.50.760.csv","dubo","pseudoword","0","0","1",0.586,1,-0.534435489405125
"278",8,"/Users/kyleparrish/Documents/GitHub/l3_cognate_study_pilot/data/raw/63e646333cb69048119b58c5_empathy_intonation_perc_2024-06-07_11h55.50.760.csv","maldad","non_cognate","1","1","0",0.3992,1,-0.918292734544828
"279",8,"/Users/kyleparrish/Documents/GitHub/l3_cognate_study_pilot/data/raw/63e646333cb69048119b58c5_empathy_intonation_perc_2024-06-07_11h55.50.760.csv","forro","non_cognate","1","1","0",0.5159,1,-0.661842330731533
"280",8,"/Users/kyleparrish/Documents/GitHub/l3_cognate_study_pilot/data/raw/63e646333cb69048119b58c5_empathy_intonation_perc_2024-06-07_11h55.50.760.csv","regalo","non_cognate","1","1","0",0.4657,1,-0.764213628993806
"281",8,"/Users/kyleparrish/Documents/GitHub/l3_cognate_study_pilot/data/raw/63e646333cb69048119b58c5_empathy_intonation_perc_2024-06-07_11h55.50.760.csv","civas","pseudoword","0","0","1",0.486,1,-0.721546655081643
"282",8,"/Users/kyleparrish/Documents/GitHub/l3_cognate_study_pilot/data/raw/63e646333cb69048119b58c5_empathy_intonation_perc_2024-06-07_11h55.50.760.csv","cuenco","non_cognate","1","1","0",0.5492,1,-0.599292605088321
"283",8,"/Users/kyleparrish/Documents/GitHub/l3_cognate_study_pilot/data/raw/63e646333cb69048119b58c5_empathy_intonation_perc_2024-06-07_11h55.50.760.csv","macayó","pseudoword","0","0","1",0.5208,1,-0.652389188087777
"284",8,"/Users/kyleparrish/Documents/GitHub/l3_cognate_study_pilot/data/raw/63e646333cb69048119b58c5_empathy_intonation_perc_2024-06-07_11h55.50.760.csv","plamos","pseudoword","0","0","1",0.4321,1,-0.83909823604425
"285",8,"/Users/kyleparrish/Documents/GitHub/l3_cognate_study_pilot/data/raw/63e646333cb69048119b58c5_empathy_intonation_perc_2024-06-07_11h55.50.760.csv","suchas","pseudoword","0","0","1",0.4986,1,-0.69595110789268
"286",8,"/Users/kyleparrish/Documents/GitHub/l3_cognate_study_pilot/data/raw/63e646333cb69048119b58c5_empathy_intonation_perc_2024-06-07_11h55.50.760.csv","coyo","pseudoword","0","0","1",0.5749,1,-0.553559166352892
"287",8,"/Users/kyleparrish/Documents/GitHub/l3_cognate_study_pilot/data/raw/63e646333cb69048119b58c5_empathy_intonation_perc_2024-06-07_11h55.50.760.csv","pasta","two_way_cognate","1","1","0",0.5321,1,-0.630923837379813
"288",8,"/Users/kyleparrish/Documents/GitHub/l3_cognate_study_pilot/data/raw/63e646333cb69048119b58c5_empathy_intonation_perc_2024-06-07_11h55.50.760.csv","fertes","pseudoword","0","0","1",0.4645,1,-0.766793720728244
"289",8,"/Users/kyleparrish/Documents/GitHub/l3_cognate_study_pilot/data/raw/63e646333cb69048119b58c5_empathy_intonation_perc_2024-06-07_11h55.50.760.csv","plural","three_way_cognate","1","1","0",0.84,1,-0.174353387144778
"290",8,"/Users/kyleparrish/Documents/GitHub/l3_cognate_study_pilot/data/raw/63e646333cb69048119b58c5_empathy_intonation_perc_2024-06-07_11h55.50.760.csv","ardor","two_way_cognate","1","1","0",0.6811,1,-0.384046140734864
"291",8,"/Users/kyleparrish/Documents/GitHub/l3_cognate_study_pilot/data/raw/63e646333cb69048119b58c5_empathy_intonation_perc_2024-06-07_11h55.50.760.csv","fruzas","pseudoword","0","0","1",1.0817,1,0.0785338776541069
"292",8,"/Users/kyleparrish/Documents/GitHub/l3_cognate_study_pilot/data/raw/63e646333cb69048119b58c5_empathy_intonation_perc_2024-06-07_11h55.50.760.csv","mango","three_way_cognate","1","1","0",0.765,1,-0.267879445155601
"293",8,"/Users/kyleparrish/Documents/GitHub/l3_cognate_study_pilot/data/raw/63e646333cb69048119b58c5_empathy_intonation_perc_2024-06-07_11h55.50.760.csv","actor","two_way_cognate","1","1","0",0.5489,1,-0.599839003426293
"294",8,"/Users/kyleparrish/Documents/GitHub/l3_cognate_study_pilot/data/raw/63e646333cb69048119b58c5_empathy_intonation_perc_2024-06-07_11h55.50.760.csv","extra","three_way_cognate","1","1","0",0.5226,1,-0.648938925895625
"295",8,"/Users/kyleparrish/Documents/GitHub/l3_cognate_study_pilot/data/raw/63e646333cb69048119b58c5_empathy_intonation_perc_2024-06-07_11h55.50.760.csv","casual","two_way_cognate","1","1","0",0.771,1,-0.260066905418808
"296",8,"/Users/kyleparrish/Documents/GitHub/l3_cognate_study_pilot/data/raw/63e646333cb69048119b58c5_empathy_intonation_perc_2024-06-07_11h55.50.760.csv","apunan","pseudoword","0","0","1",0.7371,1,-0.305031710786894
"297",8,"/Users/kyleparrish/Documents/GitHub/l3_cognate_study_pilot/data/raw/63e646333cb69048119b58c5_empathy_intonation_perc_2024-06-07_11h55.50.760.csv","tirafa","pseudoword","0","0","1",0.9241,1,-0.0789349880881423
"298",8,"/Users/kyleparrish/Documents/GitHub/l3_cognate_study_pilot/data/raw/63e646333cb69048119b58c5_empathy_intonation_perc_2024-06-07_11h55.50.760.csv","ceme","pseudoword","0","0","1",1.0876,1,0.0839734337761785
"299",8,"/Users/kyleparrish/Documents/GitHub/l3_cognate_study_pilot/data/raw/63e646333cb69048119b58c5_empathy_intonation_perc_2024-06-07_11h55.50.760.csv","hotel","three_way_cognate","1","1","0",0.715,1,-0.335472736288129
"300",8,"/Users/kyleparrish/Documents/GitHub/l3_cognate_study_pilot/data/raw/63e646333cb69048119b58c5_empathy_intonation_perc_2024-06-07_11h55.50.760.csv","venado","non_cognate","1","1","0",0.7483,1,-0.289951311895824
"301",8,"/Users/kyleparrish/Documents/GitHub/l3_cognate_study_pilot/data/raw/63e646333cb69048119b58c5_empathy_intonation_perc_2024-06-07_11h55.50.760.csv","gravés","pseudoword","0","0","1",1.2563,1,0.228170893028235
"302",8,"/Users/kyleparrish/Documents/GitHub/l3_cognate_study_pilot/data/raw/63e646333cb69048119b58c5_empathy_intonation_perc_2024-06-07_11h55.50.760.csv","percha","non_cognate","1","1","0",0.6913,1,-0.369181396030918
"303",8,"/Users/kyleparrish/Documents/GitHub/l3_cognate_study_pilot/data/raw/63e646333cb69048119b58c5_empathy_intonation_perc_2024-06-07_11h55.50.760.csv","curgué","pseudoword","0","0","1",0.8919,1,-0.114401260309975
"304",8,"/Users/kyleparrish/Documents/GitHub/l3_cognate_study_pilot/data/raw/63e646333cb69048119b58c5_empathy_intonation_perc_2024-06-07_11h55.50.760.csv","porno","three_way_cognate","1","1","0",0.8324,1,-0.183442184462658
"305",8,"/Users/kyleparrish/Documents/GitHub/l3_cognate_study_pilot/data/raw/63e646333cb69048119b58c5_empathy_intonation_perc_2024-06-07_11h55.50.760.csv","guerra","non_cognate","1","1","0",0.6544,1,-0.4240364936936
"306",8,"/Users/kyleparrish/Documents/GitHub/l3_cognate_study_pilot/data/raw/63e646333cb69048119b58c5_empathy_intonation_perc_2024-06-07_11h55.50.760.csv","retina","three_way_cognate","1","1","0",0.8153,1,-0.204199135313272
"307",8,"/Users/kyleparrish/Documents/GitHub/l3_cognate_study_pilot/data/raw/63e646333cb69048119b58c5_empathy_intonation_perc_2024-06-07_11h55.50.760.csv","vigor","two_way_cognate","1","1","0",0.8088,1,-0.212203611275875
"308",8,"/Users/kyleparrish/Documents/GitHub/l3_cognate_study_pilot/data/raw/63e646333cb69048119b58c5_empathy_intonation_perc_2024-06-07_11h55.50.760.csv","enorme","non_cognate","1","1","0",0.6154,1,-0.485482816094196
"309",8,"/Users/kyleparrish/Documents/GitHub/l3_cognate_study_pilot/data/raw/63e646333cb69048119b58c5_empathy_intonation_perc_2024-06-07_11h55.50.760.csv","piano","two_way_cognate","1","1","0",0.5541,1,-0.590410103108833
"310",8,"/Users/kyleparrish/Documents/GitHub/l3_cognate_study_pilot/data/raw/63e646333cb69048119b58c5_empathy_intonation_perc_2024-06-07_11h55.50.760.csv","vacapó","pseudoword","0","0","1",0.6238,1,-0.471925474808434
"311",8,"/Users/kyleparrish/Documents/GitHub/l3_cognate_study_pilot/data/raw/63e646333cb69048119b58c5_empathy_intonation_perc_2024-06-07_11h55.50.760.csv","chocar","non_cognate","1","1","0",0.8482,1,-0.164638821941647
"312",8,"/Users/kyleparrish/Documents/GitHub/l3_cognate_study_pilot/data/raw/63e646333cb69048119b58c5_empathy_intonation_perc_2024-06-07_11h55.50.760.csv","altar","three_way_cognate","1","1","0",0.7554,1,-0.280507868703781
"313",8,"/Users/kyleparrish/Documents/GitHub/l3_cognate_study_pilot/data/raw/63e646333cb69048119b58c5_empathy_intonation_perc_2024-06-07_11h55.50.760.csv","sopleó","pseudoword","0","0","1",0.7982,1,-0.225396086367504
"314",8,"/Users/kyleparrish/Documents/GitHub/l3_cognate_study_pilot/data/raw/63e646333cb69048119b58c5_empathy_intonation_perc_2024-06-07_11h55.50.760.csv","medón","pseudoword","0","0","1",0.4228,1,-0.860856024986055
"315",8,"/Users/kyleparrish/Documents/GitHub/l3_cognate_study_pilot/data/raw/63e646333cb69048119b58c5_empathy_intonation_perc_2024-06-07_11h55.50.760.csv","pledú","pseudoword","0","0","1",0.4493,1,-0.800064462906023
"316",8,"/Users/kyleparrish/Documents/GitHub/l3_cognate_study_pilot/data/raw/63e646333cb69048119b58c5_empathy_intonation_perc_2024-06-07_11h55.50.760.csv","chat","three_way_cognate","1","1","0",0.5946,1,-0.51986636841814
"317",8,"/Users/kyleparrish/Documents/GitHub/l3_cognate_study_pilot/data/raw/63e646333cb69048119b58c5_empathy_intonation_perc_2024-06-07_11h55.50.760.csv","listo","non_cognate","1","1","0",0.383,1,-0.959720289801491
"318",8,"/Users/kyleparrish/Documents/GitHub/l3_cognate_study_pilot/data/raw/63e646333cb69048119b58c5_empathy_intonation_perc_2024-06-07_11h55.50.760.csv","suave","non_cognate","1","1","0",0.3821,1,-0.962072924529283
"319",8,"/Users/kyleparrish/Documents/GitHub/l3_cognate_study_pilot/data/raw/63e646333cb69048119b58c5_empathy_intonation_perc_2024-06-07_11h55.50.760.csv","portal","three_way_cognate","1","1","0",0.528,1,-0.638658995275876
"320",8,"/Users/kyleparrish/Documents/GitHub/l3_cognate_study_pilot/data/raw/63e646333cb69048119b58c5_empathy_intonation_perc_2024-06-07_11h55.50.760.csv","golf","three_way_cognate","1","1","0",0.4468,1,-0.805644211787091
"321",8,"/Users/kyleparrish/Documents/GitHub/l3_cognate_study_pilot/data/raw/63e646333cb69048119b58c5_empathy_intonation_perc_2024-06-07_11h55.50.760.csv","color","two_way_cognate","1","1","0",0.6495,1,-0.431552442871483
"322",8,"/Users/kyleparrish/Documents/GitHub/l3_cognate_study_pilot/data/raw/63e646333cb69048119b58c5_empathy_intonation_perc_2024-06-07_11h55.50.760.csv","albino","three_way_cognate","1","1","0",0.6651,1,-0.407817873691762
"323",8,"/Users/kyleparrish/Documents/GitHub/l3_cognate_study_pilot/data/raw/63e646333cb69048119b58c5_empathy_intonation_perc_2024-06-07_11h55.50.760.csv","equipo","non_cognate","1","1","0",0.8151,1,-0.204444473881725
"324",8,"/Users/kyleparrish/Documents/GitHub/l3_cognate_study_pilot/data/raw/63e646333cb69048119b58c5_empathy_intonation_perc_2024-06-07_11h55.50.760.csv","aleta","non_cognate","1","1","0",0.9051,1,-0.0997098441490119
"325",8,"/Users/kyleparrish/Documents/GitHub/l3_cognate_study_pilot/data/raw/63e646333cb69048119b58c5_empathy_intonation_perc_2024-06-07_11h55.50.760.csv","torso","two_way_cognate","1","1","0",0.4653,1,-0.765072920131534
"326",8,"/Users/kyleparrish/Documents/GitHub/l3_cognate_study_pilot/data/raw/63e646333cb69048119b58c5_empathy_intonation_perc_2024-06-07_11h55.50.760.csv","rostro","non_cognate","1","1","0",0.532,1,-0.631111789640493
"327",8,"/Users/kyleparrish/Documents/GitHub/l3_cognate_study_pilot/data/raw/63e646333cb69048119b58c5_empathy_intonation_perc_2024-06-07_11h55.50.760.csv","pegar","non_cognate","1","1","0",0.4494,1,-0.799841919230908
"328",8,"/Users/kyleparrish/Documents/GitHub/l3_cognate_study_pilot/data/raw/63e646333cb69048119b58c5_empathy_intonation_perc_2024-06-07_11h55.50.760.csv","vien","pseudoword","0","0","1",0.389,1,-0.944175935363691
"329",8,"/Users/kyleparrish/Documents/GitHub/l3_cognate_study_pilot/data/raw/63e646333cb69048119b58c5_empathy_intonation_perc_2024-06-07_11h55.50.760.csv","hilo","non_cognate","1","1","0",0.5535,1,-0.591493526833445
"330",8,"/Users/kyleparrish/Documents/GitHub/l3_cognate_study_pilot/data/raw/63e646333cb69048119b58c5_empathy_intonation_perc_2024-06-07_11h55.50.760.csv","tumor","three_way_cognate","1","1","0",0.748,1,-0.29035230100766
"331",8,"/Users/kyleparrish/Documents/GitHub/l3_cognate_study_pilot/data/raw/63e646333cb69048119b58c5_empathy_intonation_perc_2024-06-07_11h55.50.760.csv","total","two_way_cognate","1","1","0",0.6654,1,-0.407366915397761
"332",8,"/Users/kyleparrish/Documents/GitHub/l3_cognate_study_pilot/data/raw/63e646333cb69048119b58c5_empathy_intonation_perc_2024-06-07_11h55.50.760.csv","rumor","two_way_cognate","1","1","0",0.3994,1,-0.917791858000422
"333",8,"/Users/kyleparrish/Documents/GitHub/l3_cognate_study_pilot/data/raw/63e646333cb69048119b58c5_empathy_intonation_perc_2024-06-07_11h55.50.760.csv","test","three_way_cognate","1","1","0",0.7701,1,-0.261234902436933
"334",8,"/Users/kyleparrish/Documents/GitHub/l3_cognate_study_pilot/data/raw/63e646333cb69048119b58c5_empathy_intonation_perc_2024-06-07_11h55.50.760.csv","mieris","pseudoword","0","0","1",0.7151,1,-0.335332885927787
"335",8,"/Users/kyleparrish/Documents/GitHub/l3_cognate_study_pilot/data/raw/63e646333cb69048119b58c5_empathy_intonation_perc_2024-06-07_11h55.50.760.csv","anicio","pseudoword","0","0","1",0.914,1,-0.089924707527987
"336",9,"/Users/kyleparrish/Documents/GitHub/l3_cognate_study_pilot/data/raw/63e646333cb69048119b58c5_empathy_intonation_perc_2024-06-07_12h01.22.599.csv","puñal","non_cognate","1","1","0",0.3652,1,-1.00731013026132
"337",9,"/Users/kyleparrish/Documents/GitHub/l3_cognate_study_pilot/data/raw/63e646333cb69048119b58c5_empathy_intonation_perc_2024-06-07_12h01.22.599.csv","golf","three_way_cognate","1","1","0",0.5187,1,-0.656429597624782
"338",9,"/Users/kyleparrish/Documents/GitHub/l3_cognate_study_pilot/data/raw/63e646333cb69048119b58c5_empathy_intonation_perc_2024-06-07_12h01.22.599.csv","flora","three_way_cognate","1","1","0",0.3491,1,-1.05239686487115
"339",9,"/Users/kyleparrish/Documents/GitHub/l3_cognate_study_pilot/data/raw/63e646333cb69048119b58c5_empathy_intonation_perc_2024-06-07_12h01.22.599.csv","llevar","non_cognate","1","1","0",0.662,1,-0.412489723045129
"340",9,"/Users/kyleparrish/Documents/GitHub/l3_cognate_study_pilot/data/raw/63e646333cb69048119b58c5_empathy_intonation_perc_2024-06-07_12h01.22.599.csv","viarle","pseudoword","0","0","1",0.3159,1,-1.1523295711741
"341",9,"/Users/kyleparrish/Documents/GitHub/l3_cognate_study_pilot/data/raw/63e646333cb69048119b58c5_empathy_intonation_perc_2024-06-07_12h01.22.599.csv","disco","three_way_cognate","1","1","0",0.3821,1,-0.962072924529283
"342",9,"/Users/kyleparrish/Documents/GitHub/l3_cognate_study_pilot/data/raw/63e646333cb69048119b58c5_empathy_intonation_perc_2024-06-07_12h01.22.599.csv","rostro","non_cognate","1","1","0",0.4157,1,-0.877791432723545
"343",9,"/Users/kyleparrish/Documents/GitHub/l3_cognate_study_pilot/data/raw/63e646333cb69048119b58c5_empathy_intonation_perc_2024-06-07_12h01.22.599.csv","sumer","pseudoword","0","0","1",0.3489,1,-1.05296993078941
"344",9,"/Users/kyleparrish/Documents/GitHub/l3_cognate_study_pilot/data/raw/63e646333cb69048119b58c5_empathy_intonation_perc_2024-06-07_12h01.22.599.csv","venado","non_cognate","1","1","0",0.4656,1,-0.764428382564909
"345",9,"/Users/kyleparrish/Documents/GitHub/l3_cognate_study_pilot/data/raw/63e646333cb69048119b58c5_empathy_intonation_perc_2024-06-07_12h01.22.599.csv","maldad","non_cognate","1","1","0",0.3473,1,-1.05756631923211
"346",9,"/Users/kyleparrish/Documents/GitHub/l3_cognate_study_pilot/data/raw/63e646333cb69048119b58c5_empathy_intonation_perc_2024-06-07_12h01.22.599.csv","furbos","pseudoword","0","0","1",0.4002,1,-0.915790856832504
"347",9,"/Users/kyleparrish/Documents/GitHub/l3_cognate_study_pilot/data/raw/63e646333cb69048119b58c5_empathy_intonation_perc_2024-06-07_12h01.22.599.csv","animal","two_way_cognate","1","1","0",0.6123,1,-0.490532920498228
"348",9,"/Users/kyleparrish/Documents/GitHub/l3_cognate_study_pilot/data/raw/63e646333cb69048119b58c5_empathy_intonation_perc_2024-06-07_12h01.22.599.csv","clan","three_way_cognate","1","1","0",0.8316,1,-0.184403722998279
"349",9,"/Users/kyleparrish/Documents/GitHub/l3_cognate_study_pilot/data/raw/63e646333cb69048119b58c5_empathy_intonation_perc_2024-06-07_12h01.22.599.csv","tapa","non_cognate","1","1","0",1.068,1,0.0657877405380032
"350",9,"/Users/kyleparrish/Documents/GitHub/l3_cognate_study_pilot/data/raw/63e646333cb69048119b58c5_empathy_intonation_perc_2024-06-07_12h01.22.599.csv","torta","non_cognate","1","1","0",0.3957,1,-0.927098930590758
"351",9,"/Users/kyleparrish/Documents/GitHub/l3_cognate_study_pilot/data/raw/63e646333cb69048119b58c5_empathy_intonation_perc_2024-06-07_12h01.22.599.csv","halo","two_way_cognate","1","1","0",0.4032,1,-0.908322562224978
"352",9,"/Users/kyleparrish/Documents/GitHub/l3_cognate_study_pilot/data/raw/63e646333cb69048119b58c5_empathy_intonation_perc_2024-06-07_12h01.22.599.csv","ceme","pseudoword","0","0","1",0.3874,1,-0.948297528009241
"353",9,"/Users/kyleparrish/Documents/GitHub/l3_cognate_study_pilot/data/raw/63e646333cb69048119b58c5_empathy_intonation_perc_2024-06-07_12h01.22.599.csv","pledú","pseudoword","0","0","1",0.5986,1,-0.513161683563538
"354",9,"/Users/kyleparrish/Documents/GitHub/l3_cognate_study_pilot/data/raw/63e646333cb69048119b58c5_empathy_intonation_perc_2024-06-07_12h01.22.599.csv","flecha","non_cognate","1","1","0",0.4457,1,-0.808109199029627
"355",9,"/Users/kyleparrish/Documents/GitHub/l3_cognate_study_pilot/data/raw/63e646333cb69048119b58c5_empathy_intonation_perc_2024-06-07_12h01.22.599.csv","chocar","non_cognate","1","1","0",0.3635,1,-1.01197598200856
"356",9,"/Users/kyleparrish/Documents/GitHub/l3_cognate_study_pilot/data/raw/63e646333cb69048119b58c5_empathy_intonation_perc_2024-06-07_12h01.22.599.csv","listo","non_cognate","1","1","0",0.481,1,-0.731888008876376
"357",9,"/Users/kyleparrish/Documents/GitHub/l3_cognate_study_pilot/data/raw/63e646333cb69048119b58c5_empathy_intonation_perc_2024-06-07_12h01.22.599.csv","percha","non_cognate","1","1","0",0.6653,1,-0.407517212234295
"358",9,"/Users/kyleparrish/Documents/GitHub/l3_cognate_study_pilot/data/raw/63e646333cb69048119b58c5_empathy_intonation_perc_2024-06-07_12h01.22.599.csv","drama","three_way_cognate","1","1","0",0.952,1,-0.0491902441907718
"359",9,"/Users/kyleparrish/Documents/GitHub/l3_cognate_study_pilot/data/raw/63e646333cb69048119b58c5_empathy_intonation_perc_2024-06-07_12h01.22.599.csv","hálito","non_cognate","1","1","0",1.2778,1,0.245139849186106
"360",9,"/Users/kyleparrish/Documents/GitHub/l3_cognate_study_pilot/data/raw/63e646333cb69048119b58c5_empathy_intonation_perc_2024-06-07_12h01.22.599.csv","aleta","non_cognate","1","1","0",1.4835,1,0.394404160748739
"361",9,"/Users/kyleparrish/Documents/GitHub/l3_cognate_study_pilot/data/raw/63e646333cb69048119b58c5_empathy_intonation_perc_2024-06-07_12h01.22.599.csv","caro","non_cognate","1","1","0",0.7789,1,-0.249872611056234
"362",9,"/Users/kyleparrish/Documents/GitHub/l3_cognate_study_pilot/data/raw/63e646333cb69048119b58c5_empathy_intonation_perc_2024-06-07_12h01.22.599.csv","aduana","non_cognate","1","1","0",0.679,1,-0.387134151423441
"363",9,"/Users/kyleparrish/Documents/GitHub/l3_cognate_study_pilot/data/raw/63e646333cb69048119b58c5_empathy_intonation_perc_2024-06-07_12h01.22.599.csv","feo","non_cognate","1","1","0",0.5135,1,-0.666505249613524
"364",9,"/Users/kyleparrish/Documents/GitHub/l3_cognate_study_pilot/data/raw/63e646333cb69048119b58c5_empathy_intonation_perc_2024-06-07_12h01.22.599.csv","honor","two_way_cognate","1","1","0",1.8479,1,0.614049859201243
"365",9,"/Users/kyleparrish/Documents/GitHub/l3_cognate_study_pilot/data/raw/63e646333cb69048119b58c5_empathy_intonation_perc_2024-06-07_12h01.22.599.csv","casual","two_way_cognate","1","1","0",0.5708,1,-0.560716393379456
"366",9,"/Users/kyleparrish/Documents/GitHub/l3_cognate_study_pilot/data/raw/63e646333cb69048119b58c5_empathy_intonation_perc_2024-06-07_12h01.22.599.csv","fertes","pseudoword","0","0","1",1.0783,1,0.0753857269058897
"367",9,"/Users/kyleparrish/Documents/GitHub/l3_cognate_study_pilot/data/raw/63e646333cb69048119b58c5_empathy_intonation_perc_2024-06-07_12h01.22.599.csv","tapón","non_cognate","1","1","0",0.5462,1,-0.604770069942532
"368",9,"/Users/kyleparrish/Documents/GitHub/l3_cognate_study_pilot/data/raw/63e646333cb69048119b58c5_empathy_intonation_perc_2024-06-07_12h01.22.599.csv","dogma","three_way_cognate","1","1","0",0.6974,1,-0.360396144740586
"369",9,"/Users/kyleparrish/Documents/GitHub/l3_cognate_study_pilot/data/raw/63e646333cb69048119b58c5_empathy_intonation_perc_2024-06-07_12h01.22.599.csv","forro","non_cognate","1","1","0",1.1985,1,0.181070774892302
"370",9,"/Users/kyleparrish/Documents/GitHub/l3_cognate_study_pilot/data/raw/63e646333cb69048119b58c5_empathy_intonation_perc_2024-06-07_12h01.22.599.csv","erede","pseudoword","0","0","1",0.35,1,-1.04982212449868
"371",9,"/Users/kyleparrish/Documents/GitHub/l3_cognate_study_pilot/data/raw/63e646333cb69048119b58c5_empathy_intonation_perc_2024-06-07_12h01.22.599.csv","horror","three_way_cognate","1","1","0",0.5165,1,-0.660679990422444
"372",9,"/Users/kyleparrish/Documents/GitHub/l3_cognate_study_pilot/data/raw/63e646333cb69048119b58c5_empathy_intonation_perc_2024-06-07_12h01.22.599.csv","pelvis","two_way_cognate","1","1","0",0.6174,1,-0.482238166914078
"373",9,"/Users/kyleparrish/Documents/GitHub/l3_cognate_study_pilot/data/raw/63e646333cb69048119b58c5_empathy_intonation_perc_2024-06-07_12h01.22.599.csv","siglo","non_cognate","1","1","0",1.3446,1,0.296096571052799
"374",9,"/Users/kyleparrish/Documents/GitHub/l3_cognate_study_pilot/data/raw/63e646333cb69048119b58c5_empathy_intonation_perc_2024-06-07_12h01.22.599.csv","aura","three_way_cognate","1","1","0",0.815,1,-0.204567165741274
"375",9,"/Users/kyleparrish/Documents/GitHub/l3_cognate_study_pilot/data/raw/63e646333cb69048119b58c5_empathy_intonation_perc_2024-06-07_12h01.22.599.csv","unglés","pseudoword","0","0","1",0.8116,1,-0.208747671030477
"376",9,"/Users/kyleparrish/Documents/GitHub/l3_cognate_study_pilot/data/raw/63e646333cb69048119b58c5_empathy_intonation_perc_2024-06-07_12h01.22.599.csv","pelvis","two_way_cognate","1","1","0",0.4171,1,-0.874429277779237
"377",9,"/Users/kyleparrish/Documents/GitHub/l3_cognate_study_pilot/data/raw/63e646333cb69048119b58c5_empathy_intonation_perc_2024-06-07_12h01.22.599.csv","lobe","pseudoword","0","0","1",0.3454,1,-1.06305211326956
"378",9,"/Users/kyleparrish/Documents/GitHub/l3_cognate_study_pilot/data/raw/63e646333cb69048119b58c5_empathy_intonation_perc_2024-06-07_12h01.22.599.csv","actor","two_way_cognate","1","1","0",0.8672,1,-0.142485648296755
"379",9,"/Users/kyleparrish/Documents/GitHub/l3_cognate_study_pilot/data/raw/63e646333cb69048119b58c5_empathy_intonation_perc_2024-06-07_12h01.22.599.csv","cuenco","non_cognate","1","1","0",0.6788,1,-0.387428745622066
"380",9,"/Users/kyleparrish/Documents/GitHub/l3_cognate_study_pilot/data/raw/63e646333cb69048119b58c5_empathy_intonation_perc_2024-06-07_12h01.22.599.csv","mortal","two_way_cognate","1","1","0",1.7318,1,0.549161330031564
"381",9,"/Users/kyleparrish/Documents/GitHub/l3_cognate_study_pilot/data/raw/63e646333cb69048119b58c5_empathy_intonation_perc_2024-06-07_12h01.22.599.csv","vacapó","pseudoword","0","0","1",0.9952,1,-0.00481155699722208
"382",9,"/Users/kyleparrish/Documents/GitHub/l3_cognate_study_pilot/data/raw/63e646333cb69048119b58c5_empathy_intonation_perc_2024-06-07_12h01.22.599.csv","viable","two_way_cognate","1","1","0",1.1627,1,0.150744886692426
"383",9,"/Users/kyleparrish/Documents/GitHub/l3_cognate_study_pilot/data/raw/63e646333cb69048119b58c5_empathy_intonation_perc_2024-06-07_12h01.22.599.csv","sopleó","pseudoword","0","0","1",0.4486,1,-0.801623656896029
"384",9,"/Users/kyleparrish/Documents/GitHub/l3_cognate_study_pilot/data/raw/63e646333cb69048119b58c5_empathy_intonation_perc_2024-06-07_12h01.22.599.csv","collar","two_way_cognate","1","1","0",0.4499,1,-0.79872994313501
"385",9,"/Users/kyleparrish/Documents/GitHub/l3_cognate_study_pilot/data/raw/63e646333cb69048119b58c5_empathy_intonation_perc_2024-06-07_12h01.22.599.csv","torso","two_way_cognate","1","1","0",0.5183,1,-0.657201053786476
"386",9,"/Users/kyleparrish/Documents/GitHub/l3_cognate_study_pilot/data/raw/63e646333cb69048119b58c5_empathy_intonation_perc_2024-06-07_12h01.22.599.csv","extra","three_way_cognate","1","1","0",0.4332,1,-0.836555763855302
"387",9,"/Users/kyleparrish/Documents/GitHub/l3_cognate_study_pilot/data/raw/63e646333cb69048119b58c5_empathy_intonation_perc_2024-06-07_12h01.22.599.csv","babes","pseudoword","0","0","1",0.5335,1,-0.628296208240329
"388",9,"/Users/kyleparrish/Documents/GitHub/l3_cognate_study_pilot/data/raw/63e646333cb69048119b58c5_empathy_intonation_perc_2024-06-07_12h01.22.599.csv","test","three_way_cognate","1","1","0",1.4686,1,0.384309566035373
"389",9,"/Users/kyleparrish/Documents/GitHub/l3_cognate_study_pilot/data/raw/63e646333cb69048119b58c5_empathy_intonation_perc_2024-06-07_12h01.22.599.csv","mango","three_way_cognate","1","1","0",1.1152,1,0.109033761024122
"390",9,"/Users/kyleparrish/Documents/GitHub/l3_cognate_study_pilot/data/raw/63e646333cb69048119b58c5_empathy_intonation_perc_2024-06-07_12h01.22.599.csv","pegar","non_cognate","1","1","0",0.6629,1,-0.411131129734791
"391",9,"/Users/kyleparrish/Documents/GitHub/l3_cognate_study_pilot/data/raw/63e646333cb69048119b58c5_empathy_intonation_perc_2024-06-07_12h01.22.599.csv","muleta","non_cognate","1","1","0",0.4251,1,-0.855430843617393
"392",9,"/Users/kyleparrish/Documents/GitHub/l3_cognate_study_pilot/data/raw/63e646333cb69048119b58c5_empathy_intonation_perc_2024-06-07_12h01.22.599.csv","curgué","pseudoword","0","0","1",0.4371,1,-0.827593277112868
"393",9,"/Users/kyleparrish/Documents/GitHub/l3_cognate_study_pilot/data/raw/63e646333cb69048119b58c5_empathy_intonation_perc_2024-06-07_12h01.22.599.csv","sacar","non_cognate","1","1","0",1.0347,1,0.0341115296287678
"394",9,"/Users/kyleparrish/Documents/GitHub/l3_cognate_study_pilot/data/raw/63e646333cb69048119b58c5_empathy_intonation_perc_2024-06-07_12h01.22.599.csv","rumor","two_way_cognate","1","1","0",0.5828,1,-0.539911204661087
"395",9,"/Users/kyleparrish/Documents/GitHub/l3_cognate_study_pilot/data/raw/63e646333cb69048119b58c5_empathy_intonation_perc_2024-06-07_12h01.22.599.csv","rombar","pseudoword","0","0","1",0.5351,1,-0.625301633664878
"396",9,"/Users/kyleparrish/Documents/GitHub/l3_cognate_study_pilot/data/raw/63e646333cb69048119b58c5_empathy_intonation_perc_2024-06-07_12h01.22.599.csv","color","two_way_cognate","1","1","0",0.45,1,-0.798507696217772
"397",9,"/Users/kyleparrish/Documents/GitHub/l3_cognate_study_pilot/data/raw/63e646333cb69048119b58c5_empathy_intonation_perc_2024-06-07_12h01.22.599.csv","colcha","non_cognate","1","1","0",0.3659,1,-1.00539520695698
"398",9,"/Users/kyleparrish/Documents/GitHub/l3_cognate_study_pilot/data/raw/63e646333cb69048119b58c5_empathy_intonation_perc_2024-06-07_12h01.22.599.csv","potos","pseudoword","0","0","1",0.3165,1,-1.15043203739791
"399",9,"/Users/kyleparrish/Documents/GitHub/l3_cognate_study_pilot/data/raw/63e646333cb69048119b58c5_empathy_intonation_perc_2024-06-07_12h01.22.599.csv","mafia","three_way_cognate","1","1","0",0.4709,1,-0.753109521732628
"400",9,"/Users/kyleparrish/Documents/GitHub/l3_cognate_study_pilot/data/raw/63e646333cb69048119b58c5_empathy_intonation_perc_2024-06-07_12h01.22.599.csv","total","two_way_cognate","1","1","0",0.4455,1,-0.808558032071273
"401",9,"/Users/kyleparrish/Documents/GitHub/l3_cognate_study_pilot/data/raw/63e646333cb69048119b58c5_empathy_intonation_perc_2024-06-07_12h01.22.599.csv","hotel","three_way_cognate","1","1","0",0.6457,1,-0.437420279349716
"402",9,"/Users/kyleparrish/Documents/GitHub/l3_cognate_study_pilot/data/raw/63e646333cb69048119b58c5_empathy_intonation_perc_2024-06-07_12h01.22.599.csv","hágino","pseudoword","0","0","1",0.7806,1,-0.247692424235623
"403",9,"/Users/kyleparrish/Documents/GitHub/l3_cognate_study_pilot/data/raw/63e646333cb69048119b58c5_empathy_intonation_perc_2024-06-07_12h01.22.599.csv","civil","two_way_cognate","1","1","0",0.7468,1,-0.291957867314569
"404",10,"/Users/kyleparrish/Documents/GitHub/l3_cognate_study_pilot/data/raw/641e62a8191451d08e6c08f7_empathy_intonation_perc_2024-06-07_07h38.49.851.csv","albino","three_way_cognate","1","1","0",1.421,1,0.351360849114964
"405",10,"/Users/kyleparrish/Documents/GitHub/l3_cognate_study_pilot/data/raw/641e62a8191451d08e6c08f7_empathy_intonation_perc_2024-06-07_07h38.49.851.csv","clan","three_way_cognate","1","1","0",1.423,1,0.352767319107715
"406",10,"/Users/kyleparrish/Documents/GitHub/l3_cognate_study_pilot/data/raw/641e62a8191451d08e6c08f7_empathy_intonation_perc_2024-06-07_07h38.49.851.csv","sacar","non_cognate","1","1","0",0.919,1,-0.08446915662645
"407",10,"/Users/kyleparrish/Documents/GitHub/l3_cognate_study_pilot/data/raw/641e62a8191451d08e6c08f7_empathy_intonation_perc_2024-06-07_07h38.49.851.csv","rendir","non_cognate","1","1","0",0.713,1,-0.338273858567841
"408",10,"/Users/kyleparrish/Documents/GitHub/l3_cognate_study_pilot/data/raw/641e62a8191451d08e6c08f7_empathy_intonation_perc_2024-06-07_07h38.49.851.csv","aura","three_way_cognate","1","1","0",0.875,1,-0.133531392624523
"409",10,"/Users/kyleparrish/Documents/GitHub/l3_cognate_study_pilot/data/raw/641e62a8191451d08e6c08f7_empathy_intonation_perc_2024-06-07_07h38.49.851.csv","babes","pseudoword","0","0","1",1.189,1,0.173112617708645
"410",10,"/Users/kyleparrish/Documents/GitHub/l3_cognate_study_pilot/data/raw/641e62a8191451d08e6c08f7_empathy_intonation_perc_2024-06-07_07h38.49.851.csv","flora","three_way_cognate","1","1","0",0.841,1,-0.173163619009189
"411",10,"/Users/kyleparrish/Documents/GitHub/l3_cognate_study_pilot/data/raw/641e62a8191451d08e6c08f7_empathy_intonation_perc_2024-06-07_07h38.49.851.csv","fruzas","pseudoword","0","0","1",0.995,1,-0.00501254182354429
"412",10,"/Users/kyleparrish/Documents/GitHub/l3_cognate_study_pilot/data/raw/641e62a8191451d08e6c08f7_empathy_intonation_perc_2024-06-07_07h38.49.851.csv","civas","pseudoword","0","0","1",1.001,1,0.000999500333083423
"413",10,"/Users/kyleparrish/Documents/GitHub/l3_cognate_study_pilot/data/raw/641e62a8191451d08e6c08f7_empathy_intonation_perc_2024-06-07_07h38.49.851.csv","viseña","pseudoword","0","0","1",0.976,1,-0.0242926925690446
"414",10,"/Users/kyleparrish/Documents/GitHub/l3_cognate_study_pilot/data/raw/641e62a8191451d08e6c08f7_empathy_intonation_perc_2024-06-07_07h38.49.851.csv","feo","non_cognate","1","1","0",0.759,1,-0.275753501586507
"415",10,"/Users/kyleparrish/Documents/GitHub/l3_cognate_study_pilot/data/raw/641e62a8191451d08e6c08f7_empathy_intonation_perc_2024-06-07_07h38.49.851.csv","erede","pseudoword","0","0","1",1.752,1,0.5607579925142
"416",10,"/Users/kyleparrish/Documents/GitHub/l3_cognate_study_pilot/data/raw/641e62a8191451d08e6c08f7_empathy_intonation_perc_2024-06-07_07h38.49.851.csv","aurora","two_way_cognate","1","1","0",1.086,1,0.0825012215117438
"417",10,"/Users/kyleparrish/Documents/GitHub/l3_cognate_study_pilot/data/raw/641e62a8191451d08e6c08f7_empathy_intonation_perc_2024-06-07_07h38.49.851.csv","hágino","pseudoword","0","0","1",1.321,1,0.278389025540188
"418",10,"/Users/kyleparrish/Documents/GitHub/l3_cognate_study_pilot/data/raw/641e62a8191451d08e6c08f7_empathy_intonation_perc_2024-06-07_07h38.49.851.csv","vitra","pseudoword","0","0","1",1.502,1,0.406797553341943
"419",10,"/Users/kyleparrish/Documents/GitHub/l3_cognate_study_pilot/data/raw/641e62a8191451d08e6c08f7_empathy_intonation_perc_2024-06-07_07h38.49.851.csv","regalo","non_cognate","1","1","0",0.962,1,-0.0387408283164306
"420",10,"/Users/kyleparrish/Documents/GitHub/l3_cognate_study_pilot/data/raw/641e62a8191451d08e6c08f7_empathy_intonation_perc_2024-06-07_07h38.49.851.csv","pasta","two_way_cognate","1","1","0",0.845,1,-0.168418651624963
"421",10,"/Users/kyleparrish/Documents/GitHub/l3_cognate_study_pilot/data/raw/641e62a8191451d08e6c08f7_empathy_intonation_perc_2024-06-07_07h38.49.851.csv","tiza","non_cognate","1","1","0",0.83,1,-0.186329578191493
"422",10,"/Users/kyleparrish/Documents/GitHub/l3_cognate_study_pilot/data/raw/641e62a8191451d08e6c08f7_empathy_intonation_perc_2024-06-07_07h38.49.851.csv","color","two_way_cognate","1","1","0",0.846,1,-0.167235919375914
"423",10,"/Users/kyleparrish/Documents/GitHub/l3_cognate_study_pilot/data/raw/641e62a8191451d08e6c08f7_empathy_intonation_perc_2024-06-07_07h38.49.851.csv","actor","two_way_cognate","1","1","0",0.897,1,-0.108699416923341
"424",10,"/Users/kyleparrish/Documents/GitHub/l3_cognate_study_pilot/data/raw/641e62a8191451d08e6c08f7_empathy_intonation_perc_2024-06-07_07h38.49.851.csv","suelo","non_cognate","1","1","0",1.258,1,0.229523158278249
"425",10,"/Users/kyleparrish/Documents/GitHub/l3_cognate_study_pilot/data/raw/641e62a8191451d08e6c08f7_empathy_intonation_perc_2024-06-07_07h38.49.851.csv","gravés","pseudoword","0","0","1",1.239,1,0.214304602647005
"426",10,"/Users/kyleparrish/Documents/GitHub/l3_cognate_study_pilot/data/raw/641e62a8191451d08e6c08f7_empathy_intonation_perc_2024-06-07_07h38.49.851.csv","vacapó","pseudoword","0","0","1",1.5,1,0.405465108108164
"427",10,"/Users/kyleparrish/Documents/GitHub/l3_cognate_study_pilot/data/raw/641e62a8191451d08e6c08f7_empathy_intonation_perc_2024-06-07_07h38.49.851.csv","hufón","pseudoword","0","0","1",1.072,1,0.0695260626486103
"428",10,"/Users/kyleparrish/Documents/GitHub/l3_cognate_study_pilot/data/raw/641e62a8191451d08e6c08f7_empathy_intonation_perc_2024-06-07_07h38.49.851.csv","unglés","pseudoword","0","0","1",1.115,1,0.108854404912082
"429",10,"/Users/kyleparrish/Documents/GitHub/l3_cognate_study_pilot/data/raw/641e62a8191451d08e6c08f7_empathy_intonation_perc_2024-06-07_07h38.49.851.csv","trauma","three_way_cognate","1","1","0",0.872,1,-0.136965855073157
"430",10,"/Users/kyleparrish/Documents/GitHub/l3_cognate_study_pilot/data/raw/641e62a8191451d08e6c08f7_empathy_intonation_perc_2024-06-07_07h38.49.851.csv","chocar","non_cognate","1","1","0",0.722,1,-0.325730140089311
"431",10,"/Users/kyleparrish/Documents/GitHub/l3_cognate_study_pilot/data/raw/641e62a8191451d08e6c08f7_empathy_intonation_perc_2024-06-07_07h38.49.851.csv","muleta","non_cognate","1","1","0",0.752,1,-0.285018955032297
"432",10,"/Users/kyleparrish/Documents/GitHub/l3_cognate_study_pilot/data/raw/641e62a8191451d08e6c08f7_empathy_intonation_perc_2024-06-07_07h38.49.851.csv","editor","two_way_cognate","1","1","0",0.871,1,-0.138113302129634
"433",10,"/Users/kyleparrish/Documents/GitHub/l3_cognate_study_pilot/data/raw/641e62a8191451d08e6c08f7_empathy_intonation_perc_2024-06-07_07h38.49.851.csv","hálito","non_cognate","1","1","0",0.944,1,-0.0576291128366364
"434",10,"/Users/kyleparrish/Documents/GitHub/l3_cognate_study_pilot/data/raw/641e62a8191451d08e6c08f7_empathy_intonation_perc_2024-06-07_07h38.49.851.csv","mango","three_way_cognate","1","1","0",0.824,1,-0.193584749072665
"435",10,"/Users/kyleparrish/Documents/GitHub/l3_cognate_study_pilot/data/raw/641e62a8191451d08e6c08f7_empathy_intonation_perc_2024-06-07_07h38.49.851.csv","enorme","non_cognate","1","1","0",0.751,1,-0.286349627218002
"436",10,"/Users/kyleparrish/Documents/GitHub/l3_cognate_study_pilot/data/raw/641e62a8191451d08e6c08f7_empathy_intonation_perc_2024-06-07_07h38.49.851.csv","hotel","three_way_cognate","1","1","0",0.823,1,-0.194799078305067
"437",10,"/Users/kyleparrish/Documents/GitHub/l3_cognate_study_pilot/data/raw/641e62a8191451d08e6c08f7_empathy_intonation_perc_2024-06-07_07h38.49.851.csv","teñir","non_cognate","1","1","0",1.023,1,0.0227394869694893
"438",10,"/Users/kyleparrish/Documents/GitHub/l3_cognate_study_pilot/data/raw/641e62a8191451d08e6c08f7_empathy_intonation_perc_2024-06-07_07h38.49.851.csv","nocó","pseudoword","0","0","1",1.286,1,0.251536625815428
"439",10,"/Users/kyleparrish/Documents/GitHub/l3_cognate_study_pilot/data/raw/641e62a8191451d08e6c08f7_empathy_intonation_perc_2024-06-07_07h38.49.851.csv","enigma","two_way_cognate","1","1","0",0.787,1,-0.239527030564734
"440",10,"/Users/kyleparrish/Documents/GitHub/l3_cognate_study_pilot/data/raw/641e62a8191451d08e6c08f7_empathy_intonation_perc_2024-06-07_07h38.49.851.csv","cuenco","non_cognate","1","1","0",0.865,1,-0.145025772050258
"441",10,"/Users/kyleparrish/Documents/GitHub/l3_cognate_study_pilot/data/raw/641e62a8191451d08e6c08f7_empathy_intonation_perc_2024-06-07_07h38.49.851.csv","muñeca","non_cognate","1","1","0",0.747,1,-0.29169009384932
"442",10,"/Users/kyleparrish/Documents/GitHub/l3_cognate_study_pilot/data/raw/641e62a8191451d08e6c08f7_empathy_intonation_perc_2024-06-07_07h38.49.851.csv","potos","pseudoword","0","0","1",1.963,1,0.674473915294324
"443",10,"/Users/kyleparrish/Documents/GitHub/l3_cognate_study_pilot/data/raw/641e62a8191451d08e6c08f7_empathy_intonation_perc_2024-06-07_07h38.49.851.csv","llamar","non_cognate","1","1","0",0.847,1,-0.166054584330083
"444",10,"/Users/kyleparrish/Documents/GitHub/l3_cognate_study_pilot/data/raw/641e62a8191451d08e6c08f7_empathy_intonation_perc_2024-06-07_07h38.49.851.csv","vien","pseudoword","0","0","1",0.796,1,-0.228156093137754
"445",10,"/Users/kyleparrish/Documents/GitHub/l3_cognate_study_pilot/data/raw/641e62a8191451d08e6c08f7_empathy_intonation_perc_2024-06-07_07h38.49.851.csv","fiscal","two_way_cognate","1","1","0",0.756,1,-0.279713902802604
"446",10,"/Users/kyleparrish/Documents/GitHub/l3_cognate_study_pilot/data/raw/641e62a8191451d08e6c08f7_empathy_intonation_perc_2024-06-07_07h38.49.851.csv","pico","non_cognate","1","1","0",1.217,1,0.19638881400539
"447",10,"/Users/kyleparrish/Documents/GitHub/l3_cognate_study_pilot/data/raw/641e62a8191451d08e6c08f7_empathy_intonation_perc_2024-06-07_07h38.49.851.csv","portal","three_way_cognate","1","1","0",0.718,1,-0.331285709933913
"448",10,"/Users/kyleparrish/Documents/GitHub/l3_cognate_study_pilot/data/raw/641e62a8191451d08e6c08f7_empathy_intonation_perc_2024-06-07_07h38.49.851.csv","forro","non_cognate","1","1","0",0.685,1,-0.378336440719912
"449",10,"/Users/kyleparrish/Documents/GitHub/l3_cognate_study_pilot/data/raw/641e62a8191451d08e6c08f7_empathy_intonation_perc_2024-06-07_07h38.49.851.csv","apunan","pseudoword","0","0","1",1.012,1,0.0119285708652738
"450",10,"/Users/kyleparrish/Documents/GitHub/l3_cognate_study_pilot/data/raw/641e62a8191451d08e6c08f7_empathy_intonation_perc_2024-06-07_07h38.49.851.csv","animal","two_way_cognate","1","1","0",0.768,1,-0.263965545834465
"451",10,"/Users/kyleparrish/Documents/GitHub/l3_cognate_study_pilot/data/raw/641e62a8191451d08e6c08f7_empathy_intonation_perc_2024-06-07_07h38.49.851.csv","mieris","pseudoword","0","0","1",1.101,1,0.0962188577405429
"452",10,"/Users/kyleparrish/Documents/GitHub/l3_cognate_study_pilot/data/raw/641e62a8191451d08e6c08f7_empathy_intonation_perc_2024-06-07_07h38.49.851.csv","retina","three_way_cognate","1","1","0",0.721,1,-0.327116141697188
"453",10,"/Users/kyleparrish/Documents/GitHub/l3_cognate_study_pilot/data/raw/641e62a8191451d08e6c08f7_empathy_intonation_perc_2024-06-07_07h38.49.851.csv","ánimo","non_cognate","1","1","0",1.35,1,0.300104592450338
"454",10,"/Users/kyleparrish/Documents/GitHub/l3_cognate_study_pilot/data/raw/641e62a8191451d08e6c08f7_empathy_intonation_perc_2024-06-07_07h38.49.851.csv","drama","three_way_cognate","1","1","0",0.649,1,-0.432322562278047
"455",10,"/Users/kyleparrish/Documents/GitHub/l3_cognate_study_pilot/data/raw/641e62a8191451d08e6c08f7_empathy_intonation_perc_2024-06-07_07h38.49.851.csv","plan","three_way_cognate","1","1","0",0.586,1,-0.534435489405125
"456",10,"/Users/kyleparrish/Documents/GitHub/l3_cognate_study_pilot/data/raw/641e62a8191451d08e6c08f7_empathy_intonation_perc_2024-06-07_07h38.49.851.csv","dogma","three_way_cognate","1","1","0",0.971,1,-0.0294288106908122
