"","ppt","source","word","type","correct_reponse","key_resp_lextale_trial.keys","key_resp_lextale_trial.corr","key_resp_lextale_trial.rt","is_correct","log_rt"
"1",2,"/Users/kyleparrish/Documents/GitHub/l3_cognate_study_pilot/data/raw/5dd6d370194e486498e13ab6_empathy_intonation_perc_2024-06-02_08h24.52.709.csv","mandio","pseudoword","0","0","1",1.9747,1,0.680416488081127
"2",2,"/Users/kyleparrish/Documents/GitHub/l3_cognate_study_pilot/data/raw/5dd6d370194e486498e13ab6_empathy_intonation_perc_2024-06-02_08h24.52.709.csv","editor","two_way_cognate","1","1","0",1.9924,1,0.689339942216991
"3",2,"/Users/kyleparrish/Documents/GitHub/l3_cognate_study_pilot/data/raw/5dd6d370194e486498e13ab6_empathy_intonation_perc_2024-06-02_08h24.52.709.csv","tutaba","pseudoword","0","0","1",1.5368,1,0.42970233247221
"4",2,"/Users/kyleparrish/Documents/GitHub/l3_cognate_study_pilot/data/raw/5dd6d370194e486498e13ab6_empathy_intonation_perc_2024-06-02_08h24.52.709.csv","ropis","pseudoword","0","0","1",1.4255,1,0.35452262937059
"5",2,"/Users/kyleparrish/Documents/GitHub/l3_cognate_study_pilot/data/raw/5dd6d370194e486498e13ab6_empathy_intonation_perc_2024-06-02_08h24.52.709.csv","llamar","non_cognate","1","1","0",1.0687,1,0.066442956548714
"6",2,"/Users/kyleparrish/Documents/GitHub/l3_cognate_study_pilot/data/raw/5dd6d370194e486498e13ab6_empathy_intonation_perc_2024-06-02_08h24.52.709.csv","babrá","pseudoword","0","0","1",1.5812,1,0.458184052440393
"7",2,"/Users/kyleparrish/Documents/GitHub/l3_cognate_study_pilot/data/raw/5dd6d370194e486498e13ab6_empathy_intonation_perc_2024-06-02_08h24.52.709.csv","barbo","pseudoword","0","0","1",1.7111,1,0.537136438555788
"8",2,"/Users/kyleparrish/Documents/GitHub/l3_cognate_study_pilot/data/raw/5dd6d370194e486498e13ab6_empathy_intonation_perc_2024-06-02_08h24.52.709.csv","pájaro","non_cognate","1","1","0",1.5116,1,0.413168692493197
"9",2,"/Users/kyleparrish/Documents/GitHub/l3_cognate_study_pilot/data/raw/5dd6d370194e486498e13ab6_empathy_intonation_perc_2024-06-02_08h24.52.709.csv","actor","two_way_cognate","1","1","0",1.5995,1,0.469691080407436
"10",2,"/Users/kyleparrish/Documents/GitHub/l3_cognate_study_pilot/data/raw/5dd6d370194e486498e13ab6_empathy_intonation_perc_2024-06-02_08h24.52.709.csv","aurora","two_way_cognate","1","1","0",1.2119,1,0.192189375992305
"11",2,"/Users/kyleparrish/Documents/GitHub/l3_cognate_study_pilot/data/raw/5dd6d370194e486498e13ab6_empathy_intonation_perc_2024-06-02_08h24.52.709.csv","cumbre","non_cognate","1","1","0",1.3505,1,0.300474894250533
"12",2,"/Users/kyleparrish/Documents/GitHub/l3_cognate_study_pilot/data/raw/5dd6d370194e486498e13ab6_empathy_intonation_perc_2024-06-02_08h24.52.709.csv","debada","pseudoword","0","0","1",1.7121,1,0.537720687228635
"13",2,"/Users/kyleparrish/Documents/GitHub/l3_cognate_study_pilot/data/raw/5dd6d370194e486498e13ab6_empathy_intonation_perc_2024-06-02_08h24.52.709.csv","rande","pseudoword","0","0","1",1.1803,1,0.165768643452886
"14",2,"/Users/kyleparrish/Documents/GitHub/l3_cognate_study_pilot/data/raw/5dd6d370194e486498e13ab6_empathy_intonation_perc_2024-06-02_08h24.52.709.csv","sauna","three_way_cognate","1","1","0",1.354,1,0.303063174490083
"15",2,"/Users/kyleparrish/Documents/GitHub/l3_cognate_study_pilot/data/raw/5dd6d370194e486498e13ab6_empathy_intonation_perc_2024-06-02_08h24.52.709.csv","suelet","pseudoword","0","0","1",1.3462,1,0.297285808594476
"16",2,"/Users/kyleparrish/Documents/GitHub/l3_cognate_study_pilot/data/raw/5dd6d370194e486498e13ab6_empathy_intonation_perc_2024-06-02_08h24.52.709.csv","huella","non_cognate","1","1","0",1.5526,1,0.439930944989443
"17",2,"/Users/kyleparrish/Documents/GitHub/l3_cognate_study_pilot/data/raw/5dd6d370194e486498e13ab6_empathy_intonation_perc_2024-06-02_08h24.52.709.csv","meolar","pseudoword","0","0","1",1.9258,1,0.655341465824047
"18",2,"/Users/kyleparrish/Documents/GitHub/l3_cognate_study_pilot/data/raw/5dd6d370194e486498e13ab6_empathy_intonation_perc_2024-06-02_08h24.52.709.csv","pasta","two_way_cognate","1","1","0",1.6764,1,0.516648637068779
"19",2,"/Users/kyleparrish/Documents/GitHub/l3_cognate_study_pilot/data/raw/5dd6d370194e486498e13ab6_empathy_intonation_perc_2024-06-02_08h24.52.709.csv","campo","non_cognate","1","1","0",1.2531,1,0.225620481189102
"20",2,"/Users/kyleparrish/Documents/GitHub/l3_cognate_study_pilot/data/raw/5dd6d370194e486498e13ab6_empathy_intonation_perc_2024-06-02_08h24.52.709.csv","debido","non_cognate","1","1","0",1.1024,1,0.0974896212772571
"21",2,"/Users/kyleparrish/Documents/GitHub/l3_cognate_study_pilot/data/raw/5dd6d370194e486498e13ab6_empathy_intonation_perc_2024-06-02_08h24.52.709.csv","bar","three_way_cognate","1","1","0",1.0621,1,0.0602480803453569
"22",2,"/Users/kyleparrish/Documents/GitHub/l3_cognate_study_pilot/data/raw/5dd6d370194e486498e13ab6_empathy_intonation_perc_2024-06-02_08h24.52.709.csv","caro","non_cognate","1","1","0",0.8212,1,-0.196988593837359
"23",2,"/Users/kyleparrish/Documents/GitHub/l3_cognate_study_pilot/data/raw/5dd6d370194e486498e13ab6_empathy_intonation_perc_2024-06-02_08h24.52.709.csv","hento","pseudoword","0","0","1",0.9183,1,-0.0852311443626605
"24",2,"/Users/kyleparrish/Documents/GitHub/l3_cognate_study_pilot/data/raw/5dd6d370194e486498e13ab6_empathy_intonation_perc_2024-06-02_08h24.52.709.csv","pelado","non_cognate","1","1","0",0.821,1,-0.197232169529709
"25",2,"/Users/kyleparrish/Documents/GitHub/l3_cognate_study_pilot/data/raw/5dd6d370194e486498e13ab6_empathy_intonation_perc_2024-06-02_08h24.52.709.csv","vemua","pseudoword","0","0","1",0.9386,1,-0.0633658756218198
"26",2,"/Users/kyleparrish/Documents/GitHub/l3_cognate_study_pilot/data/raw/5dd6d370194e486498e13ab6_empathy_intonation_perc_2024-06-02_08h24.52.709.csv","alivio","non_cognate","1","1","0",0.9484,1,-0.0529789247908866
"27",2,"/Users/kyleparrish/Documents/GitHub/l3_cognate_study_pilot/data/raw/5dd6d370194e486498e13ab6_empathy_intonation_perc_2024-06-02_08h24.52.709.csv","monsos","pseudoword","0","0","1",0.9642,1,-0.0364565370106152
"28",2,"/Users/kyleparrish/Documents/GitHub/l3_cognate_study_pilot/data/raw/5dd6d370194e486498e13ab6_empathy_intonation_perc_2024-06-02_08h24.52.709.csv","premio","non_cognate","1","1","0",0.8822,1,-0.125336491311298
"29",2,"/Users/kyleparrish/Documents/GitHub/l3_cognate_study_pilot/data/raw/5dd6d370194e486498e13ab6_empathy_intonation_perc_2024-06-02_08h24.52.709.csv","pista","non_cognate","1","1","0",1.1959,1,0.178899039992625
"30",2,"/Users/kyleparrish/Documents/GitHub/l3_cognate_study_pilot/data/raw/5dd6d370194e486498e13ab6_empathy_intonation_perc_2024-06-02_08h24.52.709.csv","trip","pseudoword","0","0","1",1.0805,1,0.0774238969648036
"31",2,"/Users/kyleparrish/Documents/GitHub/l3_cognate_study_pilot/data/raw/5dd6d370194e486498e13ab6_empathy_intonation_perc_2024-06-02_08h24.52.709.csv","qucrá","pseudoword","0","0","1",1.3129,1,0.272238430957928
"32",2,"/Users/kyleparrish/Documents/GitHub/l3_cognate_study_pilot/data/raw/5dd6d370194e486498e13ab6_empathy_intonation_perc_2024-06-02_08h24.52.709.csv","duyo","pseudoword","0","0","1",1.0305,1,0.0300441213483766
"33",2,"/Users/kyleparrish/Documents/GitHub/l3_cognate_study_pilot/data/raw/5dd6d370194e486498e13ab6_empathy_intonation_perc_2024-06-02_08h24.52.709.csv","llamar","non_cognate","1","1","0",1.2295,1,0.20660758267411
"34",2,"/Users/kyleparrish/Documents/GitHub/l3_cognate_study_pilot/data/raw/5dd6d370194e486498e13ab6_empathy_intonation_perc_2024-06-02_08h24.52.709.csv","delito","non_cognate","1","1","0",1.4497,1,0.371356638474715
"35",2,"/Users/kyleparrish/Documents/GitHub/l3_cognate_study_pilot/data/raw/5dd6d370194e486498e13ab6_empathy_intonation_perc_2024-06-02_08h24.52.709.csv","sujo","pseudoword","0","0","1",1.0788,1,0.0758493122834378
"36",2,"/Users/kyleparrish/Documents/GitHub/l3_cognate_study_pilot/data/raw/5dd6d370194e486498e13ab6_empathy_intonation_perc_2024-06-02_08h24.52.709.csv","diguán","pseudoword","0","0","1",1.1049,1,0.0997548331369923
"37",2,"/Users/kyleparrish/Documents/GitHub/l3_cognate_study_pilot/data/raw/5dd6d370194e486498e13ab6_empathy_intonation_perc_2024-06-02_08h24.52.709.csv","hilo","non_cognate","1","1","0",0.8886,1,-0.118108088480329
"38",2,"/Users/kyleparrish/Documents/GitHub/l3_cognate_study_pilot/data/raw/5dd6d370194e486498e13ab6_empathy_intonation_perc_2024-06-02_08h24.52.709.csv","filte","pseudoword","0","0","1",1.0366,1,0.0359461267734691
"39",2,"/Users/kyleparrish/Documents/GitHub/l3_cognate_study_pilot/data/raw/5dd6d370194e486498e13ab6_empathy_intonation_perc_2024-06-02_08h24.52.709.csv","honor","two_way_cognate","1","1","0",0.9692,1,-0.0312842900397664
"40",2,"/Users/kyleparrish/Documents/GitHub/l3_cognate_study_pilot/data/raw/5dd6d370194e486498e13ab6_empathy_intonation_perc_2024-06-02_08h24.52.709.csv","cuento","non_cognate","1","1","0",0.8516,1,-0.160638345962813
"41",2,"/Users/kyleparrish/Documents/GitHub/l3_cognate_study_pilot/data/raw/5dd6d370194e486498e13ab6_empathy_intonation_perc_2024-06-02_08h24.52.709.csv","jomas","pseudoword","0","0","1",1.2286,1,0.20587530974769
"42",2,"/Users/kyleparrish/Documents/GitHub/l3_cognate_study_pilot/data/raw/5dd6d370194e486498e13ab6_empathy_intonation_perc_2024-06-02_08h24.52.709.csv","toges","pseudoword","0","0","1",0.7555,1,-0.280375497269343
"43",2,"/Users/kyleparrish/Documents/GitHub/l3_cognate_study_pilot/data/raw/5dd6d370194e486498e13ab6_empathy_intonation_perc_2024-06-02_08h24.52.709.csv","tango","three_way_cognate","1","1","0",0.7692,1,-0.262404265267512
"44",2,"/Users/kyleparrish/Documents/GitHub/l3_cognate_study_pilot/data/raw/5dd6d370194e486498e13ab6_empathy_intonation_perc_2024-06-02_08h24.52.709.csv","nasce","pseudoword","0","0","1",0.8809,1,-0.126811166866387
"45",2,"/Users/kyleparrish/Documents/GitHub/l3_cognate_study_pilot/data/raw/5dd6d370194e486498e13ab6_empathy_intonation_perc_2024-06-02_08h24.52.709.csv","exigir","non_cognate","1","1","0",0.9502,1,-0.0510827902293161
"46",2,"/Users/kyleparrish/Documents/GitHub/l3_cognate_study_pilot/data/raw/5dd6d370194e486498e13ab6_empathy_intonation_perc_2024-06-02_08h24.52.709.csv","brigan","pseudoword","0","0","1",0.8967,1,-0.109033921024135
"47",2,"/Users/kyleparrish/Documents/GitHub/l3_cognate_study_pilot/data/raw/5dd6d370194e486498e13ab6_empathy_intonation_perc_2024-06-02_08h24.52.709.csv","solar","three_way_cognate","1","1","0",1.056,1,0.0544881852840698
"48",2,"/Users/kyleparrish/Documents/GitHub/l3_cognate_study_pilot/data/raw/5dd6d370194e486498e13ab6_empathy_intonation_perc_2024-06-02_08h24.52.709.csv","horror","three_way_cognate","1","1","0",1.5138,1,0.41462304589293
"49",2,"/Users/kyleparrish/Documents/GitHub/l3_cognate_study_pilot/data/raw/5dd6d370194e486498e13ab6_empathy_intonation_perc_2024-06-02_08h24.52.709.csv","caemal","pseudoword","0","0","1",0.929,1,-0.0736465401682985
"50",2,"/Users/kyleparrish/Documents/GitHub/l3_cognate_study_pilot/data/raw/5dd6d370194e486498e13ab6_empathy_intonation_perc_2024-06-02_08h24.52.709.csv","viga","non_cognate","1","1","0",1.0464,1,0.0453557017207972
"51",2,"/Users/kyleparrish/Documents/GitHub/l3_cognate_study_pilot/data/raw/5dd6d370194e486498e13ab6_empathy_intonation_perc_2024-06-02_08h24.52.709.csv","cesta","non_cognate","1","1","0",0.9181,1,-0.0854489618324827
"52",2,"/Users/kyleparrish/Documents/GitHub/l3_cognate_study_pilot/data/raw/5dd6d370194e486498e13ab6_empathy_intonation_perc_2024-06-02_08h24.52.709.csv","visión","non_cognate","1","1","0",0.834,1,-0.18152187662339
"53",2,"/Users/kyleparrish/Documents/GitHub/l3_cognate_study_pilot/data/raw/5dd6d370194e486498e13ab6_empathy_intonation_perc_2024-06-02_08h24.52.709.csv","sermón","non_cognate","1","1","0",1.3948,1,0.332751035819359
"54",2,"/Users/kyleparrish/Documents/GitHub/l3_cognate_study_pilot/data/raw/5dd6d370194e486498e13ab6_empathy_intonation_perc_2024-06-02_08h24.52.709.csv","racaer","pseudoword","0","0","1",1.2302,1,0.207176757792131
"55",2,"/Users/kyleparrish/Documents/GitHub/l3_cognate_study_pilot/data/raw/5dd6d370194e486498e13ab6_empathy_intonation_perc_2024-06-02_08h24.52.709.csv","taza","non_cognate","1","1","0",0.884,1,-0.123298216344494
"56",2,"/Users/kyleparrish/Documents/GitHub/l3_cognate_study_pilot/data/raw/5dd6d370194e486498e13ab6_empathy_intonation_perc_2024-06-02_08h24.52.709.csv","fauna","three_way_cognate","1","1","0",0.9638,1,-0.0368714747759047
"57",3,"/Users/kyleparrish/Documents/GitHub/l3_cognate_study_pilot/data/raw/5f989fa02b5a611b2df1a305_empathy_intonation_perc_2024-06-02_08h31.23.087.csv","sauna","three_way_cognate","1","1","0",1.5756,1,0.454636152114614
"58",3,"/Users/kyleparrish/Documents/GitHub/l3_cognate_study_pilot/data/raw/5f989fa02b5a611b2df1a305_empathy_intonation_perc_2024-06-02_08h31.23.087.csv","caemal","pseudoword","0","0","1",1.5615,1,0.445646897740996
"59",3,"/Users/kyleparrish/Documents/GitHub/l3_cognate_study_pilot/data/raw/5f989fa02b5a611b2df1a305_empathy_intonation_perc_2024-06-02_08h31.23.087.csv","huzas","pseudoword","0","0","1",1.2431,1,0.217608259815533
"60",3,"/Users/kyleparrish/Documents/GitHub/l3_cognate_study_pilot/data/raw/5f989fa02b5a611b2df1a305_empathy_intonation_perc_2024-06-02_08h31.23.087.csv","cesta","non_cognate","1","1","0",1.0544,1,0.0529718847661057
"61",3,"/Users/kyleparrish/Documents/GitHub/l3_cognate_study_pilot/data/raw/5f989fa02b5a611b2df1a305_empathy_intonation_perc_2024-06-02_08h31.23.087.csv","aclaya","pseudoword","0","0","1",1.3988,1,0.335614726207084
"62",3,"/Users/kyleparrish/Documents/GitHub/l3_cognate_study_pilot/data/raw/5f989fa02b5a611b2df1a305_empathy_intonation_perc_2024-06-02_08h31.23.087.csv","pasta","two_way_cognate","1","1","0",1.4045,1,0.339681367562161
"63",3,"/Users/kyleparrish/Documents/GitHub/l3_cognate_study_pilot/data/raw/5f989fa02b5a611b2df1a305_empathy_intonation_perc_2024-06-02_08h31.23.087.csv","orida","pseudoword","0","0","1",1.1928,1,0.176303484468392
"64",3,"/Users/kyleparrish/Documents/GitHub/l3_cognate_study_pilot/data/raw/5f989fa02b5a611b2df1a305_empathy_intonation_perc_2024-06-02_08h31.23.087.csv","fauna","three_way_cognate","1","1","0",0.8552,1,-0.156419919271302
"65",3,"/Users/kyleparrish/Documents/GitHub/l3_cognate_study_pilot/data/raw/5f989fa02b5a611b2df1a305_empathy_intonation_perc_2024-06-02_08h31.23.087.csv","taza","non_cognate","1","1","0",1.1484,1,0.138369669264772
"66",3,"/Users/kyleparrish/Documents/GitHub/l3_cognate_study_pilot/data/raw/5f989fa02b5a611b2df1a305_empathy_intonation_perc_2024-06-02_08h31.23.087.csv","pelado","non_cognate","1","1","0",1.2038,1,0.185483220131533
"67",3,"/Users/kyleparrish/Documents/GitHub/l3_cognate_study_pilot/data/raw/5f989fa02b5a611b2df1a305_empathy_intonation_perc_2024-06-02_08h31.23.087.csv","editor","two_way_cognate","1","1","0",0.9229,1,-0.080234392710606
"68",3,"/Users/kyleparrish/Documents/GitHub/l3_cognate_study_pilot/data/raw/5f989fa02b5a611b2df1a305_empathy_intonation_perc_2024-06-02_08h31.23.087.csv","vemua","pseudoword","0","0","1",0.8128,1,-0.20727020215792
"69",3,"/Users/kyleparrish/Documents/GitHub/l3_cognate_study_pilot/data/raw/5f989fa02b5a611b2df1a305_empathy_intonation_perc_2024-06-02_08h31.23.087.csv","limbo","three_way_cognate","1","1","0",1.283,1,0.249201085633499
"70",3,"/Users/kyleparrish/Documents/GitHub/l3_cognate_study_pilot/data/raw/5f989fa02b5a611b2df1a305_empathy_intonation_perc_2024-06-02_08h31.23.087.csv","tango","three_way_cognate","1","1","0",0.738,1,-0.303811454381665
"71",3,"/Users/kyleparrish/Documents/GitHub/l3_cognate_study_pilot/data/raw/5f989fa02b5a611b2df1a305_empathy_intonation_perc_2024-06-02_08h31.23.087.csv","mandio","pseudoword","0","0","1",1.1376,1,0.128920780066839
"72",3,"/Users/kyleparrish/Documents/GitHub/l3_cognate_study_pilot/data/raw/5f989fa02b5a611b2df1a305_empathy_intonation_perc_2024-06-02_08h31.23.087.csv","hilo","non_cognate","1","1","0",0.8739,1,-0.134789326348638
"73",3,"/Users/kyleparrish/Documents/GitHub/l3_cognate_study_pilot/data/raw/5f989fa02b5a611b2df1a305_empathy_intonation_perc_2024-06-02_08h31.23.087.csv","bar","three_way_cognate","1","1","0",0.7886,1,-0.23749605753861
"74",3,"/Users/kyleparrish/Documents/GitHub/l3_cognate_study_pilot/data/raw/5f989fa02b5a611b2df1a305_empathy_intonation_perc_2024-06-02_08h31.23.087.csv","actor","two_way_cognate","1","1","0",0.594,1,-0.520875959619492
"75",3,"/Users/kyleparrish/Documents/GitHub/l3_cognate_study_pilot/data/raw/5f989fa02b5a611b2df1a305_empathy_intonation_perc_2024-06-02_08h31.23.087.csv","rande","pseudoword","0","0","1",0.7727,1,-0.257864404042599
"76",3,"/Users/kyleparrish/Documents/GitHub/l3_cognate_study_pilot/data/raw/5f989fa02b5a611b2df1a305_empathy_intonation_perc_2024-06-02_08h31.23.087.csv","hento","pseudoword","0","0","1",0.7611,1,-0.272990523708791
"77",3,"/Users/kyleparrish/Documents/GitHub/l3_cognate_study_pilot/data/raw/5f989fa02b5a611b2df1a305_empathy_intonation_perc_2024-06-02_08h31.23.087.csv","bomos","pseudoword","0","0","1",0.6967,1,-0.361400376946064
"78",3,"/Users/kyleparrish/Documents/GitHub/l3_cognate_study_pilot/data/raw/5f989fa02b5a611b2df1a305_empathy_intonation_perc_2024-06-02_08h31.23.087.csv","edidé","pseudoword","0","0","1",1.1755,1,0.161693588997987
"79",3,"/Users/kyleparrish/Documents/GitHub/l3_cognate_study_pilot/data/raw/5f989fa02b5a611b2df1a305_empathy_intonation_perc_2024-06-02_08h31.23.087.csv","chote","pseudoword","0","0","1",0.9184,1,-0.0851222534168351
"80",3,"/Users/kyleparrish/Documents/GitHub/l3_cognate_study_pilot/data/raw/5f989fa02b5a611b2df1a305_empathy_intonation_perc_2024-06-02_08h31.23.087.csv","horror","three_way_cognate","1","1","0",0.6966,1,-0.361543921050236
"81",3,"/Users/kyleparrish/Documents/GitHub/l3_cognate_study_pilot/data/raw/5f989fa02b5a611b2df1a305_empathy_intonation_perc_2024-06-02_08h31.23.087.csv","diebro","pseudoword","0","0","1",0.7672,1,-0.265007755412909
"82",3,"/Users/kyleparrish/Documents/GitHub/l3_cognate_study_pilot/data/raw/5f989fa02b5a611b2df1a305_empathy_intonation_perc_2024-06-02_08h31.23.087.csv","llamar","non_cognate","1","1","0",0.783,1,-0.244622582991334
"83",3,"/Users/kyleparrish/Documents/GitHub/l3_cognate_study_pilot/data/raw/5f989fa02b5a611b2df1a305_empathy_intonation_perc_2024-06-02_08h31.23.087.csv","trip","pseudoword","0","0","1",1.1485,1,0.138456743147016
"84",3,"/Users/kyleparrish/Documents/GitHub/l3_cognate_study_pilot/data/raw/5f989fa02b5a611b2df1a305_empathy_intonation_perc_2024-06-02_08h31.23.087.csv","diguán","pseudoword","0","0","1",1.5857,1,0.461025950213385
"85",3,"/Users/kyleparrish/Documents/GitHub/l3_cognate_study_pilot/data/raw/5f989fa02b5a611b2df1a305_empathy_intonation_perc_2024-06-02_08h31.23.087.csv","pájaro","non_cognate","1","1","0",0.8146,1,-0.205058083767825
"86",3,"/Users/kyleparrish/Documents/GitHub/l3_cognate_study_pilot/data/raw/5f989fa02b5a611b2df1a305_empathy_intonation_perc_2024-06-02_08h31.23.087.csv","debido","non_cognate","1","1","0",1.729,1,0.547543206701154
"87",3,"/Users/kyleparrish/Documents/GitHub/l3_cognate_study_pilot/data/raw/5f989fa02b5a611b2df1a305_empathy_intonation_perc_2024-06-02_08h31.23.087.csv","debada","pseudoword","0","0","1",1.0123,1,0.0122249696225689
"88",3,"/Users/kyleparrish/Documents/GitHub/l3_cognate_study_pilot/data/raw/5f989fa02b5a611b2df1a305_empathy_intonation_perc_2024-06-02_08h31.23.087.csv","total","two_way_cognate","1","1","0",0.7705,1,-0.260715624221967
"89",3,"/Users/kyleparrish/Documents/GitHub/l3_cognate_study_pilot/data/raw/5f989fa02b5a611b2df1a305_empathy_intonation_perc_2024-06-02_08h31.23.087.csv","tandir","pseudoword","0","0","1",0.8477,1,-0.165228479367777
"90",3,"/Users/kyleparrish/Documents/GitHub/l3_cognate_study_pilot/data/raw/5f989fa02b5a611b2df1a305_empathy_intonation_perc_2024-06-02_08h31.23.087.csv","toges","pseudoword","0","0","1",1.0263,1,0.0259601016695316
"91",3,"/Users/kyleparrish/Documents/GitHub/l3_cognate_study_pilot/data/raw/5f989fa02b5a611b2df1a305_empathy_intonation_perc_2024-06-02_08h31.23.087.csv","monsos","pseudoword","0","0","1",0.9462,1,-0.0553013157850893
"92",3,"/Users/kyleparrish/Documents/GitHub/l3_cognate_study_pilot/data/raw/5f989fa02b5a611b2df1a305_empathy_intonation_perc_2024-06-02_08h31.23.087.csv","civil","two_way_cognate","1","1","0",0.6134,1,-0.488738027301986
"93",3,"/Users/kyleparrish/Documents/GitHub/l3_cognate_study_pilot/data/raw/5f989fa02b5a611b2df1a305_empathy_intonation_perc_2024-06-02_08h31.23.087.csv","solar","three_way_cognate","1","1","0",0.687,1,-0.375420986759788
"94",3,"/Users/kyleparrish/Documents/GitHub/l3_cognate_study_pilot/data/raw/5f989fa02b5a611b2df1a305_empathy_intonation_perc_2024-06-02_08h31.23.087.csv","barbo","pseudoword","0","0","1",1.0757,1,0.0729716124558228
"95",3,"/Users/kyleparrish/Documents/GitHub/l3_cognate_study_pilot/data/raw/5f989fa02b5a611b2df1a305_empathy_intonation_perc_2024-06-02_08h31.23.087.csv","jomas","pseudoword","0","0","1",0.815,1,-0.204567165741274
"96",3,"/Users/kyleparrish/Documents/GitHub/l3_cognate_study_pilot/data/raw/5f989fa02b5a611b2df1a305_empathy_intonation_perc_2024-06-02_08h31.23.087.csv","filte","pseudoword","0","0","1",0.9214,1,-0.0818610264803205
"97",3,"/Users/kyleparrish/Documents/GitHub/l3_cognate_study_pilot/data/raw/5f989fa02b5a611b2df1a305_empathy_intonation_perc_2024-06-02_08h31.23.087.csv","llamar","non_cognate","1","1","0",0.68,1,-0.385662480811985
"98",3,"/Users/kyleparrish/Documents/GitHub/l3_cognate_study_pilot/data/raw/5f989fa02b5a611b2df1a305_empathy_intonation_perc_2024-06-02_08h31.23.087.csv","exigir","non_cognate","1","1","0",1.0035,1,0.00349388925425584
"99",3,"/Users/kyleparrish/Documents/GitHub/l3_cognate_study_pilot/data/raw/5f989fa02b5a611b2df1a305_empathy_intonation_perc_2024-06-02_08h31.23.087.csv","coriar","pseudoword","0","0","1",0.8253,1,-0.192008322383498
"100",3,"/Users/kyleparrish/Documents/GitHub/l3_cognate_study_pilot/data/raw/5f989fa02b5a611b2df1a305_empathy_intonation_perc_2024-06-02_08h31.23.087.csv","suelet","pseudoword","0","0","1",0.8718,1,-0.137195239177845
"101",3,"/Users/kyleparrish/Documents/GitHub/l3_cognate_study_pilot/data/raw/5f989fa02b5a611b2df1a305_empathy_intonation_perc_2024-06-02_08h31.23.087.csv","cuento","non_cognate","1","1","0",0.8291,1,-0.187414503859964
"102",3,"/Users/kyleparrish/Documents/GitHub/l3_cognate_study_pilot/data/raw/5f989fa02b5a611b2df1a305_empathy_intonation_perc_2024-06-02_08h31.23.087.csv","trenza","non_cognate","1","1","0",0.7954,1,-0.228910146208547
"103",3,"/Users/kyleparrish/Documents/GitHub/l3_cognate_study_pilot/data/raw/5f989fa02b5a611b2df1a305_empathy_intonation_perc_2024-06-02_08h31.23.087.csv","aljizo","pseudoword","0","0","1",1.9347,1,0.659952275702304
"104",3,"/Users/kyleparrish/Documents/GitHub/l3_cognate_study_pilot/data/raw/5f989fa02b5a611b2df1a305_empathy_intonation_perc_2024-06-02_08h31.23.087.csv","pista","non_cognate","1","1","0",0.8224,1,-0.195528384281236
"105",3,"/Users/kyleparrish/Documents/GitHub/l3_cognate_study_pilot/data/raw/5f989fa02b5a611b2df1a305_empathy_intonation_perc_2024-06-02_08h31.23.087.csv","nasce","pseudoword","0","0","1",0.7558,1,-0.279978488066748
"106",3,"/Users/kyleparrish/Documents/GitHub/l3_cognate_study_pilot/data/raw/5f989fa02b5a611b2df1a305_empathy_intonation_perc_2024-06-02_08h31.23.087.csv","qucrá","pseudoword","0","0","1",0.8245,1,-0.192978136982483
"107",3,"/Users/kyleparrish/Documents/GitHub/l3_cognate_study_pilot/data/raw/5f989fa02b5a611b2df1a305_empathy_intonation_perc_2024-06-02_08h31.23.087.csv","enigma","two_way_cognate","1","1","0",0.7333,1,-0.310200383882383
"108",3,"/Users/kyleparrish/Documents/GitHub/l3_cognate_study_pilot/data/raw/5f989fa02b5a611b2df1a305_empathy_intonation_perc_2024-06-02_08h31.23.087.csv","caro","non_cognate","1","1","0",0.8228,1,-0.195042121203335
"109",3,"/Users/kyleparrish/Documents/GitHub/l3_cognate_study_pilot/data/raw/5f989fa02b5a611b2df1a305_empathy_intonation_perc_2024-06-02_08h31.23.087.csv","racaer","pseudoword","0","0","1",0.7787,1,-0.250129416399197
"110",3,"/Users/kyleparrish/Documents/GitHub/l3_cognate_study_pilot/data/raw/5f989fa02b5a611b2df1a305_empathy_intonation_perc_2024-06-02_08h31.23.087.csv","visión","non_cognate","1","1","0",1.1783,1,0.164072721737158
"111",3,"/Users/kyleparrish/Documents/GitHub/l3_cognate_study_pilot/data/raw/5f989fa02b5a611b2df1a305_empathy_intonation_perc_2024-06-02_08h31.23.087.csv","huella","non_cognate","1","1","0",1.4535,1,0.373974441016794
"112",3,"/Users/kyleparrish/Documents/GitHub/l3_cognate_study_pilot/data/raw/5f989fa02b5a611b2df1a305_empathy_intonation_perc_2024-06-02_08h31.23.087.csv","meolar","pseudoword","0","0","1",0.9633,1,-0.0373903892185591
"113",3,"/Users/kyleparrish/Documents/GitHub/l3_cognate_study_pilot/data/raw/5f989fa02b5a611b2df1a305_empathy_intonation_perc_2024-06-02_08h31.23.087.csv","rombar","pseudoword","0","0","1",1.2088,1,0.189628131976393
"114",3,"/Users/kyleparrish/Documents/GitHub/l3_cognate_study_pilot/data/raw/5f989fa02b5a611b2df1a305_empathy_intonation_perc_2024-06-02_08h31.23.087.csv","torso","three_way_cognate","1","1","0",0.7558,1,-0.279978488066748
"115",3,"/Users/kyleparrish/Documents/GitHub/l3_cognate_study_pilot/data/raw/5f989fa02b5a611b2df1a305_empathy_intonation_perc_2024-06-02_08h31.23.087.csv","animal","two_way_cognate","1","1","0",0.6626,1,-0.411583789116342
"116",3,"/Users/kyleparrish/Documents/GitHub/l3_cognate_study_pilot/data/raw/5f989fa02b5a611b2df1a305_empathy_intonation_perc_2024-06-02_08h31.23.087.csv","calto","pseudoword","0","0","1",0.8711,1,-0.137998498157291
"117",3,"/Users/kyleparrish/Documents/GitHub/l3_cognate_study_pilot/data/raw/5f989fa02b5a611b2df1a305_empathy_intonation_perc_2024-06-02_08h31.23.087.csv","barezo","pseudoword","0","0","1",1.1201,1,0.113417967035557
"118",3,"/Users/kyleparrish/Documents/GitHub/l3_cognate_study_pilot/data/raw/5f989fa02b5a611b2df1a305_empathy_intonation_perc_2024-06-02_08h31.23.087.csv","premio","non_cognate","1","1","0",0.7896,1,-0.236228790862865
"119",3,"/Users/kyleparrish/Documents/GitHub/l3_cognate_study_pilot/data/raw/5f989fa02b5a611b2df1a305_empathy_intonation_perc_2024-06-02_08h31.23.087.csv","hurmo","pseudoword","0","0","1",0.7258,1,-0.320480784203167
"120",3,"/Users/kyleparrish/Documents/GitHub/l3_cognate_study_pilot/data/raw/5f989fa02b5a611b2df1a305_empathy_intonation_perc_2024-06-02_08h31.23.087.csv","mibro","pseudoword","0","0","1",0.7392,1,-0.302186758654663
"121",3,"/Users/kyleparrish/Documents/GitHub/l3_cognate_study_pilot/data/raw/5f989fa02b5a611b2df1a305_empathy_intonation_perc_2024-06-02_08h31.23.087.csv","babrá","pseudoword","0","0","1",1.1682,1,0.155464102624072
"122",3,"/Users/kyleparrish/Documents/GitHub/l3_cognate_study_pilot/data/raw/5f989fa02b5a611b2df1a305_empathy_intonation_perc_2024-06-02_08h31.23.087.csv","altimo","pseudoword","0","0","1",1.0044,1,0.00439034830129285
"123",3,"/Users/kyleparrish/Documents/GitHub/l3_cognate_study_pilot/data/raw/5f989fa02b5a611b2df1a305_empathy_intonation_perc_2024-06-02_08h31.23.087.csv","aurora","two_way_cognate","1","1","0",1.3305,1,0.285554811435607
"124",3,"/Users/kyleparrish/Documents/GitHub/l3_cognate_study_pilot/data/raw/5f989fa02b5a611b2df1a305_empathy_intonation_perc_2024-06-02_08h31.23.087.csv","campo","non_cognate","1","1","0",1.5151,1,0.415481443383653
"125",3,"/Users/kyleparrish/Documents/GitHub/l3_cognate_study_pilot/data/raw/5f989fa02b5a611b2df1a305_empathy_intonation_perc_2024-06-02_08h31.23.087.csv","delito","non_cognate","1","1","0",0.8882,1,-0.118558336124135
"126",3,"/Users/kyleparrish/Documents/GitHub/l3_cognate_study_pilot/data/raw/5f989fa02b5a611b2df1a305_empathy_intonation_perc_2024-06-02_08h31.23.087.csv","casual","two_way_cognate","1","1","0",0.723,1,-0.324346056823372
"127",3,"/Users/kyleparrish/Documents/GitHub/l3_cognate_study_pilot/data/raw/5f989fa02b5a611b2df1a305_empathy_intonation_perc_2024-06-02_08h31.23.087.csv","clazas","pseudoword","0","0","1",0.8804,1,-0.12737892932983
"128",3,"/Users/kyleparrish/Documents/GitHub/l3_cognate_study_pilot/data/raw/5f989fa02b5a611b2df1a305_empathy_intonation_perc_2024-06-02_08h31.23.087.csv","duyo","pseudoword","0","0","1",0.9375,1,-0.0645385211375712
"129",3,"/Users/kyleparrish/Documents/GitHub/l3_cognate_study_pilot/data/raw/5f989fa02b5a611b2df1a305_empathy_intonation_perc_2024-06-02_08h31.23.087.csv","hunten","pseudoword","0","0","1",0.764,1,-0.269187489815617
"130",3,"/Users/kyleparrish/Documents/GitHub/l3_cognate_study_pilot/data/raw/5f989fa02b5a611b2df1a305_empathy_intonation_perc_2024-06-02_08h31.23.087.csv","pelvis","two_way_cognate","1","1","0",0.7536,1,-0.282893555719984
"131",3,"/Users/kyleparrish/Documents/GitHub/l3_cognate_study_pilot/data/raw/5f989fa02b5a611b2df1a305_empathy_intonation_perc_2024-06-02_08h31.23.087.csv","tutaba","pseudoword","0","0","1",1.017,1,0.0168571170664228
"132",3,"/Users/kyleparrish/Documents/GitHub/l3_cognate_study_pilot/data/raw/5f989fa02b5a611b2df1a305_empathy_intonation_perc_2024-06-02_08h31.23.087.csv","abunal","pseudoword","0","0","1",0.8746,1,-0.133988640003317
"133",3,"/Users/kyleparrish/Documents/GitHub/l3_cognate_study_pilot/data/raw/5f989fa02b5a611b2df1a305_empathy_intonation_perc_2024-06-02_08h31.23.087.csv","salto","non_cognate","1","1","0",0.8193,1,-0.199304961834368
"134",3,"/Users/kyleparrish/Documents/GitHub/l3_cognate_study_pilot/data/raw/5f989fa02b5a611b2df1a305_empathy_intonation_perc_2024-06-02_08h31.23.087.csv","alla","pseudoword","0","0","1",1.759,1,0.564745465755421
"135",3,"/Users/kyleparrish/Documents/GitHub/l3_cognate_study_pilot/data/raw/5f989fa02b5a611b2df1a305_empathy_intonation_perc_2024-06-02_08h31.23.087.csv","abamos","pseudoword","0","0","1",0.9644,1,-0.036249132675121
"136",3,"/Users/kyleparrish/Documents/GitHub/l3_cognate_study_pilot/data/raw/5f989fa02b5a611b2df1a305_empathy_intonation_perc_2024-06-02_08h31.23.087.csv","honor","two_way_cognate","1","1","0",0.9108,1,-0.0934319447925524
"137",3,"/Users/kyleparrish/Documents/GitHub/l3_cognate_study_pilot/data/raw/5f989fa02b5a611b2df1a305_empathy_intonation_perc_2024-06-02_08h31.23.087.csv","alzán","pseudoword","0","0","1",1.2554,1,0.227454246901294
"138",3,"/Users/kyleparrish/Documents/GitHub/l3_cognate_study_pilot/data/raw/5f989fa02b5a611b2df1a305_empathy_intonation_perc_2024-06-02_08h31.23.087.csv","ropis","pseudoword","0","0","1",0.7058,1,-0.348423367740967
"139",3,"/Users/kyleparrish/Documents/GitHub/l3_cognate_study_pilot/data/raw/5f989fa02b5a611b2df1a305_empathy_intonation_perc_2024-06-02_08h31.23.087.csv","sujo","pseudoword","0","0","1",1.1891,1,0.173196718461396
"140",3,"/Users/kyleparrish/Documents/GitHub/l3_cognate_study_pilot/data/raw/5f989fa02b5a611b2df1a305_empathy_intonation_perc_2024-06-02_08h31.23.087.csv","suaja","pseudoword","0","0","1",0.9006,1,-0.104694071114666
"141",4,"/Users/kyleparrish/Documents/GitHub/l3_cognate_study_pilot/data/raw/5fa4c21a04bc5912180291bc_empathy_intonation_perc_2024-06-02_08h10.55.385.csv","honor","two_way_cognate","1","1","0",1.3441,1,0.295724644094966
"142",4,"/Users/kyleparrish/Documents/GitHub/l3_cognate_study_pilot/data/raw/5fa4c21a04bc5912180291bc_empathy_intonation_perc_2024-06-02_08h10.55.385.csv","premio","non_cognate","1","1","0",1.4235,1,0.353118627735955
"143",4,"/Users/kyleparrish/Documents/GitHub/l3_cognate_study_pilot/data/raw/5fa4c21a04bc5912180291bc_empathy_intonation_perc_2024-06-02_08h10.55.385.csv","nasce","pseudoword","0","0","1",0.954,1,-0.0470916075338506
"144",4,"/Users/kyleparrish/Documents/GitHub/l3_cognate_study_pilot/data/raw/5fa4c21a04bc5912180291bc_empathy_intonation_perc_2024-06-02_08h10.55.385.csv","aljizo","pseudoword","0","0","1",1.8103,1,0.593492577399761
"145",4,"/Users/kyleparrish/Documents/GitHub/l3_cognate_study_pilot/data/raw/5fa4c21a04bc5912180291bc_empathy_intonation_perc_2024-06-02_08h10.55.385.csv","filte","pseudoword","0","0","1",1.0083,1,0.00826574441703259
"146",4,"/Users/kyleparrish/Documents/GitHub/l3_cognate_study_pilot/data/raw/5fa4c21a04bc5912180291bc_empathy_intonation_perc_2024-06-02_08h10.55.385.csv","sermón","non_cognate","1","1","0",1.0938,1,0.0896578719305354
"147",4,"/Users/kyleparrish/Documents/GitHub/l3_cognate_study_pilot/data/raw/5fa4c21a04bc5912180291bc_empathy_intonation_perc_2024-06-02_08h10.55.385.csv","pájaro","non_cognate","1","1","0",0.7205,1,-0.32780986354256
"148",4,"/Users/kyleparrish/Documents/GitHub/l3_cognate_study_pilot/data/raw/5fa4c21a04bc5912180291bc_empathy_intonation_perc_2024-06-02_08h10.55.385.csv","hurmo","pseudoword","0","0","1",0.7235,1,-0.323654732910598
"149",4,"/Users/kyleparrish/Documents/GitHub/l3_cognate_study_pilot/data/raw/5fa4c21a04bc5912180291bc_empathy_intonation_perc_2024-06-02_08h10.55.385.csv","debido","non_cognate","1","1","0",1.1182,1,0.111720249610408
"150",4,"/Users/kyleparrish/Documents/GitHub/l3_cognate_study_pilot/data/raw/5fa4c21a04bc5912180291bc_empathy_intonation_perc_2024-06-02_08h10.55.385.csv","suelet","pseudoword","0","0","1",1.6676,1,0.511385467024505
"151",4,"/Users/kyleparrish/Documents/GitHub/l3_cognate_study_pilot/data/raw/5fa4c21a04bc5912180291bc_empathy_intonation_perc_2024-06-02_08h10.55.385.csv","pelvis","two_way_cognate","1","1","0",1.7314,1,0.548930329799536
"152",4,"/Users/kyleparrish/Documents/GitHub/l3_cognate_study_pilot/data/raw/5fa4c21a04bc5912180291bc_empathy_intonation_perc_2024-06-02_08h10.55.385.csv","civil","two_way_cognate","1","1","0",0.7415,1,-0.29908011740415
"153",4,"/Users/kyleparrish/Documents/GitHub/l3_cognate_study_pilot/data/raw/5fa4c21a04bc5912180291bc_empathy_intonation_perc_2024-06-02_08h10.55.385.csv","editor","two_way_cognate","1","1","0",1.0771,1,0.0742722443745874
"154",4,"/Users/kyleparrish/Documents/GitHub/l3_cognate_study_pilot/data/raw/5fa4c21a04bc5912180291bc_empathy_intonation_perc_2024-06-02_08h10.55.385.csv","llamar","non_cognate","1","1","0",0.6888,1,-0.372804325868616
"155",4,"/Users/kyleparrish/Documents/GitHub/l3_cognate_study_pilot/data/raw/5fa4c21a04bc5912180291bc_empathy_intonation_perc_2024-06-02_08h10.55.385.csv","aurora","two_way_cognate","1","1","0",1.383,1,0.324255052682621
"156",4,"/Users/kyleparrish/Documents/GitHub/l3_cognate_study_pilot/data/raw/5fa4c21a04bc5912180291bc_empathy_intonation_perc_2024-06-02_08h10.55.385.csv","edidé","pseudoword","0","0","1",0.9081,1,-0.0964007742863544
"157",4,"/Users/kyleparrish/Documents/GitHub/l3_cognate_study_pilot/data/raw/5fa4c21a04bc5912180291bc_empathy_intonation_perc_2024-06-02_08h10.55.385.csv","racaer","pseudoword","0","0","1",1.4671,1,0.383287663163461
"158",4,"/Users/kyleparrish/Documents/GitHub/l3_cognate_study_pilot/data/raw/5fa4c21a04bc5912180291bc_empathy_intonation_perc_2024-06-02_08h10.55.385.csv","tandir","pseudoword","0","0","1",0.8127,1,-0.207393241222978
"159",4,"/Users/kyleparrish/Documents/GitHub/l3_cognate_study_pilot/data/raw/5fa4c21a04bc5912180291bc_empathy_intonation_perc_2024-06-02_08h10.55.385.csv","mibro","pseudoword","0","0","1",0.7299,1,-0.31484774052455
"160",4,"/Users/kyleparrish/Documents/GitHub/l3_cognate_study_pilot/data/raw/5fa4c21a04bc5912180291bc_empathy_intonation_perc_2024-06-02_08h10.55.385.csv","clazas","pseudoword","0","0","1",0.9358,1,-0.0663535005500212
"161",4,"/Users/kyleparrish/Documents/GitHub/l3_cognate_study_pilot/data/raw/5fa4c21a04bc5912180291bc_empathy_intonation_perc_2024-06-02_08h10.55.385.csv","animal","two_way_cognate","1","1","0",0.8304,1,-0.185847766570513
"162",4,"/Users/kyleparrish/Documents/GitHub/l3_cognate_study_pilot/data/raw/5fa4c21a04bc5912180291bc_empathy_intonation_perc_2024-06-02_08h10.55.385.csv","enigma","two_way_cognate","1","1","0",0.785,1,-0.242071561199729
"163",4,"/Users/kyleparrish/Documents/GitHub/l3_cognate_study_pilot/data/raw/5fa4c21a04bc5912180291bc_empathy_intonation_perc_2024-06-02_08h10.55.385.csv","cumbre","non_cognate","1","1","0",1.1601,1,0.148506208299224
"164",4,"/Users/kyleparrish/Documents/GitHub/l3_cognate_study_pilot/data/raw/5fa4c21a04bc5912180291bc_empathy_intonation_perc_2024-06-02_08h10.55.385.csv","limbo","three_way_cognate","1","1","0",0.7868,1,-0.239781192467233
"165",4,"/Users/kyleparrish/Documents/GitHub/l3_cognate_study_pilot/data/raw/5fa4c21a04bc5912180291bc_empathy_intonation_perc_2024-06-02_08h10.55.385.csv","trip","pseudoword","0","0","1",0.7377,1,-0.30421804109188
"166",4,"/Users/kyleparrish/Documents/GitHub/l3_cognate_study_pilot/data/raw/5fa4c21a04bc5912180291bc_empathy_intonation_perc_2024-06-02_08h10.55.385.csv","actor","two_way_cognate","1","1","0",0.7167,1,-0.333097935982264
"167",4,"/Users/kyleparrish/Documents/GitHub/l3_cognate_study_pilot/data/raw/5fa4c21a04bc5912180291bc_empathy_intonation_perc_2024-06-02_08h10.55.385.csv","debada","pseudoword","0","0","1",1.3385,1,0.29154958397827
"168",4,"/Users/kyleparrish/Documents/GitHub/l3_cognate_study_pilot/data/raw/5fa4c21a04bc5912180291bc_empathy_intonation_perc_2024-06-02_08h10.55.385.csv","torso","three_way_cognate","1","1","0",0.7833,1,-0.244239514608944
"169",4,"/Users/kyleparrish/Documents/GitHub/l3_cognate_study_pilot/data/raw/5fa4c21a04bc5912180291bc_empathy_intonation_perc_2024-06-02_08h10.55.385.csv","campo","non_cognate","1","1","0",0.7387,1,-0.302863394447445
"170",4,"/Users/kyleparrish/Documents/GitHub/l3_cognate_study_pilot/data/raw/5fa4c21a04bc5912180291bc_empathy_intonation_perc_2024-06-02_08h10.55.385.csv","horror","three_way_cognate","1","1","0",0.7879,1,-0.238384100730495
"171",4,"/Users/kyleparrish/Documents/GitHub/l3_cognate_study_pilot/data/raw/5fa4c21a04bc5912180291bc_empathy_intonation_perc_2024-06-02_08h10.55.385.csv","casual","two_way_cognate","1","1","0",0.7333,1,-0.310200383882383
"172",4,"/Users/kyleparrish/Documents/GitHub/l3_cognate_study_pilot/data/raw/5fa4c21a04bc5912180291bc_empathy_intonation_perc_2024-06-02_08h10.55.385.csv","solar","three_way_cognate","1","1","0",0.7224,1,-0.325176276879361
"173",4,"/Users/kyleparrish/Documents/GitHub/l3_cognate_study_pilot/data/raw/5fa4c21a04bc5912180291bc_empathy_intonation_perc_2024-06-02_08h10.55.385.csv","total","two_way_cognate","1","1","0",0.7007,1,-0.355675443605649
"174",4,"/Users/kyleparrish/Documents/GitHub/l3_cognate_study_pilot/data/raw/5fa4c21a04bc5912180291bc_empathy_intonation_perc_2024-06-02_08h10.55.385.csv","meolar","pseudoword","0","0","1",0.8061,1,-0.215547474692582
"175",4,"/Users/kyleparrish/Documents/GitHub/l3_cognate_study_pilot/data/raw/5fa4c21a04bc5912180291bc_empathy_intonation_perc_2024-06-02_08h10.55.385.csv","bar","three_way_cognate","1","1","0",0.673,1,-0.396009949337409
"176",4,"/Users/kyleparrish/Documents/GitHub/l3_cognate_study_pilot/data/raw/5fa4c21a04bc5912180291bc_empathy_intonation_perc_2024-06-02_08h10.55.385.csv","coriar","pseudoword","0","0","1",0.8094,1,-0.211462046540372
"177",4,"/Users/kyleparrish/Documents/GitHub/l3_cognate_study_pilot/data/raw/5fa4c21a04bc5912180291bc_empathy_intonation_perc_2024-06-02_08h10.55.385.csv","pasta","two_way_cognate","1","1","0",0.9421,1,-0.0596438529275149
"178",4,"/Users/kyleparrish/Documents/GitHub/l3_cognate_study_pilot/data/raw/5fa4c21a04bc5912180291bc_empathy_intonation_perc_2024-06-02_08h10.55.385.csv","sujo","pseudoword","0","0","1",1.2742,1,0.242318530700251
"179",4,"/Users/kyleparrish/Documents/GitHub/l3_cognate_study_pilot/data/raw/5fa4c21a04bc5912180291bc_empathy_intonation_perc_2024-06-02_08h10.55.385.csv","cuento","non_cognate","1","1","0",1.6347,1,0.491459301275025
"180",4,"/Users/kyleparrish/Documents/GitHub/l3_cognate_study_pilot/data/raw/5fa4c21a04bc5912180291bc_empathy_intonation_perc_2024-06-02_08h10.55.385.csv","salto","non_cognate","1","1","0",0.6329,1,-0.457442847200877
"181",4,"/Users/kyleparrish/Documents/GitHub/l3_cognate_study_pilot/data/raw/5fa4c21a04bc5912180291bc_empathy_intonation_perc_2024-06-02_08h10.55.385.csv","toges","pseudoword","0","0","1",1.9339,1,0.659538689386116
"182",4,"/Users/kyleparrish/Documents/GitHub/l3_cognate_study_pilot/data/raw/5fa4c21a04bc5912180291bc_empathy_intonation_perc_2024-06-02_08h10.55.385.csv","visión","non_cognate","1","1","0",0.6329,1,-0.457442847200877
"183",4,"/Users/kyleparrish/Documents/GitHub/l3_cognate_study_pilot/data/raw/5fa4c21a04bc5912180291bc_empathy_intonation_perc_2024-06-02_08h10.55.385.csv","llamar","non_cognate","1","1","0",0.7711,1,-0.259937212143222
"184",4,"/Users/kyleparrish/Documents/GitHub/l3_cognate_study_pilot/data/raw/5fa4c21a04bc5912180291bc_empathy_intonation_perc_2024-06-02_08h10.55.385.csv","fauna","three_way_cognate","1","1","0",1.1601,1,0.148506208299224
"185",4,"/Users/kyleparrish/Documents/GitHub/l3_cognate_study_pilot/data/raw/5fa4c21a04bc5912180291bc_empathy_intonation_perc_2024-06-02_08h10.55.385.csv","diebro","pseudoword","0","0","1",0.9982,1,-0.00180162194662821
"186",4,"/Users/kyleparrish/Documents/GitHub/l3_cognate_study_pilot/data/raw/5fa4c21a04bc5912180291bc_empathy_intonation_perc_2024-06-02_08h10.55.385.csv","babrá","pseudoword","0","0","1",1.3401,1,0.292744238044046
"187",4,"/Users/kyleparrish/Documents/GitHub/l3_cognate_study_pilot/data/raw/5fa4c21a04bc5912180291bc_empathy_intonation_perc_2024-06-02_08h10.55.385.csv","vemua","pseudoword","0","0","1",1.2805,1,0.247250626657443
"188",4,"/Users/kyleparrish/Documents/GitHub/l3_cognate_study_pilot/data/raw/5fa4c21a04bc5912180291bc_empathy_intonation_perc_2024-06-02_08h10.55.385.csv","huella","non_cognate","1","1","0",0.9883,1,-0.0117689835999989
"189",4,"/Users/kyleparrish/Documents/GitHub/l3_cognate_study_pilot/data/raw/5fa4c21a04bc5912180291bc_empathy_intonation_perc_2024-06-02_08h10.55.385.csv","aclaya","pseudoword","0","0","1",1.0865,1,0.0829615207143473
"190",4,"/Users/kyleparrish/Documents/GitHub/l3_cognate_study_pilot/data/raw/5fa4c21a04bc5912180291bc_empathy_intonation_perc_2024-06-02_08h10.55.385.csv","caemal","pseudoword","0","0","1",0.9972,1,-0.00280392733273426
"191",4,"/Users/kyleparrish/Documents/GitHub/l3_cognate_study_pilot/data/raw/5fa4c21a04bc5912180291bc_empathy_intonation_perc_2024-06-02_08h10.55.385.csv","pista","non_cognate","1","1","0",0.6722,1,-0.397199363691132
"192",4,"/Users/kyleparrish/Documents/GitHub/l3_cognate_study_pilot/data/raw/5fa4c21a04bc5912180291bc_empathy_intonation_perc_2024-06-02_08h10.55.385.csv","qucrá","pseudoword","0","0","1",1.7974,1,0.586341176242136
"193",4,"/Users/kyleparrish/Documents/GitHub/l3_cognate_study_pilot/data/raw/5fa4c21a04bc5912180291bc_empathy_intonation_perc_2024-06-02_08h10.55.385.csv","diguán","pseudoword","0","0","1",1.3618,1,0.308807354066729
"194",4,"/Users/kyleparrish/Documents/GitHub/l3_cognate_study_pilot/data/raw/5fa4c21a04bc5912180291bc_empathy_intonation_perc_2024-06-02_08h10.55.385.csv","hunten","pseudoword","0","0","1",1.7171,1,0.54063682133762
"195",4,"/Users/kyleparrish/Documents/GitHub/l3_cognate_study_pilot/data/raw/5fa4c21a04bc5912180291bc_empathy_intonation_perc_2024-06-02_08h10.55.385.csv","brigan","pseudoword","0","0","1",1.864,1,0.6227247162634
"196",4,"/Users/kyleparrish/Documents/GitHub/l3_cognate_study_pilot/data/raw/5fa4c21a04bc5912180291bc_empathy_intonation_perc_2024-06-02_08h10.55.385.csv","huzas","pseudoword","0","0","1",0.9166,1,-0.0870841069071134
"197",4,"/Users/kyleparrish/Documents/GitHub/l3_cognate_study_pilot/data/raw/5fa4c21a04bc5912180291bc_empathy_intonation_perc_2024-06-02_08h10.55.385.csv","hento","pseudoword","0","0","1",0.8739,1,-0.134789326348638
"198",4,"/Users/kyleparrish/Documents/GitHub/l3_cognate_study_pilot/data/raw/5fa4c21a04bc5912180291bc_empathy_intonation_perc_2024-06-02_08h10.55.385.csv","clan","three_way_cognate","1","1","0",1.434,1,0.360467742177429
"199",4,"/Users/kyleparrish/Documents/GitHub/l3_cognate_study_pilot/data/raw/5fa4c21a04bc5912180291bc_empathy_intonation_perc_2024-06-02_08h10.55.385.csv","calto","pseudoword","0","0","1",0.7168,1,-0.332958417321416
"200",4,"/Users/kyleparrish/Documents/GitHub/l3_cognate_study_pilot/data/raw/5fa4c21a04bc5912180291bc_empathy_intonation_perc_2024-06-02_08h10.55.385.csv","abunal","pseudoword","0","0","1",0.821,1,-0.197232169529709
"201",4,"/Users/kyleparrish/Documents/GitHub/l3_cognate_study_pilot/data/raw/5fa4c21a04bc5912180291bc_empathy_intonation_perc_2024-06-02_08h10.55.385.csv","abamos","pseudoword","0","0","1",0.8168,1,-0.202361012131681
"202",4,"/Users/kyleparrish/Documents/GitHub/l3_cognate_study_pilot/data/raw/5fa4c21a04bc5912180291bc_empathy_intonation_perc_2024-06-02_08h10.55.385.csv","tutaba","pseudoword","0","0","1",1.0024,1,0.00239712459972145
"203",4,"/Users/kyleparrish/Documents/GitHub/l3_cognate_study_pilot/data/raw/5fa4c21a04bc5912180291bc_empathy_intonation_perc_2024-06-02_08h10.55.385.csv","exigir","non_cognate","1","1","0",0.8832,1,-0.124203603459306
"204",4,"/Users/kyleparrish/Documents/GitHub/l3_cognate_study_pilot/data/raw/5fa4c21a04bc5912180291bc_empathy_intonation_perc_2024-06-02_08h10.55.385.csv","monsos","pseudoword","0","0","1",1.3824,1,0.323821119067654
"205",4,"/Users/kyleparrish/Documents/GitHub/l3_cognate_study_pilot/data/raw/5fa4c21a04bc5912180291bc_empathy_intonation_perc_2024-06-02_08h10.55.385.csv","sauna","three_way_cognate","1","1","0",0.6171,1,-0.482724193655116
"206",4,"/Users/kyleparrish/Documents/GitHub/l3_cognate_study_pilot/data/raw/5fa4c21a04bc5912180291bc_empathy_intonation_perc_2024-06-02_08h10.55.385.csv","tango","three_way_cognate","1","1","0",0.8668,1,-0.142947009319933
"207",4,"/Users/kyleparrish/Documents/GitHub/l3_cognate_study_pilot/data/raw/5fa4c21a04bc5912180291bc_empathy_intonation_perc_2024-06-02_08h10.55.385.csv","bingo","three_way_cognate","1","1","0",0.9136,1,-0.0903624400803913
"208",4,"/Users/kyleparrish/Documents/GitHub/l3_cognate_study_pilot/data/raw/5fa4c21a04bc5912180291bc_empathy_intonation_perc_2024-06-02_08h10.55.385.csv","mandio","pseudoword","0","0","1",1.0604,1,0.0586461954327334
"209",4,"/Users/kyleparrish/Documents/GitHub/l3_cognate_study_pilot/data/raw/5fa4c21a04bc5912180291bc_empathy_intonation_perc_2024-06-02_08h10.55.385.csv","rande","pseudoword","0","0","1",0.6346,1,-0.454760399833042
"210",4,"/Users/kyleparrish/Documents/GitHub/l3_cognate_study_pilot/data/raw/5fa4c21a04bc5912180291bc_empathy_intonation_perc_2024-06-02_08h10.55.385.csv","chote","pseudoword","0","0","1",0.6169,1,-0.483048342766544
"211",4,"/Users/kyleparrish/Documents/GitHub/l3_cognate_study_pilot/data/raw/5fa4c21a04bc5912180291bc_empathy_intonation_perc_2024-06-02_08h10.55.385.csv","bomos","pseudoword","0","0","1",0.9837,1,-0.0164343064634248
"212",4,"/Users/kyleparrish/Documents/GitHub/l3_cognate_study_pilot/data/raw/5fa4c21a04bc5912180291bc_empathy_intonation_perc_2024-06-02_08h10.55.385.csv","jomas","pseudoword","0","0","1",0.667,1,-0.404965233066513
"213",9,"/Users/kyleparrish/Documents/GitHub/l3_cognate_study_pilot/data/raw/614fbb4467c4c74f573a94d3_empathy_intonation_perc_2024-06-03_09h37.02.951.csv","alivio","non_cognate","1","1","0",1.193,1,0.176471143115779
"214",9,"/Users/kyleparrish/Documents/GitHub/l3_cognate_study_pilot/data/raw/614fbb4467c4c74f573a94d3_empathy_intonation_perc_2024-06-03_09h37.02.951.csv","debada","pseudoword","0","0","1",1.284,1,0.249980205267769
"215",9,"/Users/kyleparrish/Documents/GitHub/l3_cognate_study_pilot/data/raw/614fbb4467c4c74f573a94d3_empathy_intonation_perc_2024-06-03_09h37.02.951.csv","hento","pseudoword","0","0","1",0.98,1,-0.0202027073175195
"216",9,"/Users/kyleparrish/Documents/GitHub/l3_cognate_study_pilot/data/raw/614fbb4467c4c74f573a94d3_empathy_intonation_perc_2024-06-03_09h37.02.951.csv","calto","pseudoword","0","0","1",1.029,1,0.0285874568519125
"217",9,"/Users/kyleparrish/Documents/GitHub/l3_cognate_study_pilot/data/raw/614fbb4467c4c74f573a94d3_empathy_intonation_perc_2024-06-03_09h37.02.951.csv","fauna","three_way_cognate","1","1","0",1.077,1,0.0741793981742515
"218",9,"/Users/kyleparrish/Documents/GitHub/l3_cognate_study_pilot/data/raw/614fbb4467c4c74f573a94d3_empathy_intonation_perc_2024-06-03_09h37.02.951.csv","monsos","pseudoword","0","0","1",1.893,1,0.638162872227186
"219",9,"/Users/kyleparrish/Documents/GitHub/l3_cognate_study_pilot/data/raw/614fbb4467c4c74f573a94d3_empathy_intonation_perc_2024-06-03_09h37.02.951.csv","honor","two_way_cognate","1","1","0",0.82,1,-0.198450938723838
"220",9,"/Users/kyleparrish/Documents/GitHub/l3_cognate_study_pilot/data/raw/614fbb4467c4c74f573a94d3_empathy_intonation_perc_2024-06-03_09h37.02.951.csv","caro","non_cognate","1","1","0",0.874,1,-0.134674903326602
"221",9,"/Users/kyleparrish/Documents/GitHub/l3_cognate_study_pilot/data/raw/614fbb4467c4c74f573a94d3_empathy_intonation_perc_2024-06-03_09h37.02.951.csv","sujo","pseudoword","0","0","1",1.277,1,0.244513577050402
"222",9,"/Users/kyleparrish/Documents/GitHub/l3_cognate_study_pilot/data/raw/614fbb4467c4c74f573a94d3_empathy_intonation_perc_2024-06-03_09h37.02.951.csv","torso","three_way_cognate","1","1","0",0.805,1,-0.216913001563574
"223",9,"/Users/kyleparrish/Documents/GitHub/l3_cognate_study_pilot/data/raw/614fbb4467c4c74f573a94d3_empathy_intonation_perc_2024-06-03_09h37.02.951.csv","huella","non_cognate","1","1","0",0.917,1,-0.0866478067256722
"224",9,"/Users/kyleparrish/Documents/GitHub/l3_cognate_study_pilot/data/raw/614fbb4467c4c74f573a94d3_empathy_intonation_perc_2024-06-03_09h37.02.951.csv","sauna","three_way_cognate","1","1","0",0.681,1,-0.384192972832625
"225",9,"/Users/kyleparrish/Documents/GitHub/l3_cognate_study_pilot/data/raw/614fbb4467c4c74f573a94d3_empathy_intonation_perc_2024-06-03_09h37.02.951.csv","sermón","non_cognate","1","1","0",1.253,1,0.225540675913931
"226",9,"/Users/kyleparrish/Documents/GitHub/l3_cognate_study_pilot/data/raw/614fbb4467c4c74f573a94d3_empathy_intonation_perc_2024-06-03_09h37.02.951.csv","edidé","pseudoword","0","0","1",1.292,1,0.25619140536041
"227",9,"/Users/kyleparrish/Documents/GitHub/l3_cognate_study_pilot/data/raw/614fbb4467c4c74f573a94d3_empathy_intonation_perc_2024-06-03_09h37.02.951.csv","rande","pseudoword","0","0","1",0.973,1,-0.027371196796132
"228",9,"/Users/kyleparrish/Documents/GitHub/l3_cognate_study_pilot/data/raw/614fbb4467c4c74f573a94d3_empathy_intonation_perc_2024-06-03_09h37.02.951.csv","exigir","non_cognate","1","1","0",0.83,1,-0.186329578191493
"229",9,"/Users/kyleparrish/Documents/GitHub/l3_cognate_study_pilot/data/raw/614fbb4467c4c74f573a94d3_empathy_intonation_perc_2024-06-03_09h37.02.951.csv","editor","two_way_cognate","1","1","0",1.206,1,0.187309098304994
"230",9,"/Users/kyleparrish/Documents/GitHub/l3_cognate_study_pilot/data/raw/614fbb4467c4c74f573a94d3_empathy_intonation_perc_2024-06-03_09h37.02.951.csv","hilo","non_cognate","1","1","0",0.882,1,-0.125563222975346
"231",9,"/Users/kyleparrish/Documents/GitHub/l3_cognate_study_pilot/data/raw/614fbb4467c4c74f573a94d3_empathy_intonation_perc_2024-06-03_09h37.02.951.csv","pelado","non_cognate","1","1","0",1.738,1,0.5527350268432
"232",9,"/Users/kyleparrish/Documents/GitHub/l3_cognate_study_pilot/data/raw/614fbb4467c4c74f573a94d3_empathy_intonation_perc_2024-06-03_09h37.02.951.csv","ropis","pseudoword","0","0","1",0.749,1,-0.289016295464918
"233",9,"/Users/kyleparrish/Documents/GitHub/l3_cognate_study_pilot/data/raw/614fbb4467c4c74f573a94d3_empathy_intonation_perc_2024-06-03_09h37.02.951.csv","aclaya","pseudoword","0","0","1",1.18,1,0.165514438477573
"234",9,"/Users/kyleparrish/Documents/GitHub/l3_cognate_study_pilot/data/raw/614fbb4467c4c74f573a94d3_empathy_intonation_perc_2024-06-03_09h37.02.951.csv","coriar","pseudoword","0","0","1",1.074,1,0.071389996086673
"235",9,"/Users/kyleparrish/Documents/GitHub/l3_cognate_study_pilot/data/raw/614fbb4467c4c74f573a94d3_empathy_intonation_perc_2024-06-03_09h37.02.951.csv","llamar","non_cognate","1","1","0",0.672,1,-0.397496938458987
"236",9,"/Users/kyleparrish/Documents/GitHub/l3_cognate_study_pilot/data/raw/614fbb4467c4c74f573a94d3_empathy_intonation_perc_2024-06-03_09h37.02.951.csv","casual","two_way_cognate","1","1","0",0.65,1,-0.430782916092454
"237",9,"/Users/kyleparrish/Documents/GitHub/l3_cognate_study_pilot/data/raw/614fbb4467c4c74f573a94d3_empathy_intonation_perc_2024-06-03_09h37.02.951.csv","caemal","pseudoword","0","0","1",0.814,1,-0.205794912979597
"238",9,"/Users/kyleparrish/Documents/GitHub/l3_cognate_study_pilot/data/raw/614fbb4467c4c74f573a94d3_empathy_intonation_perc_2024-06-03_09h37.02.951.csv","bomos","pseudoword","0","0","1",0.801,1,-0.221894331913778
"239",9,"/Users/kyleparrish/Documents/GitHub/l3_cognate_study_pilot/data/raw/614fbb4467c4c74f573a94d3_empathy_intonation_perc_2024-06-03_09h37.02.951.csv","duyo","pseudoword","0","0","1",0.816,1,-0.20334092401803
"240",9,"/Users/kyleparrish/Documents/GitHub/l3_cognate_study_pilot/data/raw/614fbb4467c4c74f573a94d3_empathy_intonation_perc_2024-06-03_09h37.02.951.csv","animal","two_way_cognate","1","1","0",0.585,1,-0.536143431750281
"241",9,"/Users/kyleparrish/Documents/GitHub/l3_cognate_study_pilot/data/raw/614fbb4467c4c74f573a94d3_empathy_intonation_perc_2024-06-03_09h37.02.951.csv","trip","pseudoword","0","0","1",1.428,1,0.356274863917393
"242",9,"/Users/kyleparrish/Documents/GitHub/l3_cognate_study_pilot/data/raw/614fbb4467c4c74f573a94d3_empathy_intonation_perc_2024-06-03_09h37.02.951.csv","orida","pseudoword","0","0","1",0.75,1,-0.287682072451781
"243",9,"/Users/kyleparrish/Documents/GitHub/l3_cognate_study_pilot/data/raw/614fbb4467c4c74f573a94d3_empathy_intonation_perc_2024-06-03_09h37.02.951.csv","brigan","pseudoword","0","0","1",1.156,1,0.144965770250186
"244",9,"/Users/kyleparrish/Documents/GitHub/l3_cognate_study_pilot/data/raw/614fbb4467c4c74f573a94d3_empathy_intonation_perc_2024-06-03_09h37.02.951.csv","llamar","non_cognate","1","1","0",0.559,1,-0.581605805827038
"245",9,"/Users/kyleparrish/Documents/GitHub/l3_cognate_study_pilot/data/raw/614fbb4467c4c74f573a94d3_empathy_intonation_perc_2024-06-03_09h37.02.951.csv","horror","three_way_cognate","1","1","0",0.773,1,-0.257476230394715
"246",9,"/Users/kyleparrish/Documents/GitHub/l3_cognate_study_pilot/data/raw/614fbb4467c4c74f573a94d3_empathy_intonation_perc_2024-06-03_09h37.02.951.csv","civil","two_way_cognate","1","1","0",0.664,1,-0.409473129505703
"247",9,"/Users/kyleparrish/Documents/GitHub/l3_cognate_study_pilot/data/raw/614fbb4467c4c74f573a94d3_empathy_intonation_perc_2024-06-03_09h37.02.951.csv","premio","non_cognate","1","1","0",0.799,1,-0.224394333215862
"248",9,"/Users/kyleparrish/Documents/GitHub/l3_cognate_study_pilot/data/raw/614fbb4467c4c74f573a94d3_empathy_intonation_perc_2024-06-03_09h37.02.951.csv","visión","non_cognate","1","1","0",0.719,1,-0.32989392126109
"249",9,"/Users/kyleparrish/Documents/GitHub/l3_cognate_study_pilot/data/raw/614fbb4467c4c74f573a94d3_empathy_intonation_perc_2024-06-03_09h37.02.951.csv","tango","three_way_cognate","1","1","0",0.867,1,-0.142716302201595
"250",9,"/Users/kyleparrish/Documents/GitHub/l3_cognate_study_pilot/data/raw/614fbb4467c4c74f573a94d3_empathy_intonation_perc_2024-06-03_09h37.02.951.csv","abamos","pseudoword","0","0","1",1.169,1,0.156148682489931
"251",9,"/Users/kyleparrish/Documents/GitHub/l3_cognate_study_pilot/data/raw/614fbb4467c4c74f573a94d3_empathy_intonation_perc_2024-06-03_09h37.02.951.csv","meolar","pseudoword","0","0","1",1.57,1,0.451075619360217
"252",9,"/Users/kyleparrish/Documents/GitHub/l3_cognate_study_pilot/data/raw/614fbb4467c4c74f573a94d3_empathy_intonation_perc_2024-06-03_09h37.02.951.csv","diebro","pseudoword","0","0","1",0.972,1,-0.028399474521698
"253",9,"/Users/kyleparrish/Documents/GitHub/l3_cognate_study_pilot/data/raw/614fbb4467c4c74f573a94d3_empathy_intonation_perc_2024-06-03_09h37.02.951.csv","jomas","pseudoword","0","0","1",0.946,1,-0.0555127099302588
"254",9,"/Users/kyleparrish/Documents/GitHub/l3_cognate_study_pilot/data/raw/614fbb4467c4c74f573a94d3_empathy_intonation_perc_2024-06-03_09h37.02.951.csv","cuento","non_cognate","1","1","0",0.899,1,-0.106472244510517
"255",9,"/Users/kyleparrish/Documents/GitHub/l3_cognate_study_pilot/data/raw/614fbb4467c4c74f573a94d3_empathy_intonation_perc_2024-06-03_09h37.02.951.csv","pista","non_cognate","1","1","0",0.95,1,-0.0512932943875506
"256",9,"/Users/kyleparrish/Documents/GitHub/l3_cognate_study_pilot/data/raw/614fbb4467c4c74f573a94d3_empathy_intonation_perc_2024-06-03_09h37.02.951.csv","retina","three_way_cognate","1","1","0",0.88,1,-0.127833371509885
"257",9,"/Users/kyleparrish/Documents/GitHub/l3_cognate_study_pilot/data/raw/614fbb4467c4c74f573a94d3_empathy_intonation_perc_2024-06-03_09h37.02.951.csv","hunten","pseudoword","0","0","1",0.703,1,-0.352398387171472
"258",9,"/Users/kyleparrish/Documents/GitHub/l3_cognate_study_pilot/data/raw/614fbb4467c4c74f573a94d3_empathy_intonation_perc_2024-06-03_09h37.02.951.csv","pasta","two_way_cognate","1","1","0",0.908,1,-0.0965109003808437
"259",9,"/Users/kyleparrish/Documents/GitHub/l3_cognate_study_pilot/data/raw/614fbb4467c4c74f573a94d3_empathy_intonation_perc_2024-06-03_09h37.02.951.csv","abunal","pseudoword","0","0","1",0.706,1,-0.348140041488895
"260",9,"/Users/kyleparrish/Documents/GitHub/l3_cognate_study_pilot/data/raw/614fbb4467c4c74f573a94d3_empathy_intonation_perc_2024-06-03_09h37.02.951.csv","solar","three_way_cognate","1","1","0",1.313,1,0.272314595320659
"261",9,"/Users/kyleparrish/Documents/GitHub/l3_cognate_study_pilot/data/raw/614fbb4467c4c74f573a94d3_empathy_intonation_perc_2024-06-03_09h37.02.951.csv","chote","pseudoword","0","0","1",0.696,1,-0.362405618647717
"262",9,"/Users/kyleparrish/Documents/GitHub/l3_cognate_study_pilot/data/raw/614fbb4467c4c74f573a94d3_empathy_intonation_perc_2024-06-03_09h37.02.951.csv","salto","non_cognate","1","1","0",0.68,1,-0.385662480811985
"263",9,"/Users/kyleparrish/Documents/GitHub/l3_cognate_study_pilot/data/raw/614fbb4467c4c74f573a94d3_empathy_intonation_perc_2024-06-03_09h37.02.951.csv","babrá","pseudoword","0","0","1",0.668,1,-0.403467105445491
"264",9,"/Users/kyleparrish/Documents/GitHub/l3_cognate_study_pilot/data/raw/614fbb4467c4c74f573a94d3_empathy_intonation_perc_2024-06-03_09h37.02.951.csv","pelvis","two_way_cognate","1","1","0",0.804,1,-0.218156009803171
"265",9,"/Users/kyleparrish/Documents/GitHub/l3_cognate_study_pilot/data/raw/614fbb4467c4c74f573a94d3_empathy_intonation_perc_2024-06-03_09h37.02.951.csv","total","two_way_cognate","1","1","0",0.64,1,-0.44628710262842
"266",9,"/Users/kyleparrish/Documents/GitHub/l3_cognate_study_pilot/data/raw/614fbb4467c4c74f573a94d3_empathy_intonation_perc_2024-06-03_09h37.02.951.csv","enigma","two_way_cognate","1","1","0",0.79,1,-0.23572233352107
"267",9,"/Users/kyleparrish/Documents/GitHub/l3_cognate_study_pilot/data/raw/614fbb4467c4c74f573a94d3_empathy_intonation_perc_2024-06-03_09h37.02.951.csv","tutaba","pseudoword","0","0","1",0.833,1,-0.182721636815294
"268",9,"/Users/kyleparrish/Documents/GitHub/l3_cognate_study_pilot/data/raw/614fbb4467c4c74f573a94d3_empathy_intonation_perc_2024-06-03_09h37.02.951.csv","pájaro","non_cognate","1","1","0",1.017,1,0.0168571170664228
"269",9,"/Users/kyleparrish/Documents/GitHub/l3_cognate_study_pilot/data/raw/614fbb4467c4c74f573a94d3_empathy_intonation_perc_2024-06-03_09h37.02.951.csv","actor","two_way_cognate","1","1","0",0.74,1,-0.301105092783922
"270",9,"/Users/kyleparrish/Documents/GitHub/l3_cognate_study_pilot/data/raw/614fbb4467c4c74f573a94d3_empathy_intonation_perc_2024-06-03_09h37.02.951.csv","samón","pseudoword","0","0","1",1.289,1,0.25386672395705
"271",9,"/Users/kyleparrish/Documents/GitHub/l3_cognate_study_pilot/data/raw/614fbb4467c4c74f573a94d3_empathy_intonation_perc_2024-06-03_09h37.02.951.csv","diguán","pseudoword","0","0","1",0.698,1,-0.359536176219765
"272",9,"/Users/kyleparrish/Documents/GitHub/l3_cognate_study_pilot/data/raw/614fbb4467c4c74f573a94d3_empathy_intonation_perc_2024-06-03_09h37.02.951.csv","campo","non_cognate","1","1","0",0.646,1,-0.436955775199535
"273",9,"/Users/kyleparrish/Documents/GitHub/l3_cognate_study_pilot/data/raw/614fbb4467c4c74f573a94d3_empathy_intonation_perc_2024-06-03_09h37.02.951.csv","filte","pseudoword","0","0","1",0.721,1,-0.327116141697188
"274",9,"/Users/kyleparrish/Documents/GitHub/l3_cognate_study_pilot/data/raw/614fbb4467c4c74f573a94d3_empathy_intonation_perc_2024-06-03_09h37.02.951.csv","clan","three_way_cognate","1","1","0",1.069,1,0.0667236320429081
"275",9,"/Users/kyleparrish/Documents/GitHub/l3_cognate_study_pilot/data/raw/614fbb4467c4c74f573a94d3_empathy_intonation_perc_2024-06-03_09h37.02.951.csv","debido","non_cognate","1","1","0",1.212,1,0.192271887647123
"276",9,"/Users/kyleparrish/Documents/GitHub/l3_cognate_study_pilot/data/raw/614fbb4467c4c74f573a94d3_empathy_intonation_perc_2024-06-03_09h37.02.951.csv","suaja","pseudoword","0","0","1",0.693,1,-0.366725279792234
"277",9,"/Users/kyleparrish/Documents/GitHub/l3_cognate_study_pilot/data/raw/614fbb4467c4c74f573a94d3_empathy_intonation_perc_2024-06-03_09h37.02.951.csv","limbo","three_way_cognate","1","1","0",0.868,1,-0.141563564321787
"278",9,"/Users/kyleparrish/Documents/GitHub/l3_cognate_study_pilot/data/raw/614fbb4467c4c74f573a94d3_empathy_intonation_perc_2024-06-03_09h37.02.951.csv","qucrá","pseudoword","0","0","1",0.723,1,-0.324346056823372
"279",9,"/Users/kyleparrish/Documents/GitHub/l3_cognate_study_pilot/data/raw/614fbb4467c4c74f573a94d3_empathy_intonation_perc_2024-06-03_09h37.02.951.csv","mandio","pseudoword","0","0","1",0.723,1,-0.324346056823372
"280",9,"/Users/kyleparrish/Documents/GitHub/l3_cognate_study_pilot/data/raw/614fbb4467c4c74f573a94d3_empathy_intonation_perc_2024-06-03_09h37.02.951.csv","toges","pseudoword","0","0","1",0.711,1,-0.341082849178896
"281",9,"/Users/kyleparrish/Documents/GitHub/l3_cognate_study_pilot/data/raw/614fbb4467c4c74f573a94d3_empathy_intonation_perc_2024-06-03_09h37.02.951.csv","mibro","pseudoword","0","0","1",0.972,1,-0.028399474521698
"282",9,"/Users/kyleparrish/Documents/GitHub/l3_cognate_study_pilot/data/raw/614fbb4467c4c74f573a94d3_empathy_intonation_perc_2024-06-03_09h37.02.951.csv","barezo","pseudoword","0","0","1",0.871,1,-0.138113302129634
"283",9,"/Users/kyleparrish/Documents/GitHub/l3_cognate_study_pilot/data/raw/614fbb4467c4c74f573a94d3_empathy_intonation_perc_2024-06-03_09h37.02.951.csv","aljizo","pseudoword","0","0","1",1,1,0
"284",9,"/Users/kyleparrish/Documents/GitHub/l3_cognate_study_pilot/data/raw/614fbb4467c4c74f573a94d3_empathy_intonation_perc_2024-06-03_09h37.02.951.csv","altimo","pseudoword","0","0","1",1.691,1,0.525320069916443
"285",9,"/Users/kyleparrish/Documents/GitHub/l3_cognate_study_pilot/data/raw/614fbb4467c4c74f573a94d3_empathy_intonation_perc_2024-06-03_09h37.02.951.csv","tandir","pseudoword","0","0","1",0.663,1,-0.410980288796275
"286",9,"/Users/kyleparrish/Documents/GitHub/l3_cognate_study_pilot/data/raw/614fbb4467c4c74f573a94d3_empathy_intonation_perc_2024-06-03_09h37.02.951.csv","huzas","pseudoword","0","0","1",0.736,1,-0.306525160253261
"287",9,"/Users/kyleparrish/Documents/GitHub/l3_cognate_study_pilot/data/raw/614fbb4467c4c74f573a94d3_empathy_intonation_perc_2024-06-03_09h37.02.951.csv","aurora","two_way_cognate","1","1","0",0.668,1,-0.403467105445491
"288",9,"/Users/kyleparrish/Documents/GitHub/l3_cognate_study_pilot/data/raw/614fbb4467c4c74f573a94d3_empathy_intonation_perc_2024-06-03_09h37.02.951.csv","vemua","pseudoword","0","0","1",0.699,1,-0.358104536748327
"289",9,"/Users/kyleparrish/Documents/GitHub/l3_cognate_study_pilot/data/raw/614fbb4467c4c74f573a94d3_empathy_intonation_perc_2024-06-03_09h37.02.951.csv","barbo","pseudoword","0","0","1",1.108,1,0.102556588325092
"290",9,"/Users/kyleparrish/Documents/GitHub/l3_cognate_study_pilot/data/raw/614fbb4467c4c74f573a94d3_empathy_intonation_perc_2024-06-03_09h37.02.951.csv","suelet","pseudoword","0","0","1",0.73,1,-0.3147107448397
"291",10,"/Users/kyleparrish/Documents/GitHub/l3_cognate_study_pilot/data/raw/615c5d5d1768e12bba80f289_empathy_intonation_perc_2024-06-02_08h55.09.453.csv","casual","two_way_cognate","1","1","0",1.2834,1,0.249512806334278
"292",10,"/Users/kyleparrish/Documents/GitHub/l3_cognate_study_pilot/data/raw/615c5d5d1768e12bba80f289_empathy_intonation_perc_2024-06-02_08h55.09.453.csv","animal","two_way_cognate","1","1","0",0.8631,1,-0.147224719756525
"293",10,"/Users/kyleparrish/Documents/GitHub/l3_cognate_study_pilot/data/raw/615c5d5d1768e12bba80f289_empathy_intonation_perc_2024-06-02_08h55.09.453.csv","orida","pseudoword","0","0","1",1.2328,1,0.209288005023769
"294",10,"/Users/kyleparrish/Documents/GitHub/l3_cognate_study_pilot/data/raw/615c5d5d1768e12bba80f289_empathy_intonation_perc_2024-06-02_08h55.09.453.csv","aurora","two_way_cognate","1","1","0",1.406,1,0.340748793388473
"295",10,"/Users/kyleparrish/Documents/GitHub/l3_cognate_study_pilot/data/raw/615c5d5d1768e12bba80f289_empathy_intonation_perc_2024-06-02_08h55.09.453.csv","clazas","pseudoword","0","0","1",0.8797,1,-0.128174338723508
"296",10,"/Users/kyleparrish/Documents/GitHub/l3_cognate_study_pilot/data/raw/615c5d5d1768e12bba80f289_empathy_intonation_perc_2024-06-02_08h55.09.453.csv","samón","pseudoword","0","0","1",1.3646,1,0.310861345399186
"297",10,"/Users/kyleparrish/Documents/GitHub/l3_cognate_study_pilot/data/raw/615c5d5d1768e12bba80f289_empathy_intonation_perc_2024-06-02_08h55.09.453.csv","campo","non_cognate","1","1","0",0.6968,1,-0.361256853443844
"298",10,"/Users/kyleparrish/Documents/GitHub/l3_cognate_study_pilot/data/raw/615c5d5d1768e12bba80f289_empathy_intonation_perc_2024-06-02_08h55.09.453.csv","suelet","pseudoword","0","0","1",0.8383,1,-0.176379247338325
"299",10,"/Users/kyleparrish/Documents/GitHub/l3_cognate_study_pilot/data/raw/615c5d5d1768e12bba80f289_empathy_intonation_perc_2024-06-02_08h55.09.453.csv","abunal","pseudoword","0","0","1",0.9431,1,-0.0585829574322979
"300",10,"/Users/kyleparrish/Documents/GitHub/l3_cognate_study_pilot/data/raw/615c5d5d1768e12bba80f289_empathy_intonation_perc_2024-06-02_08h55.09.453.csv","caro","non_cognate","1","1","0",0.9987,1,-0.00130084573304807
"301",10,"/Users/kyleparrish/Documents/GitHub/l3_cognate_study_pilot/data/raw/615c5d5d1768e12bba80f289_empathy_intonation_perc_2024-06-02_08h55.09.453.csv","hunten","pseudoword","0","0","1",1.0054,1,0.00538547227633789
"302",10,"/Users/kyleparrish/Documents/GitHub/l3_cognate_study_pilot/data/raw/615c5d5d1768e12bba80f289_empathy_intonation_perc_2024-06-02_08h55.09.453.csv","mibro","pseudoword","0","0","1",0.8335,1,-0.182121576791288
"303",10,"/Users/kyleparrish/Documents/GitHub/l3_cognate_study_pilot/data/raw/615c5d5d1768e12bba80f289_empathy_intonation_perc_2024-06-02_08h55.09.453.csv","civil","two_way_cognate","1","1","0",0.8766,1,-0.131704490997428
"304",10,"/Users/kyleparrish/Documents/GitHub/l3_cognate_study_pilot/data/raw/615c5d5d1768e12bba80f289_empathy_intonation_perc_2024-06-02_08h55.09.453.csv","salto","non_cognate","1","1","0",1.3451,1,0.296468359732399
"305",10,"/Users/kyleparrish/Documents/GitHub/l3_cognate_study_pilot/data/raw/615c5d5d1768e12bba80f289_empathy_intonation_perc_2024-06-02_08h55.09.453.csv","diguán","pseudoword","0","0","1",0.8862,1,-0.120812620216748
"306",10,"/Users/kyleparrish/Documents/GitHub/l3_cognate_study_pilot/data/raw/615c5d5d1768e12bba80f289_empathy_intonation_perc_2024-06-02_08h55.09.453.csv","qucrá","pseudoword","0","0","1",0.9504,1,-0.0508723303737565
"307",10,"/Users/kyleparrish/Documents/GitHub/l3_cognate_study_pilot/data/raw/615c5d5d1768e12bba80f289_empathy_intonation_perc_2024-06-02_08h55.09.453.csv","babrá","pseudoword","0","0","1",1.875,1,0.628608659422374
"308",10,"/Users/kyleparrish/Documents/GitHub/l3_cognate_study_pilot/data/raw/615c5d5d1768e12bba80f289_empathy_intonation_perc_2024-06-02_08h55.09.453.csv","rande","pseudoword","0","0","1",0.8575,1,-0.153734099942042
"309",10,"/Users/kyleparrish/Documents/GitHub/l3_cognate_study_pilot/data/raw/615c5d5d1768e12bba80f289_empathy_intonation_perc_2024-06-02_08h55.09.453.csv","llamar","non_cognate","1","1","0",0.8272,1,-0.189708775227972
"310",10,"/Users/kyleparrish/Documents/GitHub/l3_cognate_study_pilot/data/raw/615c5d5d1768e12bba80f289_empathy_intonation_perc_2024-06-02_08h55.09.453.csv","ropis","pseudoword","0","0","1",1.2303,1,0.207258042083986
"311",10,"/Users/kyleparrish/Documents/GitHub/l3_cognate_study_pilot/data/raw/615c5d5d1768e12bba80f289_empathy_intonation_perc_2024-06-02_08h55.09.453.csv","premio","non_cognate","1","1","0",1.1065,1,0.101201880508967
"312",10,"/Users/kyleparrish/Documents/GitHub/l3_cognate_study_pilot/data/raw/615c5d5d1768e12bba80f289_empathy_intonation_perc_2024-06-02_08h55.09.453.csv","alzán","pseudoword","0","0","1",0.7939,1,-0.230797770251069
"313",10,"/Users/kyleparrish/Documents/GitHub/l3_cognate_study_pilot/data/raw/615c5d5d1768e12bba80f289_empathy_intonation_perc_2024-06-02_08h55.09.453.csv","editor","two_way_cognate","1","1","0",0.8917,1,-0.114625525841303
"314",10,"/Users/kyleparrish/Documents/GitHub/l3_cognate_study_pilot/data/raw/615c5d5d1768e12bba80f289_empathy_intonation_perc_2024-06-02_08h55.09.453.csv","trenza","non_cognate","1","1","0",0.9277,1,-0.0750468743229113
"315",10,"/Users/kyleparrish/Documents/GitHub/l3_cognate_study_pilot/data/raw/615c5d5d1768e12bba80f289_empathy_intonation_perc_2024-06-02_08h55.09.453.csv","tandir","pseudoword","0","0","1",0.7658,1,-0.266834239938943
"316",10,"/Users/kyleparrish/Documents/GitHub/l3_cognate_study_pilot/data/raw/615c5d5d1768e12bba80f289_empathy_intonation_perc_2024-06-02_08h55.09.453.csv","sauna","three_way_cognate","1","1","0",0.8306,1,-0.185606947785484
"317",10,"/Users/kyleparrish/Documents/GitHub/l3_cognate_study_pilot/data/raw/615c5d5d1768e12bba80f289_empathy_intonation_perc_2024-06-02_08h55.09.453.csv","vemua","pseudoword","0","0","1",0.7574,1,-0.277863763514443
"318",10,"/Users/kyleparrish/Documents/GitHub/l3_cognate_study_pilot/data/raw/615c5d5d1768e12bba80f289_empathy_intonation_perc_2024-06-02_08h55.09.453.csv","bomos","pseudoword","0","0","1",1.2595,1,0.230714816810528
"319",10,"/Users/kyleparrish/Documents/GitHub/l3_cognate_study_pilot/data/raw/615c5d5d1768e12bba80f289_empathy_intonation_perc_2024-06-02_08h55.09.453.csv","taza","non_cognate","1","1","0",0.8772,1,-0.131020262438404
"320",10,"/Users/kyleparrish/Documents/GitHub/l3_cognate_study_pilot/data/raw/615c5d5d1768e12bba80f289_empathy_intonation_perc_2024-06-02_08h55.09.453.csv","rombar","pseudoword","0","0","1",1.141,1,0.131905070879939
"321",10,"/Users/kyleparrish/Documents/GitHub/l3_cognate_study_pilot/data/raw/615c5d5d1768e12bba80f289_empathy_intonation_perc_2024-06-02_08h55.09.453.csv","jomas","pseudoword","0","0","1",0.9473,1,-0.0541394461006482
"322",10,"/Users/kyleparrish/Documents/GitHub/l3_cognate_study_pilot/data/raw/615c5d5d1768e12bba80f289_empathy_intonation_perc_2024-06-02_08h55.09.453.csv","edidé","pseudoword","0","0","1",0.9966,1,-0.00340579313483282
"323",10,"/Users/kyleparrish/Documents/GitHub/l3_cognate_study_pilot/data/raw/615c5d5d1768e12bba80f289_empathy_intonation_perc_2024-06-02_08h55.09.453.csv","mandio","pseudoword","0","0","1",0.7533,1,-0.283291724150488
"324",10,"/Users/kyleparrish/Documents/GitHub/l3_cognate_study_pilot/data/raw/615c5d5d1768e12bba80f289_empathy_intonation_perc_2024-06-02_08h55.09.453.csv","pájaro","non_cognate","1","1","0",1.3145,1,0.273456365187799
"325",10,"/Users/kyleparrish/Documents/GitHub/l3_cognate_study_pilot/data/raw/615c5d5d1768e12bba80f289_empathy_intonation_perc_2024-06-02_08h55.09.453.csv","actor","two_way_cognate","1","1","0",0.8267,1,-0.190313406723507
"326",10,"/Users/kyleparrish/Documents/GitHub/l3_cognate_study_pilot/data/raw/615c5d5d1768e12bba80f289_empathy_intonation_perc_2024-06-02_08h55.09.453.csv","torso","three_way_cognate","1","1","0",0.7461,1,-0.292895639504668
"327",10,"/Users/kyleparrish/Documents/GitHub/l3_cognate_study_pilot/data/raw/615c5d5d1768e12bba80f289_empathy_intonation_perc_2024-06-02_08h55.09.453.csv","exigir","non_cognate","1","1","0",0.8246,1,-0.192856858709337
"328",10,"/Users/kyleparrish/Documents/GitHub/l3_cognate_study_pilot/data/raw/615c5d5d1768e12bba80f289_empathy_intonation_perc_2024-06-02_08h55.09.453.csv","filte","pseudoword","0","0","1",0.76,1,-0.27443684570176
"329",10,"/Users/kyleparrish/Documents/GitHub/l3_cognate_study_pilot/data/raw/615c5d5d1768e12bba80f289_empathy_intonation_perc_2024-06-02_08h55.09.453.csv","racaer","pseudoword","0","0","1",1.4091,1,0.342951202718922
"330",10,"/Users/kyleparrish/Documents/GitHub/l3_cognate_study_pilot/data/raw/615c5d5d1768e12bba80f289_empathy_intonation_perc_2024-06-02_08h55.09.453.csv","tutaba","pseudoword","0","0","1",1.3993,1,0.335972111579531
"331",10,"/Users/kyleparrish/Documents/GitHub/l3_cognate_study_pilot/data/raw/615c5d5d1768e12bba80f289_empathy_intonation_perc_2024-06-02_08h55.09.453.csv","fauna","three_way_cognate","1","1","0",1.6699,1,0.51276374439625
"332",10,"/Users/kyleparrish/Documents/GitHub/l3_cognate_study_pilot/data/raw/615c5d5d1768e12bba80f289_empathy_intonation_perc_2024-06-02_08h55.09.453.csv","sermón","non_cognate","1","1","0",1.6725,1,0.514319513020246
"333",10,"/Users/kyleparrish/Documents/GitHub/l3_cognate_study_pilot/data/raw/615c5d5d1768e12bba80f289_empathy_intonation_perc_2024-06-02_08h55.09.453.csv","nasce","pseudoword","0","0","1",0.6948,1,-0.364131244615187
"334",10,"/Users/kyleparrish/Documents/GitHub/l3_cognate_study_pilot/data/raw/615c5d5d1768e12bba80f289_empathy_intonation_perc_2024-06-02_08h55.09.453.csv","retina","three_way_cognate","1","1","0",1.2465,1,0.220339623981475
"335",10,"/Users/kyleparrish/Documents/GitHub/l3_cognate_study_pilot/data/raw/615c5d5d1768e12bba80f289_empathy_intonation_perc_2024-06-02_08h55.09.453.csv","brigan","pseudoword","0","0","1",0.6781,1,-0.388460509292341
"336",10,"/Users/kyleparrish/Documents/GitHub/l3_cognate_study_pilot/data/raw/615c5d5d1768e12bba80f289_empathy_intonation_perc_2024-06-02_08h55.09.453.csv","barezo","pseudoword","0","0","1",0.8266,1,-0.190434376904505
"337",10,"/Users/kyleparrish/Documents/GitHub/l3_cognate_study_pilot/data/raw/615c5d5d1768e12bba80f289_empathy_intonation_perc_2024-06-02_08h55.09.453.csv","debido","non_cognate","1","1","0",0.9939,1,-0.00611868100817718
"338",10,"/Users/kyleparrish/Documents/GitHub/l3_cognate_study_pilot/data/raw/615c5d5d1768e12bba80f289_empathy_intonation_perc_2024-06-02_08h55.09.453.csv","chip","three_way_cognate","1","1","0",0.9602,1,-0.040613682885297
"339",10,"/Users/kyleparrish/Documents/GitHub/l3_cognate_study_pilot/data/raw/615c5d5d1768e12bba80f289_empathy_intonation_perc_2024-06-02_08h55.09.453.csv","total","two_way_cognate","1","1","0",0.9472,1,-0.0542450148523958
"340",10,"/Users/kyleparrish/Documents/GitHub/l3_cognate_study_pilot/data/raw/615c5d5d1768e12bba80f289_empathy_intonation_perc_2024-06-02_08h55.09.453.csv","hilo","non_cognate","1","1","0",1.0789,1,0.0759420035751573
"341",10,"/Users/kyleparrish/Documents/GitHub/l3_cognate_study_pilot/data/raw/615c5d5d1768e12bba80f289_empathy_intonation_perc_2024-06-02_08h55.09.453.csv","honor","two_way_cognate","1","1","0",0.7713,1,-0.259677876042184
"342",10,"/Users/kyleparrish/Documents/GitHub/l3_cognate_study_pilot/data/raw/615c5d5d1768e12bba80f289_empathy_intonation_perc_2024-06-02_08h55.09.453.csv","pista","non_cognate","1","1","0",0.7577,1,-0.277467750044809
"343",10,"/Users/kyleparrish/Documents/GitHub/l3_cognate_study_pilot/data/raw/615c5d5d1768e12bba80f289_empathy_intonation_perc_2024-06-02_08h55.09.453.csv","bingo","three_way_cognate","1","1","0",1.8567,1,0.618800718431288
"344",10,"/Users/kyleparrish/Documents/GitHub/l3_cognate_study_pilot/data/raw/615c5d5d1768e12bba80f289_empathy_intonation_perc_2024-06-02_08h55.09.453.csv","debada","pseudoword","0","0","1",1.7861,1,0.580034471928301
"345",10,"/Users/kyleparrish/Documents/GitHub/l3_cognate_study_pilot/data/raw/615c5d5d1768e12bba80f289_empathy_intonation_perc_2024-06-02_08h55.09.453.csv","diebro","pseudoword","0","0","1",0.8003,1,-0.222768621609137
"346",10,"/Users/kyleparrish/Documents/GitHub/l3_cognate_study_pilot/data/raw/615c5d5d1768e12bba80f289_empathy_intonation_perc_2024-06-02_08h55.09.453.csv","coriar","pseudoword","0","0","1",0.9734,1,-0.0269601815827831
"347",10,"/Users/kyleparrish/Documents/GitHub/l3_cognate_study_pilot/data/raw/615c5d5d1768e12bba80f289_empathy_intonation_perc_2024-06-02_08h55.09.453.csv","suaja","pseudoword","0","0","1",0.8666,1,-0.143177769676328
"348",10,"/Users/kyleparrish/Documents/GitHub/l3_cognate_study_pilot/data/raw/615c5d5d1768e12bba80f289_empathy_intonation_perc_2024-06-02_08h55.09.453.csv","tango","three_way_cognate","1","1","0",0.7093,1,-0.343476710774096
"349",10,"/Users/kyleparrish/Documents/GitHub/l3_cognate_study_pilot/data/raw/615c5d5d1768e12bba80f289_empathy_intonation_perc_2024-06-02_08h55.09.453.csv","toges","pseudoword","0","0","1",0.7263,1,-0.319792126370015
"350",10,"/Users/kyleparrish/Documents/GitHub/l3_cognate_study_pilot/data/raw/615c5d5d1768e12bba80f289_empathy_intonation_perc_2024-06-02_08h55.09.453.csv","duyo","pseudoword","0","0","1",0.8489,1,-0.163813885238215
"351",10,"/Users/kyleparrish/Documents/GitHub/l3_cognate_study_pilot/data/raw/615c5d5d1768e12bba80f289_empathy_intonation_perc_2024-06-02_08h55.09.453.csv","limbo","three_way_cognate","1","1","0",0.9749,1,-0.0254203773469112
"352",10,"/Users/kyleparrish/Documents/GitHub/l3_cognate_study_pilot/data/raw/615c5d5d1768e12bba80f289_empathy_intonation_perc_2024-06-02_08h55.09.453.csv","delito","non_cognate","1","1","0",1.0318,1,0.0313048498284125
"353",10,"/Users/kyleparrish/Documents/GitHub/l3_cognate_study_pilot/data/raw/615c5d5d1768e12bba80f289_empathy_intonation_perc_2024-06-02_08h55.09.453.csv","caemal","pseudoword","0","0","1",1.2797,1,0.246625675461413
"354",10,"/Users/kyleparrish/Documents/GitHub/l3_cognate_study_pilot/data/raw/615c5d5d1768e12bba80f289_empathy_intonation_perc_2024-06-02_08h55.09.453.csv","hurmo","pseudoword","0","0","1",0.7953,1,-0.229035877019047
"355",10,"/Users/kyleparrish/Documents/GitHub/l3_cognate_study_pilot/data/raw/615c5d5d1768e12bba80f289_empathy_intonation_perc_2024-06-02_08h55.09.453.csv","calto","pseudoword","0","0","1",0.6954,1,-0.363268059408376
"356",10,"/Users/kyleparrish/Documents/GitHub/l3_cognate_study_pilot/data/raw/615c5d5d1768e12bba80f289_empathy_intonation_perc_2024-06-02_08h55.09.453.csv","visión","non_cognate","1","1","0",1.2628,1,0.2333314777017
"357",10,"/Users/kyleparrish/Documents/GitHub/l3_cognate_study_pilot/data/raw/615c5d5d1768e12bba80f289_empathy_intonation_perc_2024-06-02_08h55.09.453.csv","huzas","pseudoword","0","0","1",0.6765,1,-0.390822831371294
"358",10,"/Users/kyleparrish/Documents/GitHub/l3_cognate_study_pilot/data/raw/615c5d5d1768e12bba80f289_empathy_intonation_perc_2024-06-02_08h55.09.453.csv","alivio","non_cognate","1","1","0",1.335,1,0.288931291852213
"359",10,"/Users/kyleparrish/Documents/GitHub/l3_cognate_study_pilot/data/raw/615c5d5d1768e12bba80f289_empathy_intonation_perc_2024-06-02_08h55.09.453.csv","altimo","pseudoword","0","0","1",1.1725,1,0.159138221338297
"360",10,"/Users/kyleparrish/Documents/GitHub/l3_cognate_study_pilot/data/raw/615c5d5d1768e12bba80f289_empathy_intonation_perc_2024-06-02_08h55.09.453.csv","aljizo","pseudoword","0","0","1",0.8273,1,-0.189587892786
"361",10,"/Users/kyleparrish/Documents/GitHub/l3_cognate_study_pilot/data/raw/615c5d5d1768e12bba80f289_empathy_intonation_perc_2024-06-02_08h55.09.453.csv","sujo","pseudoword","0","0","1",1.4515,1,0.372597504482548
"362",10,"/Users/kyleparrish/Documents/GitHub/l3_cognate_study_pilot/data/raw/615c5d5d1768e12bba80f289_empathy_intonation_perc_2024-06-02_08h55.09.453.csv","bar","three_way_cognate","1","1","0",0.8264,1,-0.190676361176708
"363",10,"/Users/kyleparrish/Documents/GitHub/l3_cognate_study_pilot/data/raw/615c5d5d1768e12bba80f289_empathy_intonation_perc_2024-06-02_08h55.09.453.csv","cesta","non_cognate","1","1","0",1.709,1,0.535908404133454
"364",10,"/Users/kyleparrish/Documents/GitHub/l3_cognate_study_pilot/data/raw/615c5d5d1768e12bba80f289_empathy_intonation_perc_2024-06-02_08h55.09.453.csv","horror","three_way_cognate","1","1","0",1.9101,1,0.647155596708952
"365",10,"/Users/kyleparrish/Documents/GitHub/l3_cognate_study_pilot/data/raw/615c5d5d1768e12bba80f289_empathy_intonation_perc_2024-06-02_08h55.09.453.csv","pelado","non_cognate","1","1","0",1.141,1,0.131905070879939
"366",10,"/Users/kyleparrish/Documents/GitHub/l3_cognate_study_pilot/data/raw/615c5d5d1768e12bba80f289_empathy_intonation_perc_2024-06-02_08h55.09.453.csv","huella","non_cognate","1","1","0",0.8365,1,-0.178528758555258
"367",10,"/Users/kyleparrish/Documents/GitHub/l3_cognate_study_pilot/data/raw/615c5d5d1768e12bba80f289_empathy_intonation_perc_2024-06-02_08h55.09.453.csv","solar","three_way_cognate","1","1","0",0.7145,1,-0.336172281612215
"368",10,"/Users/kyleparrish/Documents/GitHub/l3_cognate_study_pilot/data/raw/615c5d5d1768e12bba80f289_empathy_intonation_perc_2024-06-02_08h55.09.453.csv","pasta","two_way_cognate","1","1","0",1.4078,1,0.342028202191894
"369",10,"/Users/kyleparrish/Documents/GitHub/l3_cognate_study_pilot/data/raw/615c5d5d1768e12bba80f289_empathy_intonation_perc_2024-06-02_08h55.09.453.csv","hento","pseudoword","0","0","1",0.7443,1,-0.295311099616272
"370",10,"/Users/kyleparrish/Documents/GitHub/l3_cognate_study_pilot/data/raw/615c5d5d1768e12bba80f289_empathy_intonation_perc_2024-06-02_08h55.09.453.csv","monsos","pseudoword","0","0","1",0.6264,1,-0.467766134305544
"371",10,"/Users/kyleparrish/Documents/GitHub/l3_cognate_study_pilot/data/raw/615c5d5d1768e12bba80f289_empathy_intonation_perc_2024-06-02_08h55.09.453.csv","meolar","pseudoword","0","0","1",0.5694,1,-0.5631721041382
"372",10,"/Users/kyleparrish/Documents/GitHub/l3_cognate_study_pilot/data/raw/615c5d5d1768e12bba80f289_empathy_intonation_perc_2024-06-02_08h55.09.453.csv","cuento","non_cognate","1","1","0",0.8412,1,-0.172925835153592
"373",10,"/Users/kyleparrish/Documents/GitHub/l3_cognate_study_pilot/data/raw/615c5d5d1768e12bba80f289_empathy_intonation_perc_2024-06-02_08h55.09.453.csv","llamar","non_cognate","1","1","0",0.9791,1,-0.0211214966221114
"374",12,"/Users/kyleparrish/Documents/GitHub/l3_cognate_study_pilot/data/raw/63d29a1e50cf0f82998d2564_empathy_intonation_perc_2024-06-03_09h39.16.297.csv","hento","pseudoword","0","0","1",1.1371,1,0.12848116164854
"375",12,"/Users/kyleparrish/Documents/GitHub/l3_cognate_study_pilot/data/raw/63d29a1e50cf0f82998d2564_empathy_intonation_perc_2024-06-03_09h39.16.297.csv","tango","three_way_cognate","1","1","0",0.7727,1,-0.257864404042599
"376",12,"/Users/kyleparrish/Documents/GitHub/l3_cognate_study_pilot/data/raw/63d29a1e50cf0f82998d2564_empathy_intonation_perc_2024-06-03_09h39.16.297.csv","cesta","non_cognate","1","1","0",0.6088,1,-0.496265472434661
"377",12,"/Users/kyleparrish/Documents/GitHub/l3_cognate_study_pilot/data/raw/63d29a1e50cf0f82998d2564_empathy_intonation_perc_2024-06-03_09h39.16.297.csv","clazas","pseudoword","0","0","1",1.0734,1,0.0708311807605913
"378",12,"/Users/kyleparrish/Documents/GitHub/l3_cognate_study_pilot/data/raw/63d29a1e50cf0f82998d2564_empathy_intonation_perc_2024-06-03_09h39.16.297.csv","chote","pseudoword","0","0","1",0.5356,1,-0.62436766516512
"379",12,"/Users/kyleparrish/Documents/GitHub/l3_cognate_study_pilot/data/raw/63d29a1e50cf0f82998d2564_empathy_intonation_perc_2024-06-03_09h39.16.297.csv","coriar","pseudoword","0","0","1",1.4073,1,0.341672975020385
"380",12,"/Users/kyleparrish/Documents/GitHub/l3_cognate_study_pilot/data/raw/63d29a1e50cf0f82998d2564_empathy_intonation_perc_2024-06-03_09h39.16.297.csv","mibro","pseudoword","0","0","1",1.3873,1,0.327359412104543
"381",12,"/Users/kyleparrish/Documents/GitHub/l3_cognate_study_pilot/data/raw/63d29a1e50cf0f82998d2564_empathy_intonation_perc_2024-06-03_09h39.16.297.csv","huella","non_cognate","1","1","0",1.3254,1,0.281714300671989
"382",12,"/Users/kyleparrish/Documents/GitHub/l3_cognate_study_pilot/data/raw/63d29a1e50cf0f82998d2564_empathy_intonation_perc_2024-06-03_09h39.16.297.csv","toges","pseudoword","0","0","1",0.485,1,-0.723606388044654
"383",12,"/Users/kyleparrish/Documents/GitHub/l3_cognate_study_pilot/data/raw/63d29a1e50cf0f82998d2564_empathy_intonation_perc_2024-06-03_09h39.16.297.csv","retina","three_way_cognate","1","1","0",1.893,1,0.638162872227186
"384",12,"/Users/kyleparrish/Documents/GitHub/l3_cognate_study_pilot/data/raw/63d29a1e50cf0f82998d2564_empathy_intonation_perc_2024-06-03_09h39.16.297.csv","hunten","pseudoword","0","0","1",0.6699,1,-0.400626831467915
"385",12,"/Users/kyleparrish/Documents/GitHub/l3_cognate_study_pilot/data/raw/63d29a1e50cf0f82998d2564_empathy_intonation_perc_2024-06-03_09h39.16.297.csv","bomos","pseudoword","0","0","1",1.8744,1,0.628288608211449
"386",12,"/Users/kyleparrish/Documents/GitHub/l3_cognate_study_pilot/data/raw/63d29a1e50cf0f82998d2564_empathy_intonation_perc_2024-06-03_09h39.16.297.csv","actor","two_way_cognate","1","1","0",1.13,1,0.122217632724249
"387",12,"/Users/kyleparrish/Documents/GitHub/l3_cognate_study_pilot/data/raw/63d29a1e50cf0f82998d2564_empathy_intonation_perc_2024-06-03_09h39.16.297.csv","chip","three_way_cognate","1","1","0",1.0403,1,0.0395091330947125
"388",12,"/Users/kyleparrish/Documents/GitHub/l3_cognate_study_pilot/data/raw/63d29a1e50cf0f82998d2564_empathy_intonation_perc_2024-06-03_09h39.16.297.csv","duyo","pseudoword","0","0","1",1.4407,1,0.36512910658529
"389",12,"/Users/kyleparrish/Documents/GitHub/l3_cognate_study_pilot/data/raw/63d29a1e50cf0f82998d2564_empathy_intonation_perc_2024-06-03_09h39.16.297.csv","jomas","pseudoword","0","0","1",1.5538,1,0.440703543534183
"390",12,"/Users/kyleparrish/Documents/GitHub/l3_cognate_study_pilot/data/raw/63d29a1e50cf0f82998d2564_empathy_intonation_perc_2024-06-03_09h39.16.297.csv","solar","three_way_cognate","1","1","0",0.601,1,-0.50916034444693
"391",12,"/Users/kyleparrish/Documents/GitHub/l3_cognate_study_pilot/data/raw/63d29a1e50cf0f82998d2564_empathy_intonation_perc_2024-06-03_09h39.16.297.csv","pasta","two_way_cognate","1","1","0",1.0834,1,0.0801042442416614
"392",12,"/Users/kyleparrish/Documents/GitHub/l3_cognate_study_pilot/data/raw/63d29a1e50cf0f82998d2564_empathy_intonation_perc_2024-06-03_09h39.16.297.csv","orida","pseudoword","0","0","1",0.7314,1,-0.312794773266856
"393",12,"/Users/kyleparrish/Documents/GitHub/l3_cognate_study_pilot/data/raw/63d29a1e50cf0f82998d2564_empathy_intonation_perc_2024-06-03_09h39.16.297.csv","racaer","pseudoword","0","0","1",0.9023,1,-0.102808219981682
"394",12,"/Users/kyleparrish/Documents/GitHub/l3_cognate_study_pilot/data/raw/63d29a1e50cf0f82998d2564_empathy_intonation_perc_2024-06-03_09h39.16.297.csv","fauna","three_way_cognate","1","1","0",0.9922,1,-0.00783057911518856
"395",12,"/Users/kyleparrish/Documents/GitHub/l3_cognate_study_pilot/data/raw/63d29a1e50cf0f82998d2564_empathy_intonation_perc_2024-06-03_09h39.16.297.csv","babrá","pseudoword","0","0","1",1.3506,1,0.300548938158605
"396",12,"/Users/kyleparrish/Documents/GitHub/l3_cognate_study_pilot/data/raw/63d29a1e50cf0f82998d2564_empathy_intonation_perc_2024-06-03_09h39.16.297.csv","alla","pseudoword","0","0","1",0.8183,1,-0.200526261448801
"397",12,"/Users/kyleparrish/Documents/GitHub/l3_cognate_study_pilot/data/raw/63d29a1e50cf0f82998d2564_empathy_intonation_perc_2024-06-03_09h39.16.297.csv","cumbre","non_cognate","1","1","0",0.4493,1,-0.800064462906023
"398",12,"/Users/kyleparrish/Documents/GitHub/l3_cognate_study_pilot/data/raw/63d29a1e50cf0f82998d2564_empathy_intonation_perc_2024-06-03_09h39.16.297.csv","animal","two_way_cognate","1","1","0",0.5589,1,-0.581784712706485
"399",12,"/Users/kyleparrish/Documents/GitHub/l3_cognate_study_pilot/data/raw/63d29a1e50cf0f82998d2564_empathy_intonation_perc_2024-06-03_09h39.16.297.csv","delito","non_cognate","1","1","0",0.9569,1,-0.0440563861969199
"400",12,"/Users/kyleparrish/Documents/GitHub/l3_cognate_study_pilot/data/raw/63d29a1e50cf0f82998d2564_empathy_intonation_perc_2024-06-03_09h39.16.297.csv","civil","two_way_cognate","1","1","0",0.562,1,-0.576253429088446
"401",12,"/Users/kyleparrish/Documents/GitHub/l3_cognate_study_pilot/data/raw/63d29a1e50cf0f82998d2564_empathy_intonation_perc_2024-06-03_09h39.16.297.csv","trenza","non_cognate","1","1","0",0.6997,1,-0.357103607230286
"402",12,"/Users/kyleparrish/Documents/GitHub/l3_cognate_study_pilot/data/raw/63d29a1e50cf0f82998d2564_empathy_intonation_perc_2024-06-03_09h39.16.297.csv","honor","two_way_cognate","1","1","0",0.5345,1,-0.626423548517037
"403",12,"/Users/kyleparrish/Documents/GitHub/l3_cognate_study_pilot/data/raw/63d29a1e50cf0f82998d2564_empathy_intonation_perc_2024-06-03_09h39.16.297.csv","mandio","pseudoword","0","0","1",0.6888,1,-0.372804325868616
"404",12,"/Users/kyleparrish/Documents/GitHub/l3_cognate_study_pilot/data/raw/63d29a1e50cf0f82998d2564_empathy_intonation_perc_2024-06-03_09h39.16.297.csv","caro","non_cognate","1","1","0",0.5546,1,-0.589508145800459
"405",12,"/Users/kyleparrish/Documents/GitHub/l3_cognate_study_pilot/data/raw/63d29a1e50cf0f82998d2564_empathy_intonation_perc_2024-06-03_09h39.16.297.csv","sauna","three_way_cognate","1","1","0",0.5865,1,-0.533582610888607
"406",12,"/Users/kyleparrish/Documents/GitHub/l3_cognate_study_pilot/data/raw/63d29a1e50cf0f82998d2564_empathy_intonation_perc_2024-06-03_09h39.16.297.csv","debada","pseudoword","0","0","1",1.1517,1,0.141239111692725
"407",12,"/Users/kyleparrish/Documents/GitHub/l3_cognate_study_pilot/data/raw/63d29a1e50cf0f82998d2564_empathy_intonation_perc_2024-06-03_09h39.16.297.csv","horror","three_way_cognate","1","1","0",0.6843,1,-0.379358861023685
"408",12,"/Users/kyleparrish/Documents/GitHub/l3_cognate_study_pilot/data/raw/63d29a1e50cf0f82998d2564_empathy_intonation_perc_2024-06-03_09h39.16.297.csv","ropis","pseudoword","0","0","1",0.6828,1,-0.381553288061852
"409",12,"/Users/kyleparrish/Documents/GitHub/l3_cognate_study_pilot/data/raw/63d29a1e50cf0f82998d2564_empathy_intonation_perc_2024-06-03_09h39.16.297.csv","altimo","pseudoword","0","0","1",0.4721,1,-0.750564451429896
"410",12,"/Users/kyleparrish/Documents/GitHub/l3_cognate_study_pilot/data/raw/63d29a1e50cf0f82998d2564_empathy_intonation_perc_2024-06-03_09h39.16.297.csv","monsos","pseudoword","0","0","1",0.4788,1,-0.736472305298319
"411",12,"/Users/kyleparrish/Documents/GitHub/l3_cognate_study_pilot/data/raw/63d29a1e50cf0f82998d2564_empathy_intonation_perc_2024-06-03_09h39.16.297.csv","nasce","pseudoword","0","0","1",1.0233,1,0.0230326991105728
"412",12,"/Users/kyleparrish/Documents/GitHub/l3_cognate_study_pilot/data/raw/63d29a1e50cf0f82998d2564_empathy_intonation_perc_2024-06-03_09h39.16.297.csv","brigan","pseudoword","0","0","1",0.5518,1,-0.594569617198951
"413",12,"/Users/kyleparrish/Documents/GitHub/l3_cognate_study_pilot/data/raw/63d29a1e50cf0f82998d2564_empathy_intonation_perc_2024-06-03_09h39.16.297.csv","caemal","pseudoword","0","0","1",0.743,1,-0.297059234264378
"414",12,"/Users/kyleparrish/Documents/GitHub/l3_cognate_study_pilot/data/raw/63d29a1e50cf0f82998d2564_empathy_intonation_perc_2024-06-03_09h39.16.297.csv","clamor","two_way_cognate","1","1","0",0.7033,1,-0.351971735668164
"415",12,"/Users/kyleparrish/Documents/GitHub/l3_cognate_study_pilot/data/raw/63d29a1e50cf0f82998d2564_empathy_intonation_perc_2024-06-03_09h39.16.297.csv","suelet","pseudoword","0","0","1",0.6073,1,-0.498732376078607
"416",12,"/Users/kyleparrish/Documents/GitHub/l3_cognate_study_pilot/data/raw/63d29a1e50cf0f82998d2564_empathy_intonation_perc_2024-06-03_09h39.16.297.csv","hilo","non_cognate","1","1","0",0.6412,1,-0.444413858246739
"417",12,"/Users/kyleparrish/Documents/GitHub/l3_cognate_study_pilot/data/raw/63d29a1e50cf0f82998d2564_empathy_intonation_perc_2024-06-03_09h39.16.297.csv","salto","non_cognate","1","1","0",0.7844,1,-0.242836184659946
"418",12,"/Users/kyleparrish/Documents/GitHub/l3_cognate_study_pilot/data/raw/63d29a1e50cf0f82998d2564_empathy_intonation_perc_2024-06-03_09h39.16.297.csv","taza","non_cognate","1","1","0",0.5715,1,-0.559490795747272
"419",12,"/Users/kyleparrish/Documents/GitHub/l3_cognate_study_pilot/data/raw/63d29a1e50cf0f82998d2564_empathy_intonation_perc_2024-06-03_09h39.16.297.csv","aljizo","pseudoword","0","0","1",0.3691,1,-0.996687668946184
"420",12,"/Users/kyleparrish/Documents/GitHub/l3_cognate_study_pilot/data/raw/63d29a1e50cf0f82998d2564_empathy_intonation_perc_2024-06-03_09h39.16.297.csv","campo","non_cognate","1","1","0",0.9529,1,-0.0482453126279945
"421",12,"/Users/kyleparrish/Documents/GitHub/l3_cognate_study_pilot/data/raw/63d29a1e50cf0f82998d2564_empathy_intonation_perc_2024-06-03_09h39.16.297.csv","viga","non_cognate","1","1","0",0.5017,1,-0.68975294749193
"422",12,"/Users/kyleparrish/Documents/GitHub/l3_cognate_study_pilot/data/raw/63d29a1e50cf0f82998d2564_empathy_intonation_perc_2024-06-03_09h39.16.297.csv","suaja","pseudoword","0","0","1",0.4148,1,-0.879958802626765
"423",12,"/Users/kyleparrish/Documents/GitHub/l3_cognate_study_pilot/data/raw/63d29a1e50cf0f82998d2564_empathy_intonation_perc_2024-06-03_09h39.16.297.csv","bar","three_way_cognate","1","1","0",0.4679,1,-0.759500681109966
"424",12,"/Users/kyleparrish/Documents/GitHub/l3_cognate_study_pilot/data/raw/63d29a1e50cf0f82998d2564_empathy_intonation_perc_2024-06-03_09h39.16.297.csv","calto","pseudoword","0","0","1",1.0382,1,0.0374884444109916
"425",12,"/Users/kyleparrish/Documents/GitHub/l3_cognate_study_pilot/data/raw/63d29a1e50cf0f82998d2564_empathy_intonation_perc_2024-06-03_09h39.16.297.csv","alzán","pseudoword","0","0","1",1.3808,1,0.322663041347026
"426",12,"/Users/kyleparrish/Documents/GitHub/l3_cognate_study_pilot/data/raw/63d29a1e50cf0f82998d2564_empathy_intonation_perc_2024-06-03_09h39.16.297.csv","tandir","pseudoword","0","0","1",1.1542,1,0.143407463294729
"427",12,"/Users/kyleparrish/Documents/GitHub/l3_cognate_study_pilot/data/raw/63d29a1e50cf0f82998d2564_empathy_intonation_perc_2024-06-03_09h39.16.297.csv","huzas","pseudoword","0","0","1",0.9227,1,-0.080451124397627
"428",12,"/Users/kyleparrish/Documents/GitHub/l3_cognate_study_pilot/data/raw/63d29a1e50cf0f82998d2564_empathy_intonation_perc_2024-06-03_09h39.16.297.csv","bingo","three_way_cognate","1","1","0",0.6891,1,-0.372368880618975
"429",12,"/Users/kyleparrish/Documents/GitHub/l3_cognate_study_pilot/data/raw/63d29a1e50cf0f82998d2564_empathy_intonation_perc_2024-06-03_09h39.16.297.csv","llamar","non_cognate","1","1","0",0.6883,1,-0.373530489577819
"430",12,"/Users/kyleparrish/Documents/GitHub/l3_cognate_study_pilot/data/raw/63d29a1e50cf0f82998d2564_empathy_intonation_perc_2024-06-03_09h39.16.297.csv","limbo","three_way_cognate","1","1","0",0.758,1,-0.277071893339765
"431",12,"/Users/kyleparrish/Documents/GitHub/l3_cognate_study_pilot/data/raw/63d29a1e50cf0f82998d2564_empathy_intonation_perc_2024-06-03_09h39.16.297.csv","torso","three_way_cognate","1","1","0",0.6333,1,-0.456811035459752
"432",13,"/Users/kyleparrish/Documents/GitHub/l3_cognate_study_pilot/data/raw/63ebb22fae90027a0e121582_empathy_intonation_perc_2024-06-03_08h40.12.890.csv","clamor","two_way_cognate","1","1","0",1.1847,1,0.169489577978576
"433",13,"/Users/kyleparrish/Documents/GitHub/l3_cognate_study_pilot/data/raw/63ebb22fae90027a0e121582_empathy_intonation_perc_2024-06-03_08h40.12.890.csv","llamar","non_cognate","1","1","0",0.8397,1,-0.17471059379262
"434",13,"/Users/kyleparrish/Documents/GitHub/l3_cognate_study_pilot/data/raw/63ebb22fae90027a0e121582_empathy_intonation_perc_2024-06-03_08h40.12.890.csv","vemua","pseudoword","0","0","1",1.5443,1,0.434570733246818
"435",13,"/Users/kyleparrish/Documents/GitHub/l3_cognate_study_pilot/data/raw/63ebb22fae90027a0e121582_empathy_intonation_perc_2024-06-03_08h40.12.890.csv","torso","three_way_cognate","1","1","0",0.8503,1,-0.16216605059039
"436",13,"/Users/kyleparrish/Documents/GitHub/l3_cognate_study_pilot/data/raw/63ebb22fae90027a0e121582_empathy_intonation_perc_2024-06-03_08h40.12.890.csv","alivio","non_cognate","1","1","0",1.5391,1,0.431197830003771
"437",13,"/Users/kyleparrish/Documents/GitHub/l3_cognate_study_pilot/data/raw/63ebb22fae90027a0e121582_empathy_intonation_perc_2024-06-03_08h40.12.890.csv","hunten","pseudoword","0","0","1",1.1634,1,0.151346752494524
"438",13,"/Users/kyleparrish/Documents/GitHub/l3_cognate_study_pilot/data/raw/63ebb22fae90027a0e121582_empathy_intonation_perc_2024-06-03_08h40.12.890.csv","hento","pseudoword","0","0","1",1.7121,1,0.537720687228635
"439",13,"/Users/kyleparrish/Documents/GitHub/l3_cognate_study_pilot/data/raw/63ebb22fae90027a0e121582_empathy_intonation_perc_2024-06-03_08h40.12.890.csv","limbo","three_way_cognate","1","1","0",1.5797,1,0.457234955592914
"440",13,"/Users/kyleparrish/Documents/GitHub/l3_cognate_study_pilot/data/raw/63ebb22fae90027a0e121582_empathy_intonation_perc_2024-06-03_08h40.12.890.csv","orida","pseudoword","0","0","1",1.9685,1,0.677271831401655
"441",13,"/Users/kyleparrish/Documents/GitHub/l3_cognate_study_pilot/data/raw/63ebb22fae90027a0e121582_empathy_intonation_perc_2024-06-03_08h40.12.890.csv","rombar","pseudoword","0","0","1",1.6985,1,0.529745508618501
"442",13,"/Users/kyleparrish/Documents/GitHub/l3_cognate_study_pilot/data/raw/63ebb22fae90027a0e121582_empathy_intonation_perc_2024-06-03_08h40.12.890.csv","editor","two_way_cognate","1","1","0",1.4206,1,0.351079317581573
"443",13,"/Users/kyleparrish/Documents/GitHub/l3_cognate_study_pilot/data/raw/63ebb22fae90027a0e121582_empathy_intonation_perc_2024-06-03_08h40.12.890.csv","abunal","pseudoword","0","0","1",1.563,1,0.44660705143934
"444",13,"/Users/kyleparrish/Documents/GitHub/l3_cognate_study_pilot/data/raw/63ebb22fae90027a0e121582_empathy_intonation_perc_2024-06-03_08h40.12.890.csv","caemal","pseudoword","0","0","1",0.9048,1,-0.100041354180226
"445",13,"/Users/kyleparrish/Documents/GitHub/l3_cognate_study_pilot/data/raw/63ebb22fae90027a0e121582_empathy_intonation_perc_2024-06-03_08h40.12.890.csv","pasta","two_way_cognate","1","1","0",0.7147,1,-0.335892404756204
"446",13,"/Users/kyleparrish/Documents/GitHub/l3_cognate_study_pilot/data/raw/63ebb22fae90027a0e121582_empathy_intonation_perc_2024-06-03_08h40.12.890.csv","fauna","three_way_cognate","1","1","0",1.3196,1,0.277328660372289
"447",13,"/Users/kyleparrish/Documents/GitHub/l3_cognate_study_pilot/data/raw/63ebb22fae90027a0e121582_empathy_intonation_perc_2024-06-03_08h40.12.890.csv","barbo","pseudoword","0","0","1",1.254,1,0.226338442210729
"448",13,"/Users/kyleparrish/Documents/GitHub/l3_cognate_study_pilot/data/raw/63ebb22fae90027a0e121582_empathy_intonation_perc_2024-06-03_08h40.12.890.csv","pájaro","non_cognate","1","1","0",1.5331,1,0.427291829334271
"449",13,"/Users/kyleparrish/Documents/GitHub/l3_cognate_study_pilot/data/raw/63ebb22fae90027a0e121582_empathy_intonation_perc_2024-06-03_08h40.12.890.csv","chip","three_way_cognate","1","1","0",1.8019,1,0.588841663750632
"450",13,"/Users/kyleparrish/Documents/GitHub/l3_cognate_study_pilot/data/raw/63ebb22fae90027a0e121582_empathy_intonation_perc_2024-06-03_08h40.12.890.csv","diguán","pseudoword","0","0","1",1.4485,1,0.370528538227268
"451",13,"/Users/kyleparrish/Documents/GitHub/l3_cognate_study_pilot/data/raw/63ebb22fae90027a0e121582_empathy_intonation_perc_2024-06-03_08h40.12.890.csv","retina","three_way_cognate","1","1","0",1.1588,1,0.147384986913058
"452",13,"/Users/kyleparrish/Documents/GitHub/l3_cognate_study_pilot/data/raw/63ebb22fae90027a0e121582_empathy_intonation_perc_2024-06-03_08h40.12.890.csv","monsos","pseudoword","0","0","1",1.2568,1,0.228568807959274
"453",13,"/Users/kyleparrish/Documents/GitHub/l3_cognate_study_pilot/data/raw/63ebb22fae90027a0e121582_empathy_intonation_perc_2024-06-03_08h40.12.890.csv","babrá","pseudoword","0","0","1",1.1067,1,0.101382614288603
"454",13,"/Users/kyleparrish/Documents/GitHub/l3_cognate_study_pilot/data/raw/63ebb22fae90027a0e121582_empathy_intonation_perc_2024-06-03_08h40.12.890.csv","brigan","pseudoword","0","0","1",0.8768,1,-0.131476362788386
"455",13,"/Users/kyleparrish/Documents/GitHub/l3_cognate_study_pilot/data/raw/63ebb22fae90027a0e121582_empathy_intonation_perc_2024-06-03_08h40.12.890.csv","total","two_way_cognate","1","1","0",1.1475,1,0.137585662952563
"456",13,"/Users/kyleparrish/Documents/GitHub/l3_cognate_study_pilot/data/raw/63ebb22fae90027a0e121582_empathy_intonation_perc_2024-06-03_08h40.12.890.csv","animal","two_way_cognate","1","1","0",0.8564,1,-0.155017722266609
"457",13,"/Users/kyleparrish/Documents/GitHub/l3_cognate_study_pilot/data/raw/63ebb22fae90027a0e121582_empathy_intonation_perc_2024-06-03_08h40.12.890.csv","meolar","pseudoword","0","0","1",1.0156,1,0.0154795708483864
"458",13,"/Users/kyleparrish/Documents/GitHub/l3_cognate_study_pilot/data/raw/63ebb22fae90027a0e121582_empathy_intonation_perc_2024-06-03_08h40.12.890.csv","enigma","two_way_cognate","1","1","0",1.1435,1,0.134093734480699
