"","ppt","word","type","correct_reponse","key_resp_lextale_trial.keys","key_resp_lextale_trial.corr","key_resp_lextale_trial.rt","is_correct","log_rt"
"1","sl3_01","panté","pseudoword","0","0","1",0.91,1,-0.0943106794712413
"2","sl3_01","tapón","non_cognate","1","1","0",1.684,1,0.521171915820135
"3","sl3_01","ozoso","pseudoword","0","0","1",1.153,1,0.142367241286922
"4","sl3_01","anfia","pseudoword","0","0","1",0.719,1,-0.32989392126109
"5","sl3_01","tradía","pseudoword","0","0","1",1.633,1,0.490418813988328
"6","sl3_01","olzan","pseudoword","0","0","1",1.032,1,0.031498667059371
"7","sl3_01","dogue","pseudoword","0","0","1",1.197,1,0.179818426575836
"8","sl3_01","plan","three_way_cognate","1","1","0",1.534,1,0.427878702945064
"9","sl3_01","moral","three_way_cognate","1","1","0",0.916,1,-0.0877389143080067
"10","sl3_01","gió","pseudoword","0","0","1",1,1,0
"11","sl3_01","aura","three_way_cognate","1","1","0",1.267,1,0.236651901339002
"12","sl3_01","harvé","pseudoword","0","0","1",0.884,1,-0.123298216344494
"13","sl3_01","densó","pseudoword","0","0","1",1.171,1,0.15785808461558
"14","sl3_01","cricó","pseudoword","0","0","1",1.137,1,0.128393214768399
"15","sl3_01","torta","non_cognate","1","1","0",0.952,1,-0.0491902441907718
"16","sl3_01","enorme","non_cognate","1","1","0",0.788,1,-0.238257189124258
"17","sl3_01","aviso","non_cognate","1","1","0",0.823,1,-0.194799078305067
"18","sl3_01","jauda","pseudoword","0","0","1",0.935,1,-0.06720874969345
"19","sl3_01","maldad","non_cognate","1","1","0",0.792,1,-0.233193887167711
"20","sl3_01","equipo","non_cognate","1","1","0",0.698,1,-0.359536176219765
"21","sl3_01","entodo","pseudoword","0","0","1",0.908,1,-0.0965109003808437
"22","sl3_01","fuar","pseudoword","0","0","1",1.134,1,0.12575120530556
"23","sl3_01","listo","non_cognate","1","1","0",0.732,1,-0.311974765020825
"24","sl3_01","altar","three_way_cognate","1","1","0",1.47,1,0.385262400790645
"25","sl3_01","chote","pseudoword","0","0","1",0.755,1,-0.281037529733112
"26","sl3_01","hueas","pseudoword","0","0","1",0.936,1,-0.066139802504545
"27","sl3_01","prave","pseudoword","0","0","1",0.756,1,-0.279713902802604
"28","sl3_01","total","two_way_cognate","1","1","0",0.655,1,-0.423120043346885
"29","sl3_01","emén","pseudoword","0","0","1",0.831,1,-0.185125484126689
"30","sl3_01","diabo","pseudoword","0","0","1",1.065,1,0.0629747991613884
"31","sl3_01","kilo","three_way_cognate","1","1","0",0.832,1,-0.183922838160928
"32","sl3_01","arane","pseudoword","0","0","1",0.765,1,-0.267879445155601
"33","sl3_01","dubo","pseudoword","0","0","1",0.84,1,-0.174353387144778
"34","sl3_01","trugo","pseudoword","0","0","1",0.753,1,-0.283690051182243
"35","sl3_01","pegar","non_cognate","1","1","0",1.23,1,0.207014169384326
"36","sl3_01","grigir","pseudoword","0","0","1",0.821,1,-0.197232169529709
"37","sl3_01","collar","two_way_cognate","1","1","0",1.136,1,0.12751332029896
"38","sl3_01","guerra","non_cognate","1","1","0",0.875,1,-0.133531392624523
"39","sl3_01","punta","non_cognate","1","1","0",1.133,1,0.124868982045869
"40","sl3_01","sacar","non_cognate","1","1","0",0.882,1,-0.125563222975346
"41","sl3_01","samón","pseudoword","0","0","1",0.865,1,-0.145025772050258
"42","sl3_01","llevar","non_cognate","1","1","0",1.036,1,0.0353671438372913
"43","sl3_01","vinzó","pseudoword","0","0","1",0.584,1,-0.53785429615391
"44","sl3_01","diroco","pseudoword","0","0","1",0.999,1,-0.00100050033358353
"45","sl3_01","seled","pseudoword","0","0","1",1.067,1,0.0648509723196163
"46","sl3_01","cengo","pseudoword","0","0","1",0.884,1,-0.123298216344494
"47","sl3_01","suelo","non_cognate","1","1","0",0.733,1,-0.310609577095486
"48","sl3_01","suelet","pseudoword","0","0","1",0.831,1,-0.185125484126689
"49","sl3_01","editor","two_way_cognate","1","1","0",0.726,1,-0.320205264157341
"50","sl3_01","dobbo","pseudoword","0","0","1",0.743,1,-0.297059234264378
"51","sl3_01","mafia","three_way_cognate","1","1","0",0.681,1,-0.384192972832625
"52","sl3_01","tobre","pseudoword","0","0","1",0.669,1,-0.401971218853909
"53","sl3_01","ánimo","non_cognate","1","1","0",1.382,1,0.323531725345478
"54","sl3_01","leniz","pseudoword","0","0","1",0.647,1,-0.435408984481236
"55","sl3_01","huenos","pseudoword","0","0","1",0.915,1,-0.0888312137066157
"56","sl3_01","rizate","pseudoword","0","0","1",0.784,1,-0.243346258631729
"57","sl3_01","estulo","pseudoword","0","0","1",0.734,1,-0.309246250367621
"58","sl3_01","vien","pseudoword","0","0","1",0.702,1,-0.353821874956326
"59","sl3_01","civas","pseudoword","0","0","1",0.681,1,-0.384192972832625
"60","sl3_01","patada","non_cognate","1","1","0",1.115,1,0.108854404912082
"61","sl3_01","bará","pseudoword","0","0","1",0.601,1,-0.50916034444693
"62","sl3_01","portal","three_way_cognate","1","1","0",0.918,1,-0.0855578883616465
"63","sl3_01","civil","two_way_cognate","1","1","0",1.041,1,0.0401817896328318
"64","sl3_01","tator","pseudoword","0","0","1",1.031,1,0.0305292050348228
"65","sl3_01","regalo","non_cognate","1","1","0",0.834,1,-0.18152187662339
"66","sl3_01","albino","three_way_cognate","1","1","0",1.115,1,0.108854404912082
"67","sl3_01","pasta","two_way_cognate","1","1","0",0.691,1,-0.369615455214467
"68","sl3_01","prías","pseudoword","0","0","1",0.706,1,-0.348140041488895
"69","sl3_01","cobén","pseudoword","0","0","1",0.682,1,-0.382725621138675
"70","sl3_01","animal","two_way_cognate","1","1","0",0.887,1,-0.119910296672558
"71","sl3_01","boñaz","pseudoword","0","0","1",1.392,1,0.330741561912228
"72","sl3_01","pitis","pseudoword","0","0","1",1.121,1,0.114221144090023
"73","sl3_01","nocó","pseudoword","0","0","1",0.921,1,-0.0822952427268302
"74","sl3_01","siglo","non_cognate","1","1","0",1.1,1,0.0953101798043249
"75","sl3_01","diebro","pseudoword","0","0","1",0.725,1,-0.321583624127462
"76","sl3_01","parre","pseudoword","0","0","1",0.717,1,-0.332679438382517
"77","sl3_01","suave","non_cognate","1","1","0",0.815,1,-0.204567165741274
"78","sl3_01","llamar","non_cognate","1","1","0",0.666,1,-0.406465608441748
"79","sl3_01","colcha","non_cognate","1","1","0",1.198,1,0.180653499693258
"80","sl3_01","chocar","non_cognate","1","1","0",1.101,1,0.0962188577405429
"81","sl3_01","vueras","pseudoword","0","0","1",0.814,1,-0.205794912979597
"82","sl3_01","laras","pseudoword","0","0","1",0.826,1,-0.191160505461159
"83","sl3_01","medium","pseudoword","0","0","1",1.017,1,0.0168571170664228
"84","sl3_01","pupica","pseudoword","0","0","1",1.664,1,0.509224342399017
"85","sl3_01","dibrea","pseudoword","0","0","1",1.578,1,0.456158222423683
"86","sl3_01","piano","two_way_cognate","1","1","0",0.819,1,-0.199671195129068
"87","sl3_01","nocita","pseudoword","0","0","1",0.748,1,-0.29035230100766
"88","sl3_01","losco","pseudoword","0","0","1",0.792,1,-0.233193887167711
"89","sl3_01","bugor","pseudoword","0","0","1",0.867,1,-0.142716302201595
"90","sl3_01","plago","pseudoword","0","0","1",0.62,1,-0.478035800943
"91","sl3_01","tumor","three_way_cognate","1","1","0",0.93,1,-0.0725706928348354
"92","sl3_01","actor","two_way_cognate","1","1","0",1.018,1,0.017839918128331
"93","sl3_01","trcia","pseudoword","0","0","1",0.773,1,-0.257476230394715
"94","sl3_01","gotro","pseudoword","0","0","1",0.733,1,-0.310609577095486
"95","sl3_01","gino","pseudoword","0","0","1",0.923,1,-0.0801260444792849
"96","sl3_01","desaro","pseudoword","0","0","1",0.735,1,-0.3078847797693
"97","sl3_01","trauma","three_way_cognate","1","1","0",0.804,1,-0.218156009803171
"98","sl3_01","frasis","pseudoword","0","0","1",0.9,1,-0.105360515657826
"99","sl3_01","rizado","non_cognate","1","1","0",1.474,1,0.387979793767145
"100","sl3_01","tecia","pseudoword","0","0","1",1.288,1,0.253090627682162
"101","sl3_01","kugis","pseudoword","0","0","1",0.888,1,-0.118783535989967
"102","sl3_01","esís","pseudoword","0","0","1",0.934,1,-0.0682788407532944
"103","sl3_01","pico","non_cognate","1","1","0",1.822,1,0.599934798837767
"104","sl3_01","próces","pseudoword","0","0","1",0.887,1,-0.119910296672558
"105","sl3_01","hilo","non_cognate","1","1","0",0.898,1,-0.107585210679937
"106","sl3_01","color","two_way_cognate","1","1","0",0.548,1,-0.601479992034121
"107","sl3_01","épinas","pseudoword","0","0","1",1.815,1,0.596085467716814
"108","sl3_01","disco","three_way_cognate","1","1","0",1.496,1,0.402794879552285
"109","sl3_01","muñeca","non_cognate","1","1","0",0.924,1,-0.0790432073404529
"110","sl3_01","aljizo","pseudoword","0","0","1",0.707,1,-0.346724613085564
"111","sl3_01","hurcos","pseudoword","0","0","1",0.885,1,-0.122167633974208
"112","sl3_01","sierra","non_cognate","1","1","0",1.82,1,0.598836501088704
"113","sl3_01","edioso","pseudoword","0","0","1",1.257,1,0.22872792960811
"114","sl3_01","rúo","pseudoword","0","0","1",0.753,1,-0.283690051182243
"115","sl3_01","brillo","non_cognate","1","1","0",0.914,1,-0.089924707527987
"116","sl3_01","drama","three_way_cognate","1","1","0",1.493,1,0.400787518557053
"117","sl3_01","mango","three_way_cognate","1","1","0",1.131,1,0.123102197133983
"118","sl3_01","inichó","pseudoword","0","0","1",0.767,1,-0.265268477614881
"119","sl3_01","listo","non_cognate","1","1","0",0.666,1,-0.406465608441748
"120","sl3_01","martir","pseudoword","0","0","1",1.249,1,0.222343231143441
"121","sl3_01","mauja","pseudoword","0","0","1",0.625,1,-0.470003629245736
"122","sl3_01","monue","pseudoword","0","0","1",0.678,1,-0.388607991041741
"123","sl3_01","asumie","pseudoword","0","0","1",1.231,1,0.207826847202317
"124","sl3_01","nasce","pseudoword","0","0","1",0.731,1,-0.313341819232359
"125","sl3_01","caro","non_cognate","1","1","0",0.851,1,-0.161343150408763
"126","sl3_01","vigor","two_way_cognate","1","1","0",1.741,1,0.554459660786052
"127","sl3_01","barbs","pseudoword","0","0","1",0.794,1,-0.230671817735001
"128","sl3_01","ceme","pseudoword","0","0","1",0.702,1,-0.353821874956326
"129","sl3_01","feo","non_cognate","1","1","0",1.069,1,0.0667236320429081
"130","sl3_01","horror","three_way_cognate","1","1","0",1.183,1,0.16805358499625
"131","sl3_01","lidena","pseudoword","0","0","1",0.948,1,-0.0534007767271153
"132","sl3_01","plural","three_way_cognate","1","1","0",0.833,1,-0.182721636815294
"133","sl3_01","tapa","non_cognate","1","1","0",0.92,1,-0.083381608939051
"134","sl3_01","pabea","pseudoword","0","0","1",0.731,1,-0.313341819232359
"135","sl3_01","molor","pseudoword","0","0","1",0.806,1,-0.215671536475509
"136","sl3_01","puñal","non_cognate","1","1","0",1.398,1,0.335042643811618
"137","sl3_01","nomata","pseudoword","0","0","1",1.032,1,0.031498667059371
"138","sl3_01","mibro","pseudoword","0","0","1",0.643,1,-0.441610554744518
"139","sl3_02","pupica","pseudoword","0","0","1",0.792,1,-0.233193887167711
"140","sl3_02","dobbo","pseudoword","0","0","1",0.658,1,-0.41855034765682
"141","sl3_02","vueras","pseudoword","0","0","1",0.898,1,-0.107585210679937
"142","sl3_02","pegar","non_cognate","1","1","0",0.696,1,-0.362405618647717
"143","sl3_02","extra","three_way_cognate","1","1","0",0.864,1,-0.146182510178081
"144","sl3_02","aurora","two_way_cognate","1","1","0",0.664,1,-0.409473129505703
"145","sl3_02","equipo","non_cognate","1","1","0",0.566,1,-0.569161200778954
"146","sl3_02","suave","non_cognate","1","1","0",0.667,1,-0.404965233066513
"147","sl3_02","rúo","pseudoword","0","0","1",0.631,1,-0.460449416440924
"148","sl3_02","cobén","pseudoword","0","0","1",0.678,1,-0.388607991041741
"149","sl3_02","lidena","pseudoword","0","0","1",0.711,1,-0.341082849178896
"150","sl3_02","panté","pseudoword","0","0","1",0.703,1,-0.352398387171472
"151","sl3_02","mango","three_way_cognate","1","1","0",0.598,1,-0.514164525031505
"152","sl3_02","rumor","two_way_cognate","1","1","0",0.804,1,-0.218156009803171
"153","sl3_02","suelo","non_cognate","1","1","0",0.565,1,-0.570929547835696
"154","sl3_02","llamar","non_cognate","1","1","0",0.562,1,-0.576253429088446
"155","sl3_02","tobre","pseudoword","0","0","1",0.862,1,-0.148500008318444
"156","sl3_02","horror","three_way_cognate","1","1","0",0.627,1,-0.466808738349216
"157","sl3_02","trauma","three_way_cognate","1","1","0",0.631,1,-0.460449416440924
"158","sl3_02","lobe","pseudoword","0","0","1",0.7,1,-0.356674943938732
"159","sl3_02","animal","two_way_cognate","1","1","0",0.533,1,-0.629233854816292
"160","sl3_02","plan","three_way_cognate","1","1","0",0.665,1,-0.407968238326283
"161","sl3_02","asumie","pseudoword","0","0","1",0.73,1,-0.3147107448397
"162","sl3_02","gino","pseudoword","0","0","1",0.73,1,-0.3147107448397
"163","sl3_02","flecha","non_cognate","1","1","0",0.764,1,-0.269187489815617
"164","sl3_02","gió","pseudoword","0","0","1",0.665,1,-0.407968238326283
"165","sl3_02","pico","non_cognate","1","1","0",0.629,1,-0.463624022281697
"166","sl3_02","colcha","non_cognate","1","1","0",0.797,1,-0.226900600191922
"167","sl3_02","estulo","pseudoword","0","0","1",0.765,1,-0.267879445155601
"168","sl3_02","jauda","pseudoword","0","0","1",0.732,1,-0.311974765020825
"169","sl3_02","vien","pseudoword","0","0","1",0.767,1,-0.265268477614881
"170","sl3_02","rostro","non_cognate","1","1","0",1.363,1,0.309688152714396
"171","sl3_02","ceme","pseudoword","0","0","1",0.664,1,-0.409473129505703
"172","sl3_02","altar","three_way_cognate","1","1","0",0.767,1,-0.265268477614881
"173","sl3_02","vinzó","pseudoword","0","0","1",0.764,1,-0.269187489815617
"174","sl3_02","plural","three_way_cognate","1","1","0",0.694,1,-0.365283318475333
"175","sl3_02","virios","pseudoword","0","0","1",0.797,1,-0.226900600191922
"176","sl3_02","seled","pseudoword","0","0","1",0.734,1,-0.309246250367621
"177","sl3_02","bugor","pseudoword","0","0","1",0.733,1,-0.310609577095486
"178","sl3_02","moral","three_way_cognate","1","1","0",0.631,1,-0.460449416440924
"179","sl3_02","hilo","non_cognate","1","1","0",0.727,1,-0.318828801448618
"180","sl3_02","entodo","pseudoword","0","0","1",0.729,1,-0.316081546973479
"181","sl3_02","kugis","pseudoword","0","0","1",0.729,1,-0.316081546973479
"182","sl3_02","fomeó","pseudoword","0","0","1",0.66,1,-0.415515443961666
"183","sl3_02","diebro","pseudoword","0","0","1",0.571,1,-0.560366069326127
"184","sl3_02","maldad","non_cognate","1","1","0",0.995,1,-0.00501254182354429
"185","sl3_02","clan","three_way_cognate","1","1","0",0.897,1,-0.108699416923341
"186","sl3_02","total","two_way_cognate","1","1","0",0.665,1,-0.407968238326283
"187","sl3_02","sierra","non_cognate","1","1","0",0.597,1,-0.515838165589535
"188","sl3_02","civas","pseudoword","0","0","1",1.298,1,0.260824618281898
"189","sl3_02","piano","two_way_cognate","1","1","0",0.607,1,-0.499226487922639
"190","sl3_02","inichó","pseudoword","0","0","1",1.23,1,0.207014169384326
"191","sl3_02","fiscal","two_way_cognate","1","1","0",0.661,1,-0.414001439130451
"192","sl3_02","kilo","three_way_cognate","1","1","0",0.7,1,-0.356674943938732
"193","sl3_02","hotel","three_way_cognate","1","1","0",0.594,1,-0.520875959619492
"194","sl3_02","dibrea","pseudoword","0","0","1",0.833,1,-0.182721636815294
"195","sl3_02","trugo","pseudoword","0","0","1",0.699,1,-0.358104536748327
"196","sl3_02","albino","three_way_cognate","1","1","0",0.762,1,-0.271808723295491
"197","sl3_02","mauja","pseudoword","0","0","1",0.86,1,-0.150822889734584
"198","sl3_02","leniz","pseudoword","0","0","1",0.663,1,-0.410980288796275
"199","sl3_02","enorme","non_cognate","1","1","0",0.796,1,-0.228156093137754
"200","sl3_02","collar","two_way_cognate","1","1","0",0.831,1,-0.185125484126689
"201","sl3_02","pasta","two_way_cognate","1","1","0",0.597,1,-0.515838165589535
"202","sl3_02","mibro","pseudoword","0","0","1",0.695,1,-0.363843433417345
"203","sl3_02","guerra","non_cognate","1","1","0",0.697,1,-0.360969868221613
"204","sl3_02","aljizo","pseudoword","0","0","1",0.866,1,-0.143870370419702
"205","sl3_02","viable","two_way_cognate","1","1","0",0.831,1,-0.185125484126689
"206","sl3_02","mortal","two_way_cognate","1","1","0",0.693,1,-0.366725279792234
"207","sl3_02","rizate","pseudoword","0","0","1",0.6,1,-0.510825623765991
"208","sl3_02","bará","pseudoword","0","0","1",0.627,1,-0.466808738349216
"209","sl3_02","fuar","pseudoword","0","0","1",0.597,1,-0.515838165589535
"210","sl3_02","punta","non_cognate","1","1","0",0.663,1,-0.410980288796275
"211","sl3_02","sacar","non_cognate","1","1","0",0.633,1,-0.457284856837961
"212","sl3_02","boñaz","pseudoword","0","0","1",0.628,1,-0.465215112513938
"213","sl3_02","babrá","pseudoword","0","0","1",0.671,1,-0.398986142010455
"214","sl3_02","cengo","pseudoword","0","0","1",0.637,1,-0.450985623409974
"215","sl3_02","siglo","non_cognate","1","1","0",0.727,1,-0.318828801448618
"216","sl3_02","densó","pseudoword","0","0","1",0.662,1,-0.412489723045129
"217","sl3_02","anfia","pseudoword","0","0","1",0.601,1,-0.50916034444693
"218","sl3_02","dubo","pseudoword","0","0","1",0.598,1,-0.514164525031505
"219","sl3_02","tator","pseudoword","0","0","1",0.896,1,-0.109814866007207
"220","sl3_02","cricó","pseudoword","0","0","1",0.796,1,-0.228156093137754
"221","sl3_02","teñir","non_cognate","1","1","0",0.563,1,-0.574475650842447
"222","sl3_02","tradía","pseudoword","0","0","1",0.7,1,-0.356674943938732
"223","sl3_02","plago","pseudoword","0","0","1",0.596,1,-0.517514611916787
"224","sl3_02","emén","pseudoword","0","0","1",0.663,1,-0.410980288796275
"225","sl3_02","chocar","non_cognate","1","1","0",0.663,1,-0.410980288796275
"226","sl3_02","portal","three_way_cognate","1","1","0",0.628,1,-0.465215112513938
"227","sl3_02","huenos","pseudoword","0","0","1",0.929,1,-0.0736465401682985
"228","sl3_02","harvé","pseudoword","0","0","1",0.695,1,-0.363843433417345
"229","sl3_02","esís","pseudoword","0","0","1",0.634,1,-0.455706324544911
"230","sl3_02","golla","pseudoword","0","0","1",0.8,1,-0.22314355131421
"231","sl3_02","suelet","pseudoword","0","0","1",0.897,1,-0.108699416923341
"232","sl3_02","actor","two_way_cognate","1","1","0",0.663,1,-0.410980288796275
"233","sl3_02","flora","three_way_cognate","1","1","0",0.596,1,-0.517514611916787
"234","sl3_02","drama","three_way_cognate","1","1","0",0.566,1,-0.569161200778954
"235","sl3_02","listo","non_cognate","1","1","0",0.53,1,-0.63487827243597
"236","sl3_02","morrá","pseudoword","0","0","1",0.699,1,-0.358104536748327
"237","sl3_02","color","two_way_cognate","1","1","0",0.596,1,-0.517514611916787
"238","sl3_02","rendir","non_cognate","1","1","0",1.063,1,0.0610950993598108
"239","sl3_02","regalo","non_cognate","1","1","0",0.563,1,-0.574475650842447
"240","sl3_02","honor","two_way_cognate","1","1","0",0.601,1,-0.50916034444693
"241","sl3_02","tapón","non_cognate","1","1","0",1.131,1,0.123102197133983
"242","sl3_02","gripar","pseudoword","0","0","1",0.697,1,-0.360969868221613
"243","sl3_02","coyo","pseudoword","0","0","1",0.664,1,-0.409473129505703
"244","sl3_02","cuenco","non_cognate","1","1","0",1.167,1,0.154436353304419
"245","sl3_02","tapa","non_cognate","1","1","0",0.599,1,-0.512493680866688
"246","sl3_02","edioso","pseudoword","0","0","1",0.731,1,-0.313341819232359
"247","sl3_02","aviso","non_cognate","1","1","0",0.765,1,-0.267879445155601
"248","sl3_02","aura","three_way_cognate","1","1","0",0.608,1,-0.49758039701597
"249","sl3_02","hueas","pseudoword","0","0","1",1.097,1,0.0925791812930932
"250","sl3_02","trcia","pseudoword","0","0","1",0.73,1,-0.3147107448397
"251","sl3_02","torta","non_cognate","1","1","0",0.736,1,-0.306525160253261
"252","sl3_02","llevar","non_cognate","1","1","0",0.767,1,-0.265268477614881
"253","sl3_02","casual","two_way_cognate","1","1","0",0.599,1,-0.512493680866688
"254","sl3_02","barbs","pseudoword","0","0","1",0.797,1,-0.226900600191922
"255","sl3_02","muñeca","non_cognate","1","1","0",0.699,1,-0.358104536748327
"256","sl3_02","caro","non_cognate","1","1","0",0.63,1,-0.462035459596559
"257","sl3_02","ánimo","non_cognate","1","1","0",0.596,1,-0.517514611916787
"258","sl3_02","conso","pseudoword","0","0","1",0.863,1,-0.147340587898709
"259","sl3_02","mafia","three_way_cognate","1","1","0",0.596,1,-0.517514611916787
"260","sl3_02","listo","non_cognate","1","1","0",0.534,1,-0.627359440021942
"261","sl3_02","dogue","pseudoword","0","0","1",1.098,1,0.093490343087339
"262","sl3_02","pitis","pseudoword","0","0","1",0.696,1,-0.362405618647717
"263","sl3_02","sasos","pseudoword","0","0","1",0.76,1,-0.27443684570176
"264","sl3_02","losco","pseudoword","0","0","1",0.928,1,-0.0747235461959364
"265","sl3_02","disco","three_way_cognate","1","1","0",0.665,1,-0.407968238326283
"266","sl3_02","olzan","pseudoword","0","0","1",0.806,1,-0.215671536475509
"267","sl3_02","monue","pseudoword","0","0","1",0.63,1,-0.462035459596559
"268","sl3_02","arane","pseudoword","0","0","1",0.798,1,-0.225646681532328
"269","sl3_02","nasce","pseudoword","0","0","1",0.831,1,-0.185125484126689
"270","sl3_02","editor","two_way_cognate","1","1","0",0.596,1,-0.517514611916787
"271","sl3_02","aleta","non_cognate","1","1","0",0.964,1,-0.0366639843715915
"272","sl3_02","civil","two_way_cognate","1","1","0",0.666,1,-0.406465608441748
"273","sl3_02","blando","non_cognate","1","1","0",0.897,1,-0.108699416923341
"274","sl3_02","parre","pseudoword","0","0","1",0.697,1,-0.360969868221613
"275","sl3_02","chat","three_way_cognate","1","1","0",1.033,1,0.0324671901375014
"276","sl3_02","tumor","three_way_cognate","1","1","0",0.931,1,-0.0714960017050699
"277","sl3_02","grigir","pseudoword","0","0","1",0.667,1,-0.404965233066513
"278","sl3_02","test","three_way_cognate","1","1","0",0.662,1,-0.412489723045129
"279","sl3_02","nocó","pseudoword","0","0","1",0.73,1,-0.3147107448397
"280","sl3_02","ozoso","pseudoword","0","0","1",0.601,1,-0.50916034444693
"281","sl3_02","pabea","pseudoword","0","0","1",0.597,1,-0.515838165589535
"282","sl3_02","prave","pseudoword","0","0","1",0.593,1,-0.522560879984412
"283","sl3_02","molor","pseudoword","0","0","1",0.564,1,-0.572701027484078
"284","sl3_02","brillo","non_cognate","1","1","0",0.727,1,-0.318828801448618
"285","sl3_02","gotro","pseudoword","0","0","1",0.73,1,-0.3147107448397
"286","sl3_02","tecia","pseudoword","0","0","1",0.497,1,-0.699165252885508
"287","sl3_02","chorde","pseudoword","0","0","1",0.602,1,-0.507497833673316
"288","sl3_02","samón","pseudoword","0","0","1",0.668,1,-0.403467105445491
"289","sl3_02","desaro","pseudoword","0","0","1",0.664,1,-0.409473129505703
"290","sl3_02","feo","non_cognate","1","1","0",0.593,1,-0.522560879984412
"291","sl3_03","suelet","pseudoword","0","0","1",1.043,1,0.0421011760186353
"292","sl3_03","civil","two_way_cognate","1","1","0",1.004,1,0.00399202126953746
"293","sl3_03","guerra","non_cognate","1","1","0",0.6,1,-0.510825623765991
"294","sl3_03","pegar","non_cognate","1","1","0",0.851,1,-0.161343150408763
"295","sl3_03","samón","pseudoword","0","0","1",1.282,1,0.248421358498478
"296","sl3_03","suave","non_cognate","1","1","0",0.846,1,-0.167235919375914
"297","sl3_03","medium","pseudoword","0","0","1",0.933,1,-0.0693500781347932
"298","sl3_03","flecha","non_cognate","1","1","0",0.607,1,-0.499226487922639
"299","sl3_03","trcia","pseudoword","0","0","1",0.762,1,-0.271808723295491
"300","sl3_03","inichó","pseudoword","0","0","1",0.857,1,-0.154317360384357
"301","sl3_03","edioso","pseudoword","0","0","1",1.26,1,0.231111720963387
"302","sl3_03","mibro","pseudoword","0","0","1",1.258,1,0.229523158278249
"303","sl3_03","gotro","pseudoword","0","0","1",0.962,1,-0.0387408283164306
"304","sl3_03","tecia","pseudoword","0","0","1",0.947,1,-0.0544561857960589
"305","sl3_03","patada","non_cognate","1","1","0",0.669,1,-0.401971218853909
"306","sl3_03","nocó","pseudoword","0","0","1",0.846,1,-0.167235919375914
"307","sl3_03","laras","pseudoword","0","0","1",1.04,1,0.0392207131532813
"308","sl3_03","barbs","pseudoword","0","0","1",1.452,1,0.372941916402604
"309","sl3_03","diebro","pseudoword","0","0","1",0.966,1,-0.0345914447696191
"310","sl3_03","rostro","non_cognate","1","1","0",1.547,1,0.436317571590929
"311","sl3_03","panté","pseudoword","0","0","1",0.902,1,-0.103140758919513
"312","sl3_03","caro","non_cognate","1","1","0",0.772,1,-0.258770728957361
"313","sl3_03","plural","three_way_cognate","1","1","0",1.046,1,0.0449733656427312
"314","sl3_03","collar","two_way_cognate","1","1","0",0.776,1,-0.253602758798918
"315","sl3_03","chocar","non_cognate","1","1","0",0.785,1,-0.242071561199729
"316","sl3_03","clamor","two_way_cognate","1","1","0",1.352,1,0.301584977620772
"317","sl3_03","sierra","non_cognate","1","1","0",0.643,1,-0.441610554744518
"318","sl3_03","chorde","pseudoword","0","0","1",0.805,1,-0.216913001563574
"319","sl3_03","prías","pseudoword","0","0","1",0.855,1,-0.156653810045377
"320","sl3_03","coyo","pseudoword","0","0","1",0.653,1,-0.426178149705706
"321","sl3_03","puñal","non_cognate","1","1","0",0.631,1,-0.460449416440924
"322","sl3_03","rizado","non_cognate","1","1","0",0.754,1,-0.282362910974181
"323","sl3_03","bará","pseudoword","0","0","1",0.725,1,-0.321583624127462
"324","sl3_03","ánimo","non_cognate","1","1","0",0.91,1,-0.0943106794712413
"325","sl3_03","casual","two_way_cognate","1","1","0",0.595,1,-0.519193873436507
"326","sl3_03","torta","non_cognate","1","1","0",0.644,1,-0.440056552877783
"327","sl3_03","color","two_way_cognate","1","1","0",0.541,1,-0.614336000135655
"328","sl3_03","moral","three_way_cognate","1","1","0",0.648,1,-0.433864582629862
"329","sl3_03","próces","pseudoword","0","0","1",0.786,1,-0.24079848655293
"330","sl3_03","venado","non_cognate","1","1","0",1.102,1,0.0971267107307228
"331","sl3_03","cobén","pseudoword","0","0","1",0.729,1,-0.316081546973479
"332","sl3_03","rumor","two_way_cognate","1","1","0",0.526,1,-0.642454066244427
"333","sl3_03","aljizo","pseudoword","0","0","1",0.888,1,-0.118783535989967
"334","sl3_03","cengo","pseudoword","0","0","1",0.631,1,-0.460449416440924
"335","sl3_03","editor","two_way_cognate","1","1","0",1.005,1,0.00498754151103897
"336","sl3_03","asumie","pseudoword","0","0","1",0.768,1,-0.263965545834465
"337","sl3_03","ozoso","pseudoword","0","0","1",0.949,1,-0.0523464803722092
"338","sl3_03","pupica","pseudoword","0","0","1",0.821,1,-0.197232169529709
"339","sl3_03","aviso","non_cognate","1","1","0",0.609,1,-0.49593701127224
"340","sl3_03","gravés","pseudoword","0","0","1",1.037,1,0.0363319292473902
"341","sl3_03","albino","three_way_cognate","1","1","0",1.387,1,0.327143141332695
"342","sl3_03","extra","three_way_cognate","1","1","0",0.59,1,-0.527632742082372
"343","sl3_03","ardor","two_way_cognate","1","1","0",1.28,1,0.246860077931526
"344","sl3_03","brillo","non_cognate","1","1","0",0.821,1,-0.197232169529709
"345","sl3_03","feo","non_cognate","1","1","0",0.693,1,-0.366725279792234
"346","sl3_03","rúo","pseudoword","0","0","1",0.72,1,-0.328504066972036
"347","sl3_03","actor","two_way_cognate","1","1","0",0.672,1,-0.397496938458987
"348","sl3_03","pabea","pseudoword","0","0","1",0.739,1,-0.302457358033935
"349","sl3_03","entodo","pseudoword","0","0","1",0.716,1,-0.334075112021491
"350","sl3_03","anfia","pseudoword","0","0","1",0.629,1,-0.463624022281697
"351","sl3_03","pelí","pseudoword","0","0","1",0.747,1,-0.29169009384932
"352","sl3_03","ceme","pseudoword","0","0","1",1.172,1,0.158711691154821
"353","sl3_03","siglo","non_cognate","1","1","0",0.599,1,-0.512493680866688
"354","sl3_03","total","two_way_cognate","1","1","0",0.546,1,-0.605136303237232
"355","sl3_03","dobbo","pseudoword","0","0","1",0.7,1,-0.356674943938732
"356","sl3_03","equipo","non_cognate","1","1","0",0.6,1,-0.510825623765991
"357","sl3_03","molor","pseudoword","0","0","1",0.704,1,-0.350976922824095
"358","sl3_03","diabo","pseudoword","0","0","1",1.63,1,0.488580014818671
"359","sl3_03","muleta","non_cognate","1","1","0",1.076,1,0.0732504617395927
"360","sl3_03","sasos","pseudoword","0","0","1",0.665,1,-0.407968238326283
"361","sl3_03","mortal","two_way_cognate","1","1","0",0.828,1,-0.188742124596877
"362","sl3_03","llamar","non_cognate","1","1","0",0.569,1,-0.563874844855806
"363","sl3_03","plan","three_way_cognate","1","1","0",0.57,1,-0.562118918153541
"364","sl3_03","nocita","pseudoword","0","0","1",0.837,1,-0.177931208492662
"365","sl3_03","seled","pseudoword","0","0","1",1.595,1,0.466873736236808
"366","sl3_03","fuar","pseudoword","0","0","1",1.402,1,0.337899788612398
"367","sl3_03","listo","non_cognate","1","1","0",0.604,1,-0.504181081047322
"368","sl3_03","forro","non_cognate","1","1","0",0.922,1,-0.0812100554255432
"369","sl3_03","morrá","pseudoword","0","0","1",0.656,1,-0.421594490038048
"370","sl3_03","pico","non_cognate","1","1","0",1.225,1,0.20294084399669
"371","sl3_03","trauma","three_way_cognate","1","1","0",0.899,1,-0.106472244510517
"372","sl3_03","sacar","non_cognate","1","1","0",0.613,1,-0.489390343045926
"373","sl3_03","tator","pseudoword","0","0","1",1.227,1,0.204572165728774
"374","sl3_03","tumor","three_way_cognate","1","1","0",0.92,1,-0.083381608939051
"375","sl3_03","suelo","non_cognate","1","1","0",1.313,1,0.272314595320659
"376","sl3_03","emén","pseudoword","0","0","1",0.618,1,-0.481266821524446
"377","sl3_03","honor","two_way_cognate","1","1","0",0.713,1,-0.338273858567841
"378","sl3_03","boñaz","pseudoword","0","0","1",0.62,1,-0.478035800943
"379","sl3_03","portal","three_way_cognate","1","1","0",0.705,1,-0.349557476169868
"380","sl3_03","vinzó","pseudoword","0","0","1",0.787,1,-0.239527030564734
"381","sl3_03","tapa","non_cognate","1","1","0",0.924,1,-0.0790432073404529
"382","sl3_03","llevar","non_cognate","1","1","0",0.85,1,-0.162518929497775
"383","sl3_03","hotel","three_way_cognate","1","1","0",0.649,1,-0.432322562278047
"384","sl3_03","monue","pseudoword","0","0","1",0.738,1,-0.303811454381665
"385","sl3_03","losco","pseudoword","0","0","1",0.696,1,-0.362405618647717
"386","sl3_03","hurcos","pseudoword","0","0","1",0.737,1,-0.3051673867928
"387","sl3_03","mauja","pseudoword","0","0","1",0.787,1,-0.239527030564734
"388","sl3_03","diroco","pseudoword","0","0","1",0.554,1,-0.590590592234853
"389","sl3_03","olzan","pseudoword","0","0","1",1.181,1,0.166361537215225
"390","sl3_03","tradía","pseudoword","0","0","1",0.713,1,-0.338273858567841
"391","sl3_03","bugor","pseudoword","0","0","1",1.272,1,0.24059046491793
"392","sl3_03","pitis","pseudoword","0","0","1",0.616,1,-0.484508315448617
"393","sl3_03","animal","two_way_cognate","1","1","0",0.571,1,-0.560366069326127
"394","sl3_03","mafia","three_way_cognate","1","1","0",0.596,1,-0.517514611916787
"395","sl3_03","jauda","pseudoword","0","0","1",0.579,1,-0.546452801409142
"396","sl3_03","grigir","pseudoword","0","0","1",0.853,1,-0.158995731490458
"397","sl3_03","enorme","non_cognate","1","1","0",0.65,1,-0.430782916092454
"398","sl3_03","horror","three_way_cognate","1","1","0",0.529,1,-0.636766847123838
"399","sl3_03","harvé","pseudoword","0","0","1",0.638,1,-0.449416995637347
"400","sl3_03","disco","three_way_cognate","1","1","0",0.72,1,-0.328504066972036
"401","sl3_03","dibrea","pseudoword","0","0","1",0.804,1,-0.218156009803171
"402","sl3_03","nomata","pseudoword","0","0","1",1.281,1,0.247641022914597
"403","sl3_03","leniz","pseudoword","0","0","1",0.781,1,-0.247180129142451
"404","sl3_03","altar","three_way_cognate","1","1","0",0.727,1,-0.318828801448618
"405","sl3_03","chat","three_way_cognate","1","1","0",0.862,1,-0.148500008318444
"406","sl3_03","babrá","pseudoword","0","0","1",1.53,1,0.425267735404344
"407","sl3_03","aura","three_way_cognate","1","1","0",0.62,1,-0.478035800943
"408","sl3_03","vigor","two_way_cognate","1","1","0",0.671,1,-0.398986142010455
"409","sl3_03","regalo","non_cognate","1","1","0",0.698,1,-0.359536176219765
"410","sl3_03","rendir","non_cognate","1","1","0",1.429,1,0.35697489894773
"411","sl3_03","esís","pseudoword","0","0","1",0.618,1,-0.481266821524446
"412","sl3_03","prave","pseudoword","0","0","1",1.219,1,0.198030850499135
"413","sl3_03","cricó","pseudoword","0","0","1",0.745,1,-0.294371060602578
"414","sl3_03","flora","three_way_cognate","1","1","0",0.873,1,-0.135819723142535
"415","sl3_03","muñeca","non_cognate","1","1","0",1.036,1,0.0353671438372913
"416","sl3_03","aurora","two_way_cognate","1","1","0",0.619,1,-0.479650006297541
"417","sl3_03","mango","three_way_cognate","1","1","0",0.702,1,-0.353821874956326
"418","sl3_03","punta","non_cognate","1","1","0",0.74,1,-0.301105092783922
"419","sl3_03","listo","non_cognate","1","1","0",0.621,1,-0.476424197048658
"420","sl3_03","lidena","pseudoword","0","0","1",0.687,1,-0.375420986759788
"421","sl3_03","dogue","pseudoword","0","0","1",0.638,1,-0.449416995637347
"422","sl3_03","tapón","non_cognate","1","1","0",0.648,1,-0.433864582629862
"423","sl3_03","trugo","pseudoword","0","0","1",0.74,1,-0.301105092783922
"424","sl3_03","lobe","pseudoword","0","0","1",1.059,1,0.0573250666192694
"425","sl3_03","chote","pseudoword","0","0","1",0.962,1,-0.0387408283164306
"426","sl3_03","fomeó","pseudoword","0","0","1",0.687,1,-0.375420986759788
"427","sl3_03","kugis","pseudoword","0","0","1",0.721,1,-0.327116141697188
"428","sl3_03","drama","three_way_cognate","1","1","0",0.558,1,-0.583396316600826
"429","sl3_03","arane","pseudoword","0","0","1",0.981,1,-0.019182819416774
"430","sl3_03","hueas","pseudoword","0","0","1",0.796,1,-0.228156093137754
"431","sl3_03","clan","three_way_cognate","1","1","0",0.613,1,-0.489390343045926
"432","sl3_04","jauda","pseudoword","0","0","1",1.8291,1,0.603824042599743
"433","sl3_04","colcha","non_cognate","1","1","0",1.2954,1,0.25881952776668
"434","sl3_04","gotro","pseudoword","0","0","1",1.6312,1,0.489315940278108
"435","sl3_04","mango","three_way_cognate","1","1","0",1.0806,1,0.0775164424278283
"436","sl3_04","drama","three_way_cognate","1","1","0",0.8475,1,-0.165464439727532
"437","sl3_04","arane","pseudoword","0","0","1",1.3694,1,0.314372687704825
"438","sl3_04","sacar","non_cognate","1","1","0",0.6919,1,-0.368313842477372
"439","sl3_04","suelet","pseudoword","0","0","1",2.2307,1,0.802315437560599
"440","sl3_04","vien","pseudoword","0","0","1",1.7162,1,0.540112544390884
"441","sl3_04","portal","three_way_cognate","1","1","0",1.1463,1,0.136539364138827
"442","sl3_04","ánimo","non_cognate","1","1","0",0.914,1,-0.089924707527987
"443","sl3_04","tapa","non_cognate","1","1","0",0.7844,1,-0.242836184659946
"444","sl3_04","pegar","non_cognate","1","1","0",0.7317,1,-0.312384685092153
"445","sl3_04","barbs","pseudoword","0","0","1",1.0644,1,0.0624112601213971
"446","sl3_04","pasta","two_way_cognate","1","1","0",0.9154,1,-0.0883941507625954
"447","sl3_04","cengo","pseudoword","0","0","1",1.3843,1,0.325194596711552
"448","sl3_04","listo","non_cognate","1","1","0",0.8776,1,-0.130564370021117
"449","sl3_04","llevar","non_cognate","1","1","0",0.7322,1,-0.311701578296001
"450","sl3_04","parre","pseudoword","0","0","1",2.1468,1,0.763978361320537
"451","sl3_04","torso","two_way_cognate","1","1","0",1.4555,1,0.375349484203541
"452","sl3_04","hotel","three_way_cognate","1","1","0",0.6475,1,-0.434636485408444
"453","sl3_04","moral","three_way_cognate","1","1","0",0.7853,1,-0.241689468601308
"454","sl3_04","dobbo","pseudoword","0","0","1",0.879,1,-0.12897038129696
"455","sl3_04","aviso","non_cognate","1","1","0",0.7814,1,-0.246668096361167
"456","sl3_04","suave","non_cognate","1","1","0",0.7791,1,-0.249615871645325
"457","sl3_04","suelo","non_cognate","1","1","0",0.662,1,-0.412489723045129
"458","sl3_04","siglo","non_cognate","1","1","0",0.7172,1,-0.332400537251159
"459","sl3_04","pico","non_cognate","1","1","0",0.6956,1,-0.362980496502009
"460","sl3_04","llamar","non_cognate","1","1","0",0.7446,1,-0.29490811754352
"461","sl3_04","nomata","pseudoword","0","0","1",1.3855,1,0.326061085320896
"462","sl3_04","mibro","pseudoword","0","0","1",0.8994,1,-0.10602740464553
"463","sl3_04","anfia","pseudoword","0","0","1",0.9459,1,-0.0556184237630123
"464","sl3_04","feo","non_cognate","1","1","0",0.8664,1,-0.143408583295356
"465","sl3_04","ala","non_cognate","1","1","0",1.0318,1,0.0313048498284125
"466","sl3_04","punta","non_cognate","1","1","0",0.8781,1,-0.129994796616187
"467","sl3_04","test","three_way_cognate","1","1","0",0.7989,1,-0.224519497494141
"468","sl3_04","ceme","pseudoword","0","0","1",0.9323,1,-0.0701006276794891
"469","sl3_04","color","two_way_cognate","1","1","0",1.1505,1,0.140196630493284
"470","sl3_04","chorde","pseudoword","0","0","1",0.8965,1,-0.10925698593695
"471","sl3_04","editor","two_way_cognate","1","1","0",1.1307,1,0.122836909959062
"472","sl3_04","entodo","pseudoword","0","0","1",1.8974,1,0.640484527976639
"473","sl3_04","rostro","non_cognate","1","1","0",1.2635,1,0.233885647846112
"474","sl3_04","laras","pseudoword","0","0","1",2.1294,1,0.755840249898369
"475","sl3_04","próces","pseudoword","0","0","1",2.1316,1,0.75687287144049
"476","sl3_04","piano","two_way_cognate","1","1","0",0.8245,1,-0.192978136982483
"477","sl3_04","chote","pseudoword","0","0","1",0.9477,1,-0.0537172825059879
"478","sl3_04","frasis","pseudoword","0","0","1",2.0346,1,0.710299239377511
"479","sl3_04","listo","non_cognate","1","1","0",1.0214,1,0.0211742352314066
"480","sl3_04","rúo","pseudoword","0","0","1",1.6417,1,0.495732290318335
"481","sl3_04","boñaz","pseudoword","0","0","1",1.4583,1,0.377271373737382
"482","sl3_04","guerra","non_cognate","1","1","0",0.7757,1,-0.253989431485311
"483","sl3_04","animal","two_way_cognate","1","1","0",0.6069,1,-0.499391246140328
"484","sl3_04","cobén","pseudoword","0","0","1",0.8733,1,-0.13547613956245
"485","sl3_04","muleta","non_cognate","1","1","0",0.8923,1,-0.113952880076031
"486","sl3_04","percha","non_cognate","1","1","0",1.5825,1,0.459005875036194
"487","sl3_04","asumie","pseudoword","0","0","1",1.9788,1,0.682490600371416
"488","sl3_04","equipo","non_cognate","1","1","0",0.9291,1,-0.0735389033348702
"489","sl3_04","virios","pseudoword","0","0","1",0.9448,1,-0.0567820140989845
"490","sl3_04","extra","three_way_cognate","1","1","0",0.6631,1,-0.410829470607315
"491","sl3_04","diroco","pseudoword","0","0","1",0.9385,1,-0.0634724229555735
"492","sl3_04","olzan","pseudoword","0","0","1",0.8941,1,-0.111937653240865
"493","sl3_04","civil","two_way_cognate","1","1","0",0.8754,1,-0.133074354225342
"494","sl3_04","casual","two_way_cognate","1","1","0",0.8496,1,-0.162989628494463
"495","sl3_04","nasce","pseudoword","0","0","1",1.9011,1,0.642432666015444
"496","sl3_04","rumor","two_way_cognate","1","1","0",1.6139,1,0.47865361005964
"497","sl3_04","caro","non_cognate","1","1","0",0.7941,1,-0.230545881080972
"498","sl3_04","horror","three_way_cognate","1","1","0",0.8288,1,-0.187776407476918
"499","sl3_04","fomeó","pseudoword","0","0","1",1.5969,1,0.468064249864684
"500","sl3_04","forro","non_cognate","1","1","0",1.8498,1,0.615077525138023
"501","sl3_04","kugis","pseudoword","0","0","1",0.7477,1,-0.290753450976267
"502","sl3_04","rizado","non_cognate","1","1","0",0.9439,1,-0.0577350506512384
"503","sl3_04","trcia","pseudoword","0","0","1",0.8663,1,-0.143524010086042
"504","sl3_04","mafia","three_way_cognate","1","1","0",0.8432,1,-0.170551101195039
"505","sl3_04","sierra","non_cognate","1","1","0",0.7637,1,-0.269580237087799
"506","sl3_04","flora","three_way_cognate","1","1","0",0.6117,1,-0.491513312733618
"507","sl3_04","mortal","two_way_cognate","1","1","0",0.7761,1,-0.253473901122044
"508","sl3_04","bugor","pseudoword","0","0","1",0.8204,1,-0.197963252783911
"509","sl3_04","brillo","non_cognate","1","1","0",1.1153,1,0.109123427018354
"510","sl3_04","edioso","pseudoword","0","0","1",0.9332,1,-0.0691357388348621
"511","sl3_04","pitis","pseudoword","0","0","1",0.9967,1,-0.00330545700872648
"512","sl3_04","chat","three_way_cognate","1","1","0",1.7142,1,0.538946499482645
"513","sl3_04","molor","pseudoword","0","0","1",1.1196,1,0.112971478659161
"514","sl3_04","tapón","non_cognate","1","1","0",0.8129,1,-0.20714717822961
"515","sl3_04","plan","three_way_cognate","1","1","0",1.0498,1,0.0485996698360624
"516","sl3_04","huenos","pseudoword","0","0","1",1.3349,1,0.28885638267955
"517","sl3_04","torta","non_cognate","1","1","0",2.2167,1,0.796019603480575
"518","sl3_04","tobre","pseudoword","0","0","1",1.4514,1,0.3725286078619
"519","sl3_04","regalo","non_cognate","1","1","0",0.8638,1,-0.146414018455536
"520","sl3_04","hueas","pseudoword","0","0","1",0.8453,1,-0.168063685047255
"521","sl3_04","lidena","pseudoword","0","0","1",0.8097,1,-0.211091470290068
"522","sl3_04","emén","pseudoword","0","0","1",0.9136,1,-0.0903624400803913
"523","sl3_04","muñeca","non_cognate","1","1","0",0.9236,1,-0.0794762015017968
"524","sl3_04","cricó","pseudoword","0","0","1",1.6822,1,0.5201024605462
"525","sl3_04","honor","two_way_cognate","1","1","0",0.6448,1,-0.438815087789718
"526","sl3_04","mauja","pseudoword","0","0","1",0.7822,1,-0.245644816660723
"527","sl3_04","tumor","three_way_cognate","1","1","0",1.2129,1,0.193014186332698
"528","sl3_04","kilo","three_way_cognate","1","1","0",1.132,1,0.123985979780991
"529","sl3_04","trauma","three_way_cognate","1","1","0",0.7964,1,-0.227653706792096
"530","sl3_04","babrá","pseudoword","0","0","1",0.8125,1,-0.207639364778244
"531","sl3_04","nocó","pseudoword","0","0","1",1.5934,1,0.465870097964129
"532","sl3_04","monue","pseudoword","0","0","1",0.9823,1,-0.0178585183013132
"533","sl3_04","actor","two_way_cognate","1","1","0",0.743,1,-0.297059234264378
"534","sl3_04","collar","two_way_cognate","1","1","0",0.8799,1,-0.127947014330622
"535","sl3_04","martir","pseudoword","0","0","1",0.8291,1,-0.187414503859964
"536","sl3_04","dogue","pseudoword","0","0","1",0.8783,1,-0.129767058059065
"537","sl3_04","dibrea","pseudoword","0","0","1",1.0098,1,0.0097522914426783
"538","sl3_04","enorme","non_cognate","1","1","0",0.8644,1,-0.145719654349406
"539","sl3_04","tator","pseudoword","0","0","1",1.6466,1,0.498712555882189
"540","sl3_04","gió","pseudoword","0","0","1",1.8511,1,0.615780056983502
"541","sl3_04","plural","three_way_cognate","1","1","0",0.6976,1,-0.360109406387367
"542","sl3_04","conso","pseudoword","0","0","1",1.23,1,0.207014169384326
"543","sl3_04","venado","non_cognate","1","1","0",1.2552,1,0.227294922436686
"544","sl3_04","fuar","pseudoword","0","0","1",2.0823,1,0.733473052031511
"545","sl3_04","maldad","non_cognate","1","1","0",0.795,1,-0.229413164327805
"546","sl3_04","esís","pseudoword","0","0","1",1.013,1,0.0129162252665462
"547","sl3_04","pupica","pseudoword","0","0","1",1.2843,1,0.250213822836873
"548","sl3_04","dubo","pseudoword","0","0","1",0.702,1,-0.353821874956326
"549","sl3_04","total","two_way_cognate","1","1","0",0.7811,1,-0.247052096365885
"550","sl3_05","diabo","pseudoword","0","0","1",0.898,1,-0.107585210679937
"551","sl3_05","clan","three_way_cognate","1","1","0",1.064,1,0.0620353909194527
"552","sl3_05","boñaz","pseudoword","0","0","1",1.117,1,0.110646520087064
"553","sl3_05","extra","three_way_cognate","1","1","0",0.714,1,-0.336872316642553
"554","sl3_05","hilo","non_cognate","1","1","0",1.09,1,0.0861776962410524
"555","sl3_05","barbs","pseudoword","0","0","1",1.174,1,0.160416721405905
"556","sl3_05","ceme","pseudoword","0","0","1",0.967,1,-0.0335567835288428
"557","sl3_05","civil","two_way_cognate","1","1","0",0.916,1,-0.0877389143080067
"558","sl3_05","nomata","pseudoword","0","0","1",0.768,1,-0.263965545834465
"559","sl3_05","inichó","pseudoword","0","0","1",1.515,1,0.415415438961332
"560","sl3_05","fuar","pseudoword","0","0","1",0.993,1,-0.00702461493696447
"561","sl3_05","pabea","pseudoword","0","0","1",0.885,1,-0.122167633974208
"562","sl3_05","cricó","pseudoword","0","0","1",1.966,1,0.676001021724975
"563","sl3_05","tumor","three_way_cognate","1","1","0",0.96,1,-0.0408219945202552
"564","sl3_05","aura","three_way_cognate","1","1","0",0.935,1,-0.06720874969345
"565","sl3_05","enorme","non_cognate","1","1","0",0.944,1,-0.0576291128366364
"566","sl3_05","collar","two_way_cognate","1","1","0",1.011,1,0.0109399400383343
"567","sl3_05","trugo","pseudoword","0","0","1",0.811,1,-0.209487224866724
"568","sl3_05","test","three_way_cognate","1","1","0",0.688,1,-0.373966441048793
"569","sl3_05","desaro","pseudoword","0","0","1",0.846,1,-0.167235919375914
"570","sl3_05","muñeca","non_cognate","1","1","0",1.037,1,0.0363319292473902
"571","sl3_05","edioso","pseudoword","0","0","1",1.586,1,0.461215123212656
"572","sl3_05","civas","pseudoword","0","0","1",0.911,1,-0.0932123817221787
"573","sl3_05","listo","non_cognate","1","1","0",0.688,1,-0.373966441048793
"574","sl3_05","flecha","non_cognate","1","1","0",1.321,1,0.278389025540188
"575","sl3_05","fiscal","two_way_cognate","1","1","0",1.021,1,0.0207825391825284
"576","sl3_05","punta","non_cognate","1","1","0",0.844,1,-0.16960278438618
"577","sl3_05","harvé","pseudoword","0","0","1",1.161,1,0.149281702715754
"578","sl3_05","martir","pseudoword","0","0","1",1.462,1,0.379805361327587
"579","sl3_05","drama","three_way_cognate","1","1","0",0.687,1,-0.375420986759788
"580","sl3_05","sierra","non_cognate","1","1","0",1.047,1,0.0459289318883997
"581","sl3_05","albino","three_way_cognate","1","1","0",0.939,1,-0.0629397997738742
"582","sl3_05","tapón","non_cognate","1","1","0",0.797,1,-0.226900600191922
"583","sl3_05","coyo","pseudoword","0","0","1",0.963,1,-0.0377018671840115
"584","sl3_05","listo","non_cognate","1","1","0",0.649,1,-0.432322562278047
"585","sl3_05","moral","three_way_cognate","1","1","0",1.062,1,0.0601539228197471
"586","sl3_05","gino","pseudoword","0","0","1",1.29,1,0.254642218373581
"587","sl3_05","densó","pseudoword","0","0","1",1.246,1,0.219938420365261
"588","sl3_05","guerra","non_cognate","1","1","0",0.815,1,-0.204567165741274
"589","sl3_05","aurora","two_way_cognate","1","1","0",0.915,1,-0.0888312137066157
"590","sl3_05","pasta","two_way_cognate","1","1","0",0.713,1,-0.338273858567841
"591","sl3_05","hurcos","pseudoword","0","0","1",1.915,1,0.649717622632609
"592","sl3_05","total","two_way_cognate","1","1","0",0.816,1,-0.20334092401803
"593","sl3_05","plan","three_way_cognate","1","1","0",1.341,1,0.293415604299541
"594","sl3_05","horror","three_way_cognate","1","1","0",1.191,1,0.174793290373163
"595","sl3_05","equipo","non_cognate","1","1","0",0.874,1,-0.134674903326602
"596","sl3_05","prave","pseudoword","0","0","1",0.851,1,-0.161343150408763
"597","sl3_05","sasos","pseudoword","0","0","1",2.184,1,0.781158057882659
"598","sl3_05","losco","pseudoword","0","0","1",0.685,1,-0.378336440719912
"599","sl3_05","ozoso","pseudoword","0","0","1",2.219,1,0.797056643950457
"600","sl3_05","parre","pseudoword","0","0","1",0.771,1,-0.260066905418808
"601","sl3_05","entodo","pseudoword","0","0","1",0.644,1,-0.440056552877783
"602","sl3_05","emén","pseudoword","0","0","1",0.912,1,-0.0921152889078056
"603","sl3_05","tecia","pseudoword","0","0","1",1.628,1,0.487352267580348
"604","sl3_05","tradía","pseudoword","0","0","1",1.36,1,0.307484699747961
"605","sl3_05","flora","three_way_cognate","1","1","0",0.611,1,-0.492658319810542
"606","sl3_05","tator","pseudoword","0","0","1",1.711,1,0.537077994910056
"607","sl3_05","hotel","three_way_cognate","1","1","0",0.797,1,-0.226900600191922
"608","sl3_05","esís","pseudoword","0","0","1",0.957,1,-0.0439518875291828
"609","sl3_05","huenos","pseudoword","0","0","1",0.887,1,-0.119910296672558
"610","sl3_05","teñir","non_cognate","1","1","0",1.974,1,0.68006194101129
"611","sl3_05","panté","pseudoword","0","0","1",0.821,1,-0.197232169529709
"612","sl3_05","editor","two_way_cognate","1","1","0",0.924,1,-0.0790432073404529
"613","sl3_05","virios","pseudoword","0","0","1",1.098,1,0.093490343087339
"614","sl3_05","rostro","non_cognate","1","1","0",0.897,1,-0.108699416923341
"615","sl3_05","chote","pseudoword","0","0","1",0.841,1,-0.173163619009189
"616","sl3_05","gotro","pseudoword","0","0","1",0.822,1,-0.196014883925957
"617","sl3_05","cengo","pseudoword","0","0","1",0.846,1,-0.167235919375914
"618","sl3_05","blando","non_cognate","1","1","0",0.788,1,-0.238257189124258
"619","sl3_05","fomeó","pseudoword","0","0","1",1.223,1,0.201306856705035
"620","sl3_05","sacar","non_cognate","1","1","0",0.722,1,-0.325730140089311
"621","sl3_05","mibro","pseudoword","0","0","1",0.695,1,-0.363843433417345
"622","sl3_05","golla","pseudoword","0","0","1",0.838,1,-0.176737178500054
"623","sl3_05","rumor","two_way_cognate","1","1","0",1.049,1,0.0478373294141601
"624","sl3_05","muleta","non_cognate","1","1","0",0.989,1,-0.0110609473594249
"625","sl3_05","llevar","non_cognate","1","1","0",0.676,1,-0.391562202939173
"626","sl3_05","trauma","three_way_cognate","1","1","0",1.123,1,0.116003675756306
"627","sl3_05","bará","pseudoword","0","0","1",1.573,1,0.452984624076141
"628","sl3_05","suelo","non_cognate","1","1","0",0.898,1,-0.107585210679937
"629","sl3_05","animal","two_way_cognate","1","1","0",0.864,1,-0.146182510178081
"630","sl3_05","kugis","pseudoword","0","0","1",1.141,1,0.131905070879939
"631","sl3_05","diroco","pseudoword","0","0","1",1.849,1,0.614644952404988
"632","sl3_05","vueras","pseudoword","0","0","1",2.015,1,0.700619195398646
"633","sl3_05","piano","two_way_cognate","1","1","0",0.965,1,-0.0356271776431512
"634","sl3_05","dobbo","pseudoword","0","0","1",0.791,1,-0.234457311214483
"635","sl3_05","babrá","pseudoword","0","0","1",1.398,1,0.335042643811618
"636","sl3_05","anfia","pseudoword","0","0","1",1.167,1,0.154436353304419
"637","sl3_05","suave","non_cognate","1","1","0",0.667,1,-0.404965233066513
"638","sl3_05","chat","three_way_cognate","1","1","0",1.02,1,0.0198026272961797
"639","sl3_05","nocita","pseudoword","0","0","1",0.744,1,-0.295714244149045
"640","sl3_05","percha","non_cognate","1","1","0",1.094,1,0.0898407039997895
"641","sl3_05","ala","non_cognate","1","1","0",1.352,1,0.301584977620772
"642","sl3_05","colcha","non_cognate","1","1","0",2.045,1,0.715397789494765
"643","sl3_05","dogue","pseudoword","0","0","1",1.187,1,0.171429115627531
"644","sl3_05","regalo","non_cognate","1","1","0",1.27,1,0.2390169004705
"645","sl3_05","pitis","pseudoword","0","0","1",1.145,1,0.135404637006203
"646","sl3_05","tapa","non_cognate","1","1","0",0.813,1,-0.207024169434327
"647","sl3_05","aviso","non_cognate","1","1","0",0.937,1,-0.0650719967437148
"648","sl3_05","mortal","two_way_cognate","1","1","0",0.594,1,-0.520875959619492
"649","sl3_05","leniz","pseudoword","0","0","1",1.161,1,0.149281702715754
"650","sl3_05","cobén","pseudoword","0","0","1",0.987,1,-0.0130852395486555
"651","sl3_05","torso","two_way_cognate","1","1","0",0.788,1,-0.238257189124258
"652","sl3_05","feo","non_cognate","1","1","0",0.99,1,-0.0100503358535015
"653","sl3_05","rúo","pseudoword","0","0","1",0.947,1,-0.0544561857960589
"654","sl3_05","seled","pseudoword","0","0","1",1.116,1,0.109750863959119
"655","sl3_05","llamar","non_cognate","1","1","0",0.764,1,-0.269187489815617
"656","sl3_05","portal","three_way_cognate","1","1","0",0.789,1,-0.236988958136263
"657","sl3_05","ánimo","non_cognate","1","1","0",1.55,1,0.438254930931155
"658","sl3_05","color","two_way_cognate","1","1","0",0.941,1,-0.0608121393967575
"659","sl3_05","bugor","pseudoword","0","0","1",0.926,1,-0.0768810443359576
"660","sl3_05","honor","two_way_cognate","1","1","0",0.742,1,-0.298406035814757
"661","sl3_05","chocar","non_cognate","1","1","0",1.771,1,0.571544358800696
"662","sl3_05","olzan","pseudoword","0","0","1",0.867,1,-0.142716302201595
"663","sl3_05","suelet","pseudoword","0","0","1",0.745,1,-0.294371060602578
"664","sl3_05","disco","three_way_cognate","1","1","0",0.735,1,-0.3078847797693
"665","sl3_05","diebro","pseudoword","0","0","1",0.896,1,-0.109814866007207
"666","sl3_05","mafia","three_way_cognate","1","1","0",0.919,1,-0.08446915662645
"667","sl3_05","aljizo","pseudoword","0","0","1",0.895,1,-0.110931560707282
"668","sl3_05","grigir","pseudoword","0","0","1",0.97,1,-0.0304592074847086
"669","sl3_05","asumie","pseudoword","0","0","1",1.34,1,0.29266961396282
"670","sl3_05","plural","three_way_cognate","1","1","0",0.873,1,-0.135819723142535
"671","sl3_05","lidena","pseudoword","0","0","1",2.065,1,0.725130226412996
"672","sl3_05","cuenco","non_cognate","1","1","0",1.788,1,0.581097676751322
"673","sl3_05","conso","pseudoword","0","0","1",0.946,1,-0.0555127099302588
"674","sl3_05","caro","non_cognate","1","1","0",0.791,1,-0.234457311214483
"675","sl3_05","brillo","non_cognate","1","1","0",1.15,1,0.139761942375159
"676","sl3_05","enigma","two_way_cognate","1","1","0",0.975,1,-0.0253178079842899
"677","sl3_05","nocó","pseudoword","0","0","1",1.776,1,0.574363644569978
"678","sl3_05","siglo","non_cognate","1","1","0",1.247,1,0.2207406666979
"679","sl3_05","pico","non_cognate","1","1","0",1.064,1,0.0620353909194527
"680","sl3_05","arane","pseudoword","0","0","1",1.447,1,0.369492447649347
"681","sl3_05","chorde","pseudoword","0","0","1",1.456,1,0.375692949774494
"682","sl3_05","cuenco","non_cognate","1","1","0",1.582,1,0.458689869345462
"683","sl3_05","actor","two_way_cognate","1","1","0",0.915,1,-0.0888312137066157
"684","sl3_05","pegar","non_cognate","1","1","0",0.866,1,-0.143870370419702
"685","sl3_05","tiza","non_cognate","1","1","0",1.016,1,0.0158733491562902
"686","sl3_05","laras","pseudoword","0","0","1",1.434,1,0.360467742177429
"687","sl3_05","casual","two_way_cognate","1","1","0",2.194,1,0.785726361853038
"688","sl3_06","molor","pseudoword","0","0","1",1.014,1,0.0139029051689914
"689","sl3_06","punta","non_cognate","1","1","0",0.963,1,-0.0377018671840115
"690","sl3_06","listo","non_cognate","1","1","0",0.697,1,-0.360969868221613
"691","sl3_06","gió","pseudoword","0","0","1",0.881,1,-0.126697653045958
"692","sl3_06","monue","pseudoword","0","0","1",1.196,1,0.17898265552844
"693","sl3_06","nocita","pseudoword","0","0","1",1.047,1,0.0459289318883997
"694","sl3_06","golf","three_way_cognate","1","1","0",0.761,1,-0.273121921120451
"695","sl3_06","dubo","pseudoword","0","0","1",0.98,1,-0.0202027073175195
"696","sl3_06","prave","pseudoword","0","0","1",0.964,1,-0.0366639843715915
"697","sl3_06","extra","three_way_cognate","1","1","0",0.714,1,-0.336872316642553
"698","sl3_06","collar","two_way_cognate","1","1","0",1.03,1,0.0295588022415444
"699","sl3_06","drama","three_way_cognate","1","1","0",1.363,1,0.309688152714396
"700","sl3_06","prías","pseudoword","0","0","1",0.73,1,-0.3147107448397
"701","sl3_06","muñeca","non_cognate","1","1","0",0.779,1,-0.249744233111389
"702","sl3_06","trcia","pseudoword","0","0","1",0.962,1,-0.0387408283164306
"703","sl3_06","lidena","pseudoword","0","0","1",1.229,1,0.206200830583898
"704","sl3_06","dobbo","pseudoword","0","0","1",0.947,1,-0.0544561857960589
"705","sl3_06","teñir","non_cognate","1","1","0",1.081,1,0.0778865386570712
"706","sl3_06","aljizo","pseudoword","0","0","1",1.831,1,0.604862265692374
"707","sl3_06","diebro","pseudoword","0","0","1",1.197,1,0.179818426575836
"708","sl3_06","aurora","two_way_cognate","1","1","0",1.897,1,0.640273690952877
"709","sl3_06","diroco","pseudoword","0","0","1",0.881,1,-0.126697653045958
"710","sl3_06","guerra","non_cognate","1","1","0",0.747,1,-0.29169009384932
"711","sl3_06","moral","three_way_cognate","1","1","0",0.647,1,-0.435408984481236
"712","sl3_06","edioso","pseudoword","0","0","1",1.53,1,0.425267735404344
"713","sl3_06","bará","pseudoword","0","0","1",0.984,1,-0.0161293819298836
"714","sl3_06","horror","three_way_cognate","1","1","0",0.664,1,-0.409473129505703
"715","sl3_06","torso","two_way_cognate","1","1","0",0.645,1,-0.438504962186365
"716","sl3_06","dibrea","pseudoword","0","0","1",0.75,1,-0.287682072451781
"717","sl3_06","clamor","two_way_cognate","1","1","0",0.649,1,-0.432322562278047
"718","sl3_06","suelet","pseudoword","0","0","1",0.665,1,-0.407968238326283
"719","sl3_06","rostro","non_cognate","1","1","0",0.731,1,-0.313341819232359
"720","sl3_06","listo","non_cognate","1","1","0",0.617,1,-0.482886255076749
"721","sl3_06","ala","non_cognate","1","1","0",0.519,1,-0.655851395816248
"722","sl3_06","samón","pseudoword","0","0","1",0.834,1,-0.18152187662339
"723","sl3_06","bugor","pseudoword","0","0","1",0.936,1,-0.066139802504545
"724","sl3_06","lobe","pseudoword","0","0","1",0.681,1,-0.384192972832625
"725","sl3_06","leniz","pseudoword","0","0","1",0.829,1,-0.187535123846842
"726","sl3_06","civil","two_way_cognate","1","1","0",0.898,1,-0.107585210679937
"727","sl3_06","virios","pseudoword","0","0","1",0.871,1,-0.138113302129634
"728","sl3_06","rendir","non_cognate","1","1","0",0.629,1,-0.463624022281697
"729","sl3_06","inichó","pseudoword","0","0","1",2.029,1,0.707543060843678
"730","sl3_06","brillo","non_cognate","1","1","0",0.795,1,-0.229413164327805
"731","sl3_06","cuenco","non_cognate","1","1","0",0.945,1,-0.0565703514883944
"732","sl3_06","mortal","two_way_cognate","1","1","0",0.88,1,-0.127833371509885
"733","sl3_06","emén","pseudoword","0","0","1",1.18,1,0.165514438477573
"734","sl3_06","mango","three_way_cognate","1","1","0",0.832,1,-0.183922838160928
"735","sl3_06","nocó","pseudoword","0","0","1",0.729,1,-0.316081546973479
"736","sl3_06","chat","three_way_cognate","1","1","0",1.768,1,0.569848964215452
"737","sl3_06","color","two_way_cognate","1","1","0",0.618,1,-0.481266821524446
"738","sl3_06","enorme","non_cognate","1","1","0",0.713,1,-0.338273858567841
"739","sl3_06","equipo","non_cognate","1","1","0",0.619,1,-0.479650006297541
"740","sl3_06","civas","pseudoword","0","0","1",0.863,1,-0.147340587898709
"741","sl3_06","parre","pseudoword","0","0","1",1.365,1,0.311154428636923
"742","sl3_06","boñaz","pseudoword","0","0","1",0.793,1,-0.231932057347289
"743","sl3_06","pelí","pseudoword","0","0","1",1.197,1,0.179818426575836
"744","sl3_06","chote","pseudoword","0","0","1",0.948,1,-0.0534007767271153
"745","sl3_06","tator","pseudoword","0","0","1",0.699,1,-0.358104536748327
"746","sl3_06","piano","two_way_cognate","1","1","0",0.948,1,-0.0534007767271153
"747","sl3_06","nomata","pseudoword","0","0","1",0.948,1,-0.0534007767271153
"748","sl3_06","trauma","three_way_cognate","1","1","0",1,1,0
"749","sl3_06","suave","non_cognate","1","1","0",0.75,1,-0.287682072451781
"750","sl3_06","gotro","pseudoword","0","0","1",0.799,1,-0.224394333215862
"751","sl3_06","panté","pseudoword","0","0","1",2.002,1,0.694146680893029
"752","sl3_06","caro","non_cognate","1","1","0",0.799,1,-0.224394333215862
"753","sl3_06","albino","three_way_cognate","1","1","0",1.234,1,0.210260925483196
"754","sl3_06","laras","pseudoword","0","0","1",1.732,1,0.549276810140243
"755","sl3_06","cengo","pseudoword","0","0","1",0.836,1,-0.179126665897435
"756","sl3_06","ceme","pseudoword","0","0","1",0.802,1,-0.220646671115623
"757","sl3_06","kilo","three_way_cognate","1","1","0",1.032,1,0.031498667059371
"758","sl3_06","pitis","pseudoword","0","0","1",0.786,1,-0.24079848655293
"759","sl3_06","honor","two_way_cognate","1","1","0",0.682,1,-0.382725621138675
"760","sl3_06","vien","pseudoword","0","0","1",2.02,1,0.703097511413113
"761","sl3_06","cobén","pseudoword","0","0","1",1.351,1,0.300845058978062
"762","sl3_06","puñal","non_cognate","1","1","0",0.837,1,-0.177931208492662
"763","sl3_06","sacar","non_cognate","1","1","0",0.665,1,-0.407968238326283
"764","sl3_06","aviso","non_cognate","1","1","0",0.614,1,-0.487760350834995
"765","sl3_06","épinas","pseudoword","0","0","1",1.148,1,0.138021297897375
"766","sl3_06","pelvis","two_way_cognate","1","1","0",0.815,1,-0.204567165741274
"767","sl3_06","trugo","pseudoword","0","0","1",0.815,1,-0.204567165741274
"768","sl3_06","fiscal","two_way_cognate","1","1","0",0.666,1,-0.406465608441748
"769","sl3_06","enigma","two_way_cognate","1","1","0",0.801,1,-0.221894331913778
"770","sl3_06","chorde","pseudoword","0","0","1",0.702,1,-0.353821874956326
"771","sl3_06","vigor","two_way_cognate","1","1","0",0.664,1,-0.409473129505703
"772","sl3_06","coyo","pseudoword","0","0","1",0.784,1,-0.243346258631729
"773","sl3_06","aura","three_way_cognate","1","1","0",0.921,1,-0.0822952427268302
"774","sl3_06","babrá","pseudoword","0","0","1",0.716,1,-0.334075112021491
"775","sl3_06","tobre","pseudoword","0","0","1",1.083,1,0.0797349680188535
"776","sl3_06","estulo","pseudoword","0","0","1",0.947,1,-0.0544561857960589
"777","sl3_06","vueras","pseudoword","0","0","1",0.749,1,-0.289016295464918
"778","sl3_06","gravés","pseudoword","0","0","1",0.449,1,-0.800732391239883
"779","sl3_06","conso","pseudoword","0","0","1",0.698,1,-0.359536176219765
"780","sl3_06","esís","pseudoword","0","0","1",0.732,1,-0.311974765020825
"781","sl3_06","kugis","pseudoword","0","0","1",0.636,1,-0.452556715642015
"782","sl3_06","diabo","pseudoword","0","0","1",0.847,1,-0.166054584330083
"783","sl3_06","blando","non_cognate","1","1","0",1.132,1,0.123985979780991
"784","sl3_06","desaro","pseudoword","0","0","1",0.865,1,-0.145025772050258
"785","sl3_06","frasis","pseudoword","0","0","1",0.668,1,-0.403467105445491
"786","sl3_06","harvé","pseudoword","0","0","1",2.113,1,0.74810873863392
"787","sl3_06","total","two_way_cognate","1","1","0",0.715,1,-0.335472736288129
"788","sl3_06","aduana","non_cognate","1","1","0",1.265,1,0.235072122179483
"789","sl3_06","sierra","non_cognate","1","1","0",0.747,1,-0.29169009384932
"790","sl3_06","plural","three_way_cognate","1","1","0",0.484,1,-0.725670372265505
"791","sl3_06","mauja","pseudoword","0","0","1",0.783,1,-0.244622582991334
"792","sl3_06","nasce","pseudoword","0","0","1",2.013,1,0.699626146657654
"793","sl3_06","fuar","pseudoword","0","0","1",0.866,1,-0.143870370419702
"794","sl3_06","cuenco","non_cognate","1","1","0",0.916,1,-0.0877389143080067
"795","sl3_06","editor","two_way_cognate","1","1","0",0.649,1,-0.432322562278047
"796","sl3_06","arane","pseudoword","0","0","1",0.599,1,-0.512493680866688
"797","sl3_06","ozoso","pseudoword","0","0","1",0.863,1,-0.147340587898709
"798","sl3_06","regalo","non_cognate","1","1","0",0.7,1,-0.356674943938732
"799","sl3_06","anfia","pseudoword","0","0","1",0.936,1,-0.066139802504545
"800","sl3_06","pupica","pseudoword","0","0","1",0.81,1,-0.210721031315653
"801","sl3_06","pegar","non_cognate","1","1","0",0.846,1,-0.167235919375914
"802","sl3_06","mibro","pseudoword","0","0","1",0.615,1,-0.486133011175619
"803","sl3_06","jauda","pseudoword","0","0","1",1.021,1,0.0207825391825284
"804","sl3_06","maldad","non_cognate","1","1","0",0.781,1,-0.247180129142451
"805","sl3_06","barbs","pseudoword","0","0","1",0.746,1,-0.293029678778376
"806","sl3_06","altar","three_way_cognate","1","1","0",1.464,1,0.38117241553912
"807","sl3_06","chocar","non_cognate","1","1","0",0.931,1,-0.0714960017050699
"808","sl3_06","muleta","non_cognate","1","1","0",1.598,1,0.468752847344083
"809","sl3_06","clan","three_way_cognate","1","1","0",0.848,1,-0.164874643190234
"810","sl3_06","llevar","non_cognate","1","1","0",0.594,1,-0.520875959619492
"811","sl3_06","sasos","pseudoword","0","0","1",0.734,1,-0.309246250367621
"812","sl3_06","pabea","pseudoword","0","0","1",0.816,1,-0.20334092401803
"813","sl3_06","golla","pseudoword","0","0","1",0.712,1,-0.339677367570161
"814","sl3_06","actor","two_way_cognate","1","1","0",0.713,1,-0.338273858567841
"815","sl3_06","rúo","pseudoword","0","0","1",1.347,1,0.297879897428227
"816","sl3_06","tapón","non_cognate","1","1","0",1.052,1,0.0506931143155182
"817","sl3_06","ánimo","non_cognate","1","1","0",0.566,1,-0.569161200778954
"818","sl3_06","casual","two_way_cognate","1","1","0",0.514,1,-0.665532013526972
"819","sl3_06","olzan","pseudoword","0","0","1",0.715,1,-0.335472736288129
"820","sl3_06","tradía","pseudoword","0","0","1",0.648,1,-0.433864582629862
"821","sl3_06","siglo","non_cognate","1","1","0",0.682,1,-0.382725621138675
"822","sl3_06","llamar","non_cognate","1","1","0",1.114,1,0.107957141505092
"823","sl3_06","pasta","two_way_cognate","1","1","0",0.613,1,-0.489390343045926
"824","sl3_06","viable","two_way_cognate","1","1","0",1.445,1,0.368109321564396
"825","sl3_06","pico","non_cognate","1","1","0",0.949,1,-0.0523464803722092
"826","sl3_06","hotel","three_way_cognate","1","1","0",0.647,1,-0.435408984481236
"827","sl3_06","rizado","non_cognate","1","1","0",1.381,1,0.322807874427155
"828","sl3_06","asumie","pseudoword","0","0","1",0.797,1,-0.226900600191922
"829","sl3_06","test","three_way_cognate","1","1","0",0.795,1,-0.229413164327805
"830","sl3_06","tapa","non_cognate","1","1","0",1.194,1,0.17730901497041
"831","sl3_06","hilo","non_cognate","1","1","0",0.628,1,-0.465215112513938
"832","sl3_06","entodo","pseudoword","0","0","1",0.881,1,-0.126697653045958
"833","sl3_06","animal","two_way_cognate","1","1","0",0.615,1,-0.486133011175619
"834","sl3_06","feo","non_cognate","1","1","0",0.721,1,-0.327116141697188
"835","sl3_06","tecia","pseudoword","0","0","1",1.014,1,0.0139029051689914
"836","sl3_06","dogue","pseudoword","0","0","1",0.896,1,-0.109814866007207
"837","sl3_07","sacar","non_cognate","1","1","0",1.0695,1,0.0671912495403232
"838","sl3_07","harvé","pseudoword","0","0","1",1.6955,1,0.527977682583556
"839","sl3_07","coyo","pseudoword","0","0","1",1.4936,1,0.401189313245376
"840","sl3_07","feo","non_cognate","1","1","0",1.0455,1,0.0444952398865513
"841","sl3_07","aura","three_way_cognate","1","1","0",0.6603,1,-0.415061001781611
"842","sl3_07","sasos","pseudoword","0","0","1",0.9638,1,-0.0368714747759047
"843","sl3_07","cricó","pseudoword","0","0","1",2.1765,1,0.777718082010215
"844","sl3_07","emén","pseudoword","0","0","1",1.3947,1,0.332679338382512
"845","sl3_07","tradía","pseudoword","0","0","1",1.4633,1,0.380694159116244
"846","sl3_07","edioso","pseudoword","0","0","1",1.5368,1,0.42970233247221
"847","sl3_07","collar","two_way_cognate","1","1","0",1.0473,1,0.0462154237969629
"848","sl3_07","vueras","pseudoword","0","0","1",1.4267,1,0.355364085138632
"849","sl3_07","total","two_way_cognate","1","1","0",0.7587,1,-0.276148836638108
"850","sl3_07","bará","pseudoword","0","0","1",1.4286,1,0.356694943738735
"851","sl3_07","extra","three_way_cognate","1","1","0",2.3044,1,0.834820338876091
"852","sl3_07","kilo","three_way_cognate","1","1","0",0.9953,1,-0.00471107973011922
"853","sl3_07","desaro","pseudoword","0","0","1",1.5513,1,0.439093289088148
"854","sl3_07","babrá","pseudoword","0","0","1",1.768,1,0.569848964215452
"855","sl3_07","suave","non_cognate","1","1","0",1.0704,1,0.068032410391827
"856","sl3_07","drama","three_way_cognate","1","1","0",0.6448,1,-0.438815087789718
"857","sl3_07","pegar","non_cognate","1","1","0",0.9951,1,-0.00491204436102064
"858","sl3_07","leniz","pseudoword","0","0","1",0.6947,1,-0.364275181283302
"859","sl3_07","huenos","pseudoword","0","0","1",0.7603,1,-0.274042186747746
"860","sl3_07","disco","three_way_cognate","1","1","0",0.7611,1,-0.272990523708791
"861","sl3_07","mauja","pseudoword","0","0","1",0.9125,1,-0.0915671935254905
"862","sl3_07","suelet","pseudoword","0","0","1",1.8247,1,0.601415589960352
"863","sl3_07","densó","pseudoword","0","0","1",1.4088,1,0.342738278199859
"864","sl3_07","laras","pseudoword","0","0","1",1.7332,1,0.549969410883617
"865","sl3_07","tapón","non_cognate","1","1","0",2.3976,1,0.874468237020317
"866","sl3_07","blando","non_cognate","1","1","0",0.9121,1,-0.0920056457960243
"867","sl3_07","mango","three_way_cognate","1","1","0",0.8375,1,-0.177334015282916
"868","sl3_07","trcia","pseudoword","0","0","1",1.3483,1,0.298844539657892
"869","sl3_07","gió","pseudoword","0","0","1",1.4815,1,0.393055088031483
"870","sl3_07","bugor","pseudoword","0","0","1",1.0333,1,0.0327575642381723
"871","sl3_07","editor","two_way_cognate","1","1","0",0.6862,1,-0.376586148557788
"872","sl3_07","lidena","pseudoword","0","0","1",1.0612,1,0.0594003432814475
"873","sl3_07","prías","pseudoword","0","0","1",2.4925,1,0.913286222853856
"874","sl3_07","colcha","non_cognate","1","1","0",2.0003,1,0.69329716931107
"875","sl3_07","olzan","pseudoword","0","0","1",1.4866,1,0.396491633309056
"876","sl3_07","horror","three_way_cognate","1","1","0",0.7849,1,-0.242198957849369
"877","sl3_07","conso","pseudoword","0","0","1",2.0432,1,0.714517206296138
"878","sl3_07","monue","pseudoword","0","0","1",1.2208,1,0.199506381548056
"879","sl3_07","llamar","non_cognate","1","1","0",0.7146,1,-0.336032333392828
"880","sl3_07","muñeca","non_cognate","1","1","0",0.8118,1,-0.20850127457734
"881","sl3_07","listo","non_cognate","1","1","0",0.6549,1,-0.423272726758129
"882","sl3_07","aviso","non_cognate","1","1","0",0.7467,1,-0.292091780940481
"883","sl3_07","punta","non_cognate","1","1","0",0.7352,1,-0.30761270794066
"884","sl3_07","trugo","pseudoword","0","0","1",1.1035,1,0.098486946714654
"885","sl3_07","casual","two_way_cognate","1","1","0",0.7211,1,-0.326977455059423
"886","sl3_07","mafia","three_way_cognate","1","1","0",1.3799,1,0.322011032775372
"887","sl3_07","regalo","non_cognate","1","1","0",0.7119,1,-0.33981782687231
"888","sl3_07","rostro","non_cognate","1","1","0",1.2369,1,0.212608249398827
"889","sl3_07","dubo","pseudoword","0","0","1",1.1295,1,0.121775056925921
"890","sl3_07","próces","pseudoword","0","0","1",2.2671,1,0.818501481712647
"891","sl3_07","muleta","non_cognate","1","1","0",0.8818,1,-0.1257900060583
"892","sl3_07","tapa","non_cognate","1","1","0",1.2098,1,0.190455056690677
"893","sl3_07","torta","non_cognate","1","1","0",0.8788,1,-0.129197938471682
"894","sl3_07","molor","pseudoword","0","0","1",2.3451,1,0.852328044912257
"895","sl3_07","maldad","non_cognate","1","1","0",0.9991,1,-0.000900405243164155
"896","sl3_07","flora","three_way_cognate","1","1","0",0.6494,1,-0.431706419313391
"897","sl3_07","pabea","pseudoword","0","0","1",1.4638,1,0.38103579418499
"898","sl3_07","hilo","non_cognate","1","1","0",1.6368,1,0.492743116215225
"899","sl3_07","civil","two_way_cognate","1","1","0",1.3631,1,0.30976151759466
"900","sl3_07","gravés","pseudoword","0","0","1",2.3177,1,0.840575314626377
"901","sl3_07","guerra","non_cognate","1","1","0",1.1314,1,0.123455803926918
"902","sl3_07","moral","three_way_cognate","1","1","0",0.8817,1,-0.125903416889156
"903","sl3_07","pasta","two_way_cognate","1","1","0",0.9645,1,-0.0361454466363533
"904","sl3_07","portal","three_way_cognate","1","1","0",0.8548,1,-0.156887755537144
"905","sl3_07","lobe","pseudoword","0","0","1",0.8466,1,-0.166526950895314
"906","sl3_07","animal","two_way_cognate","1","1","0",0.9237,1,-0.0793679353835727
"907","sl3_07","rizate","pseudoword","0","0","1",2.3349,1,0.847969063651315
"908","sl3_07","parre","pseudoword","0","0","1",1.6216,1,0.483413316155653
"909","sl3_07","tobre","pseudoword","0","0","1",2.2098,1,0.792902013696938
"910","sl3_07","pico","non_cognate","1","1","0",1.3985,1,0.335400233659877
"911","sl3_07","actor","two_way_cognate","1","1","0",0.9704,1,-0.0300469213522966
"912","sl3_07","dobbo","pseudoword","0","0","1",1.4274,1,0.35585460755483
"913","sl3_07","ánimo","non_cognate","1","1","0",1.2151,1,0.194826377932429
"914","sl3_07","llevar","non_cognate","1","1","0",0.8131,1,-0.206901175768345
"915","sl3_07","asumie","pseudoword","0","0","1",2.4951,1,0.914328808560614
"916","sl3_07","seled","pseudoword","0","0","1",2.119,1,0.750944279286162
"917","sl3_07","morrá","pseudoword","0","0","1",1.163,1,0.151002873536527
"918","sl3_07","suelo","non_cognate","1","1","0",1.0371,1,0.0364283566135514
"919","sl3_07","mortal","two_way_cognate","1","1","0",2.3089,1,0.836771220642821
"920","sl3_07","rizado","non_cognate","1","1","0",0.9294,1,-0.0732160623312591
"921","sl3_07","plan","three_way_cognate","1","1","0",0.6459,1,-0.43711058594371
"922","sl3_07","losco","pseudoword","0","0","1",1.1838,1,0.168729603274488
"923","sl3_07","ala","non_cognate","1","1","0",0.747,1,-0.29169009384932
"924","sl3_07","mibro","pseudoword","0","0","1",0.8637,1,-0.146529792695897
"925","sl3_07","rumor","two_way_cognate","1","1","0",0.8613,1,-0.149312403187009
"926","sl3_07","tiza","non_cognate","1","1","0",0.9736,1,-0.0267547373088196
"927","sl3_07","gotro","pseudoword","0","0","1",1.1361,1,0.127601344593722
"928","sl3_07","chocar","non_cognate","1","1","0",1.6647,1,0.509644927017828
"929","sl3_07","brillo","non_cognate","1","1","0",1.0479,1,0.046788161498759
"930","sl3_07","fiscal","two_way_cognate","1","1","0",1.0105,1,0.0104452578615386
"931","sl3_07","test","three_way_cognate","1","1","0",1.0452,1,0.0442082546643203
"932","sl3_07","forro","non_cognate","1","1","0",1.3699,1,0.314737744475207
"933","sl3_07","caro","non_cognate","1","1","0",1.054,1,0.0525924501191706
"934","sl3_07","honor","two_way_cognate","1","1","0",0.7597,1,-0.274831660472961
"935","sl3_07","siglo","non_cognate","1","1","0",1.0828,1,0.079550278758009
"936","sl3_07","altar","three_way_cognate","1","1","0",0.8804,1,-0.12737892932983
"937","sl3_07","flecha","non_cognate","1","1","0",1.9812,1,0.683702721731946
"938","sl3_07","cengo","pseudoword","0","0","1",1.7768,1,0.574813993598081
"939","sl3_07","aurora","two_way_cognate","1","1","0",0.8827,1,-0.12476988695595
"940","sl3_07","diroco","pseudoword","0","0","1",1.2811,1,0.247719083880251
"941","sl3_07","kugis","pseudoword","0","0","1",1.7605,1,0.56559785961297
"942","sl3_07","torso","two_way_cognate","1","1","0",1.079,1,0.0760346862759976
"943","sl3_07","hotel","three_way_cognate","1","1","0",0.8966,1,-0.109145447260798
"944","sl3_07","virios","pseudoword","0","0","1",1.7667,1,0.569113399636498
"945","sl3_07","pelvis","two_way_cognate","1","1","0",0.9455,1,-0.0560413908836249
"946","sl3_07","chorde","pseudoword","0","0","1",2.4511,1,0.896536903387294
"947","sl3_07","golf","three_way_cognate","1","1","0",1.0779,1,0.0750147038054458
"948","sl3_07","rendir","non_cognate","1","1","0",1.2507,1,0.223703394572724
"949","sl3_07","sierra","non_cognate","1","1","0",2.0678,1,0.726485240170456
"950","sl3_07","plural","three_way_cognate","1","1","0",0.9385,1,-0.0634724229555735
"951","sl3_07","enorme","non_cognate","1","1","0",2.1614,1,0.770756159886928
"952","sl3_07","albino","three_way_cognate","1","1","0",1.0489,1,0.0477419959854211
"953","sl3_07","fuar","pseudoword","0","0","1",1.3903,1,0.329519551193361
"954","sl3_07","trauma","three_way_cognate","1","1","0",0.8054,1,-0.216416230564783
"955","sl3_07","tumor","three_way_cognate","1","1","0",0.8118,1,-0.20850127457734
"956","sl3_07","nasce","pseudoword","0","0","1",1.1507,1,0.140370452847276
"957","sl3_07","puñal","non_cognate","1","1","0",1.6034,1,0.472126374626714
"958","sl3_07","jauda","pseudoword","0","0","1",1.9695,1,0.677779703428824
"959","sl3_07","enigma","two_way_cognate","1","1","0",1.0534,1,0.0520230280671518
"960","sl3_07","piano","two_way_cognate","1","1","0",0.7007,1,-0.355675443605649
"961","sl3_07","color","two_way_cognate","1","1","0",0.5857,1,-0.5349475658864
"962","sl3_07","pitis","pseudoword","0","0","1",1.2641,1,0.234360406519375
"963","sl3_08","rizate","pseudoword","0","0","1",1.6626,1,0.508382642114851
"964","sl3_08","mauja","pseudoword","0","0","1",0.8552,1,-0.156419919271302
"965","sl3_08","vinzó","pseudoword","0","0","1",1.0099,1,0.0098513160503742
"966","sl3_08","pupica","pseudoword","0","0","1",1.6262,1,0.4862460047916
"967","sl3_08","ozoso","pseudoword","0","0","1",0.7958,1,-0.228407380989309
"968","sl3_08","regalo","non_cognate","1","1","0",0.7802,1,-0.248204981909581
"969","sl3_08","altar","three_way_cognate","1","1","0",0.6855,1,-0.377606779979768
"970","sl3_08","albino","three_way_cognate","1","1","0",1.3704,1,0.315102668027773
"971","sl3_08","suelo","non_cognate","1","1","0",0.7097,1,-0.3429129334512
"972","sl3_08","monue","pseudoword","0","0","1",0.7994,1,-0.223893832704914
"973","sl3_08","hotel","three_way_cognate","1","1","0",0.6923,1,-0.367735891298157
"974","sl3_08","tator","pseudoword","0","0","1",0.9779,1,-0.0223478636639076
"975","sl3_08","parre","pseudoword","0","0","1",0.7716,1,-0.259288997950563
"976","sl3_08","rúo","pseudoword","0","0","1",1.0258,1,0.0254727959730311
"977","sl3_08","viable","two_way_cognate","1","1","0",1.6198,1,0.482302684832752
"978","sl3_08","piano","two_way_cognate","1","1","0",0.749,1,-0.289016295464918
"979","sl3_08","harvé","pseudoword","0","0","1",0.8028,1,-0.219649662059954
"980","sl3_08","desaro","pseudoword","0","0","1",0.8032,1,-0.219151530044672
"981","sl3_08","disco","three_way_cognate","1","1","0",0.8793,1,-0.128629142597181
"982","sl3_08","seled","pseudoword","0","0","1",0.7657,1,-0.266964830863059
"983","sl3_08","gió","pseudoword","0","0","1",0.7653,1,-0.267487365166262
"984","sl3_08","cengo","pseudoword","0","0","1",0.7786,1,-0.250257843805782
"985","sl3_08","torso","two_way_cognate","1","1","0",1.3397,1,0.292445708300803
"986","sl3_08","guerra","non_cognate","1","1","0",0.7675,1,-0.264616799520785
"987","sl3_08","chote","pseudoword","0","0","1",0.9838,1,-0.0163326546208976
"988","sl3_08","actor","two_way_cognate","1","1","0",0.9334,1,-0.0689214454664218
"989","sl3_08","plan","three_way_cognate","1","1","0",0.752,1,-0.285018955032297
"990","sl3_08","huenos","pseudoword","0","0","1",0.9437,1,-0.0579469599548497
"991","sl3_08","muñeca","non_cognate","1","1","0",0.8629,1,-0.147456469467875
"992","sl3_08","tobre","pseudoword","0","0","1",0.8816,1,-0.126016840583487
"993","sl3_08","civil","two_way_cognate","1","1","0",0.8814,1,-0.12624372657425
"994","sl3_08","pabea","pseudoword","0","0","1",0.8444,1,-0.169128963007971
"995","sl3_08","ánimo","non_cognate","1","1","0",0.8574,1,-0.15385072481826
"996","sl3_08","vueras","pseudoword","0","0","1",0.9836,1,-0.0165359686400995
"997","sl3_08","equipo","non_cognate","1","1","0",0.7055,1,-0.348848507689268
"998","sl3_08","bará","pseudoword","0","0","1",0.8504,1,-0.162048451954399
"999","sl3_08","esís","pseudoword","0","0","1",1.0774,1,0.0745507312642962
"1000","sl3_08","ceme","pseudoword","0","0","1",0.7855,1,-0.241434821286461
"1001","sl3_08","collar","two_way_cognate","1","1","0",1.7145,1,0.539121492920838
"1002","sl3_08","tecia","pseudoword","0","0","1",0.7807,1,-0.247564325855892
"1003","sl3_08","chorde","pseudoword","0","0","1",0.8979,1,-0.107696575455374
"1004","sl3_08","muleta","non_cognate","1","1","0",1.2152,1,0.194908672299426
"1005","sl3_08","asumie","pseudoword","0","0","1",1.0778,1,0.0749219265172593
"1006","sl3_08","virios","pseudoword","0","0","1",0.9812,1,-0.0189789665978029
"1007","sl3_08","rostro","non_cognate","1","1","0",0.9413,1,-0.0604933804289625
"1008","sl3_08","suave","non_cognate","1","1","0",0.7275,1,-0.318141279936489
"1009","sl3_08","suelet","pseudoword","0","0","1",0.9109,1,-0.0933221572313728
"1010","sl3_08","pitis","pseudoword","0","0","1",0.9801,1,-0.0201006717070029
"1011","sl3_08","golf","three_way_cognate","1","1","0",1.0834,1,0.0801042442416614
"1012","sl3_08","conso","pseudoword","0","0","1",1.3339,1,0.288106982164861
"1013","sl3_08","drama","three_way_cognate","1","1","0",0.8725,1,-0.136392624905555
"1014","sl3_08","llamar","non_cognate","1","1","0",0.7416,1,-0.298945264730492
"1015","sl3_08","hueas","pseudoword","0","0","1",0.8099,1,-0.210844495727193
"1016","sl3_08","hurcos","pseudoword","0","0","1",0.8515,1,-0.160755778879394
"1017","sl3_08","diroco","pseudoword","0","0","1",0.8297,1,-0.186691089311897
"1018","sl3_08","siglo","non_cognate","1","1","0",0.7802,1,-0.248204981909581
"1019","sl3_08","torta","non_cognate","1","1","0",1.0949,1,0.0906630348972421
"1020","sl3_08","rumor","two_way_cognate","1","1","0",1.0018,1,0.0017983819413794
"1021","sl3_08","animal","two_way_cognate","1","1","0",0.7251,1,-0.32144570260459
"1022","sl3_08","nocita","pseudoword","0","0","1",0.8078,1,-0.213440775852825
"1023","sl3_08","caro","non_cognate","1","1","0",1.581,1,0.458057558227335
"1024","sl3_08","enigma","two_way_cognate","1","1","0",0.8835,1,-0.123863987222386
"1025","sl3_08","dubo","pseudoword","0","0","1",1.2621,1,0.232777000282448
"1026","sl3_08","inichó","pseudoword","0","0","1",1.1784,1,0.164157586166283
"1027","sl3_08","épinas","pseudoword","0","0","1",1.0235,1,0.0232281261192072
"1028","sl3_08","cobén","pseudoword","0","0","1",0.9236,1,-0.0794762015017968
"1029","sl3_08","aura","three_way_cognate","1","1","0",0.692,1,-0.368169323364468
"1030","sl3_08","diebro","pseudoword","0","0","1",0.8651,1,-0.144910171795808
"1031","sl3_08","punta","non_cognate","1","1","0",0.7945,1,-0.230042293005366
"1032","sl3_08","trauma","three_way_cognate","1","1","0",1.2869,1,0.252236225517482
"1033","sl3_08","puñal","non_cognate","1","1","0",0.8463,1,-0.166881372306077
"1034","sl3_08","feo","non_cognate","1","1","0",0.7815,1,-0.246540129120606
"1035","sl3_08","moral","three_way_cognate","1","1","0",0.6742,1,-0.394228476182177
"1036","sl3_08","tumor","three_way_cognate","1","1","0",0.8617,1,-0.148848096736416
"1037","sl3_08","medium","pseudoword","0","0","1",1.0434,1,0.0424846116061554
"1038","sl3_08","horror","three_way_cognate","1","1","0",0.8331,1,-0.182601596001274
"1039","sl3_08","portal","three_way_cognate","1","1","0",0.7387,1,-0.302863394447445
"1040","sl3_08","edioso","pseudoword","0","0","1",0.7102,1,-0.342208658473149
"1041","sl3_08","rizado","non_cognate","1","1","0",0.8985,1,-0.107028572758523
"1042","sl3_08","listo","non_cognate","1","1","0",0.8644,1,-0.145719654349406
"1043","sl3_08","clan","three_way_cognate","1","1","0",1.3041,1,0.265513147680719
"1044","sl3_08","gino","pseudoword","0","0","1",0.8767,1,-0.131590420387597
"1045","sl3_08","nasce","pseudoword","0","0","1",0.8527,1,-0.159347493234133
"1046","sl3_08","sasos","pseudoword","0","0","1",0.835,1,-0.180323554131282
"1047","sl3_08","casual","two_way_cognate","1","1","0",1.1662,1,0.153750599805918
"1048","sl3_08","morrá","pseudoword","0","0","1",0.6893,1,-0.372078689090531
"1049","sl3_08","fomeó","pseudoword","0","0","1",1.4373,1,0.362766353575049
"1050","sl3_08","gotro","pseudoword","0","0","1",0.9306,1,-0.0719257395715889
"1051","sl3_08","bugor","pseudoword","0","0","1",1.1329,1,0.124780716897306
"1052","sl3_08","color","two_way_cognate","1","1","0",1.2811,1,0.247719083880251
"1053","sl3_08","jauda","pseudoword","0","0","1",1.0649,1,0.062880898039201
"1054","sl3_08","dibrea","pseudoword","0","0","1",0.7497,1,-0.288082152473121
"1055","sl3_08","brillo","non_cognate","1","1","0",1.0761,1,0.0733433942242096
"1056","sl3_08","coyo","pseudoword","0","0","1",0.745,1,-0.294371060602578
"1057","sl3_08","editor","two_way_cognate","1","1","0",0.7762,1,-0.253345060047331
"1058","sl3_08","sacar","non_cognate","1","1","0",0.8991,1,-0.10636101599141
"1059","sl3_08","olzan","pseudoword","0","0","1",0.8986,1,-0.106917282346078
"1060","sl3_08","golla","pseudoword","0","0","1",0.8013,1,-0.221519870198112
"1061","sl3_08","trcia","pseudoword","0","0","1",0.6763,1,-0.391118514401243
"1062","sl3_08","panté","pseudoword","0","0","1",0.7631,1,-0.27036619468655
"1063","sl3_08","grigir","pseudoword","0","0","1",0.931,1,-0.0714960017050699
"1064","sl3_08","kugis","pseudoword","0","0","1",0.6593,1,-0.416576612862883
"1065","sl3_08","anfia","pseudoword","0","0","1",0.6261,1,-0.468245176230872
"1066","sl3_08","laras","pseudoword","0","0","1",0.6325,1,-0.458075058380462
"1067","sl3_08","emén","pseudoword","0","0","1",0.7584,1,-0.276544328041325
"1068","sl3_08","trugo","pseudoword","0","0","1",0.9336,1,-0.0687071980097908
"1069","sl3_08","martir","pseudoword","0","0","1",1.1063,1,0.101021114058728
"1070","sl3_08","nomata","pseudoword","0","0","1",0.9161,1,-0.0876297499609741
"1071","sl3_08","losco","pseudoword","0","0","1",1.1932,1,0.176638773658456
"1072","sl3_08","tradía","pseudoword","0","0","1",1.0859,1,0.0824091362407178
"1073","sl3_08","lobe","pseudoword","0","0","1",1.6622,1,0.508142026136789
"1074","sl3_08","barbs","pseudoword","0","0","1",0.8992,1,-0.10624979984271
"1075","sl3_08","pasta","two_way_cognate","1","1","0",0.6828,1,-0.381553288061852
"1076","sl3_08","diabo","pseudoword","0","0","1",0.7283,1,-0.317042227758268
"1077","sl3_08","pegar","non_cognate","1","1","0",0.9431,1,-0.0585829574322979
"1078","sl3_08","prave","pseudoword","0","0","1",0.6607,1,-0.414455399946297
"1079","sl3_08","lidena","pseudoword","0","0","1",0.7662,1,-0.266312046715588
"1080","sl3_08","prías","pseudoword","0","0","1",0.7651,1,-0.267748734744331
"1081","sl3_08","mango","three_way_cognate","1","1","0",1.0325,1,0.0319830458530507
"1082","sl3_08","cricó","pseudoword","0","0","1",0.7684,1,-0.263444848087735
"1083","sl3_08","nocó","pseudoword","0","0","1",0.6295,1,-0.462829425497735
"1084","sl3_08","chat","three_way_cognate","1","1","0",0.7441,1,-0.295579844578922
"1085","sl3_08","dogue","pseudoword","0","0","1",1.0345,1,0.0339182182034606
"1086","sl3_08","dobbo","pseudoword","0","0","1",0.7425,1,-0.297732408305282
"1087","sl3_08","civas","pseudoword","0","0","1",0.6967,1,-0.361400376946064
"1088","sl3_08","total","two_way_cognate","1","1","0",0.7999,1,-0.223268559127361
"1089","sl3_08","plural","three_way_cognate","1","1","0",1.6622,1,0.508142026136789
"1090","sl3_08","plago","pseudoword","0","0","1",1.2314,1,0.208151733494973
"1091","sl3_08","gravés","pseudoword","0","0","1",0.785,1,-0.242071561199729
"1092","sl3_08","fuar","pseudoword","0","0","1",0.747,1,-0.29169009384932
"1093","sl3_08","enorme","non_cognate","1","1","0",0.7593,1,-0.275358322762949
"1094","sl3_08","mortal","two_way_cognate","1","1","0",0.7939,1,-0.230797770251069
"1095","sl3_08","entodo","pseudoword","0","0","1",0.7622,1,-0.271546290542377
"1096","sl3_08","pico","non_cognate","1","1","0",1.331,1,0.285930539412975
"1097","sl3_08","llevar","non_cognate","1","1","0",0.9827,1,-0.0174513936137559
"1098","sl3_08","flora","three_way_cognate","1","1","0",0.83,1,-0.186329578191493
"1099","sl3_08","estulo","pseudoword","0","0","1",0.8939,1,-0.11216136688833
"1100","sl3_08","listo","non_cognate","1","1","0",1.4518,1,0.372804165868603
"1101","sl3_08","aljizo","pseudoword","0","0","1",0.7439,1,-0.295848661784841
"1102","sl3_08","leniz","pseudoword","0","0","1",0.9424,1,-0.0593254660848148
"1103","sl3_08","babrá","pseudoword","0","0","1",0.7569,1,-0.278524134667015
"1104","sl3_08","densó","pseudoword","0","0","1",1.5256,1,0.422387775304072
"1105","sl3_09","épinas","pseudoword","0","0","1",0.975,1,-0.0253178079842899
"1106","sl3_09","pelvis","two_way_cognate","1","1","0",0.982,1,-0.0181639706276712
"1107","sl3_09","llamar","non_cognate","1","1","0",0.931,1,-0.0714960017050699
"1108","sl3_09","barbs","pseudoword","0","0","1",0.84,1,-0.174353387144778
"1109","sl3_09","hueas","pseudoword","0","0","1",1.089,1,0.0852598439508234
"1110","sl3_09","tumor","three_way_cognate","1","1","0",0.75,1,-0.287682072451781
"1111","sl3_09","muleta","non_cognate","1","1","0",1.439,1,0.363948427905231
"1112","sl3_09","color","two_way_cognate","1","1","0",0.952,1,-0.0491902441907718
"1113","sl3_09","caro","non_cognate","1","1","0",0.722,1,-0.325730140089311
"1114","sl3_09","cengo","pseudoword","0","0","1",0.821,1,-0.197232169529709
"1115","sl3_09","pupica","pseudoword","0","0","1",1.398,1,0.335042643811618
"1116","sl3_09","honor","two_way_cognate","1","1","0",0.649,1,-0.432322562278047
"1117","sl3_09","panté","pseudoword","0","0","1",0.767,1,-0.265268477614881
"1118","sl3_09","gravés","pseudoword","0","0","1",1.207,1,0.188137942115395
"1119","sl3_09","entodo","pseudoword","0","0","1",0.927,1,-0.0758017134162818
"1120","sl3_09","aduana","non_cognate","1","1","0",1.113,1,0.107059072293408
"1121","sl3_09","casual","two_way_cognate","1","1","0",0.919,1,-0.08446915662645
"1122","sl3_09","arane","pseudoword","0","0","1",0.949,1,-0.0523464803722092
"1123","sl3_09","torta","non_cognate","1","1","0",0.715,1,-0.335472736288129
"1124","sl3_09","suelo","non_cognate","1","1","0",0.751,1,-0.286349627218002
"1125","sl3_09","ánimo","non_cognate","1","1","0",0.637,1,-0.450985623409974
"1126","sl3_09","pelí","pseudoword","0","0","1",1.488,1,0.3974329364109
"1127","sl3_09","jauda","pseudoword","0","0","1",0.85,1,-0.162518929497775
"1128","sl3_09","animal","two_way_cognate","1","1","0",0.68,1,-0.385662480811985
"1129","sl3_09","rendir","non_cognate","1","1","0",0.963,1,-0.0377018671840115
"1130","sl3_09","feo","non_cognate","1","1","0",0.807,1,-0.214431610712188
"1131","sl3_09","patada","non_cognate","1","1","0",1.427,1,0.355574338494699
"1132","sl3_09","gotro","pseudoword","0","0","1",0.758,1,-0.277071893339765
"1133","sl3_09","listo","non_cognate","1","1","0",0.846,1,-0.167235919375914
"1134","sl3_09","plan","three_way_cognate","1","1","0",0.689,1,-0.372514007968479
"1135","sl3_09","tobre","pseudoword","0","0","1",1.209,1,0.189793571632656
"1136","sl3_09","ardor","two_way_cognate","1","1","0",0.933,1,-0.0693500781347932
"1137","sl3_09","dubo","pseudoword","0","0","1",1.086,1,0.0825012215117438
"1138","sl3_09","fuar","pseudoword","0","0","1",0.916,1,-0.0877389143080067
"1139","sl3_09","bará","pseudoword","0","0","1",1,1,0
"1140","sl3_09","hurcos","pseudoword","0","0","1",1.413,1,0.34571510370239
"1141","sl3_09","sacar","non_cognate","1","1","0",0.674,1,-0.39452516806983
"1142","sl3_09","densó","pseudoword","0","0","1",1.025,1,0.0246926125903714
"1143","sl3_09","mango","three_way_cognate","1","1","0",0.942,1,-0.059750004405774
"1144","sl3_09","guerra","non_cognate","1","1","0",0.717,1,-0.332679438382517
"1145","sl3_09","pasta","two_way_cognate","1","1","0",0.566,1,-0.569161200778954
"1146","sl3_09","chat","three_way_cognate","1","1","0",0.64,1,-0.44628710262842
"1147","sl3_09","horror","three_way_cognate","1","1","0",0.786,1,-0.24079848655293
"1148","sl3_09","monue","pseudoword","0","0","1",0.851,1,-0.161343150408763
"1149","sl3_09","emén","pseudoword","0","0","1",0.775,1,-0.25489224962879
"1150","sl3_09","brillo","non_cognate","1","1","0",0.786,1,-0.24079848655293
"1151","sl3_09","flecha","non_cognate","1","1","0",0.955,1,-0.0460439385014068
"1152","sl3_09","boñaz","pseudoword","0","0","1",1.476,1,0.389335726178281
"1153","sl3_09","albino","three_way_cognate","1","1","0",1.487,1,0.396760667478018
"1154","sl3_09","altar","three_way_cognate","1","1","0",0.588,1,-0.53102833108351
"1155","sl3_09","parre","pseudoword","0","0","1",0.686,1,-0.376877651256252
"1156","sl3_09","pabea","pseudoword","0","0","1",0.872,1,-0.136965855073157
"1157","sl3_09","nocó","pseudoword","0","0","1",0.742,1,-0.298406035814757
"1158","sl3_09","clan","three_way_cognate","1","1","0",0.765,1,-0.267879445155601
"1159","sl3_09","cobén","pseudoword","0","0","1",0.678,1,-0.388607991041741
"1160","sl3_09","samón","pseudoword","0","0","1",1.004,1,0.00399202126953746
"1161","sl3_09","nocita","pseudoword","0","0","1",1.12,1,0.113328685307003
"1162","sl3_09","pelvis","two_way_cognate","1","1","0",0.699,1,-0.358104536748327
"1163","sl3_09","pico","non_cognate","1","1","0",0.915,1,-0.0888312137066157
"1164","sl3_09","rúo","pseudoword","0","0","1",0.697,1,-0.360969868221613
"1165","sl3_09","gió","pseudoword","0","0","1",1.183,1,0.16805358499625
"1166","sl3_09","conso","pseudoword","0","0","1",0.748,1,-0.29035230100766
"1167","sl3_09","golf","three_way_cognate","1","1","0",0.916,1,-0.0877389143080067
"1168","sl3_09","edioso","pseudoword","0","0","1",1.321,1,0.278389025540188
"1169","sl3_09","trcia","pseudoword","0","0","1",0.948,1,-0.0534007767271153
"1170","sl3_09","diebro","pseudoword","0","0","1",0.85,1,-0.162518929497775
"1171","sl3_09","mortal","two_way_cognate","1","1","0",0.682,1,-0.382725621138675
"1172","sl3_09","ala","non_cognate","1","1","0",0.569,1,-0.563874844855806
"1173","sl3_09","lidena","pseudoword","0","0","1",0.807,1,-0.214431610712188
"1174","sl3_09","rumor","two_way_cognate","1","1","0",0.881,1,-0.126697653045958
"1175","sl3_09","mibro","pseudoword","0","0","1",0.752,1,-0.285018955032297
"1176","sl3_09","aviso","non_cognate","1","1","0",0.715,1,-0.335472736288129
"1177","sl3_09","trugo","pseudoword","0","0","1",1.018,1,0.017839918128331
"1178","sl3_09","aurora","two_way_cognate","1","1","0",0.752,1,-0.285018955032297
"1179","sl3_09","enorme","non_cognate","1","1","0",0.565,1,-0.570929547835696
"1180","sl3_09","dogue","pseudoword","0","0","1",0.719,1,-0.32989392126109
"1181","sl3_09","kilo","three_way_cognate","1","1","0",1.531,1,0.425921116675547
"1182","sl3_09","rizate","pseudoword","0","0","1",0.926,1,-0.0768810443359576
"1183","sl3_09","morrá","pseudoword","0","0","1",0.851,1,-0.161343150408763
"1184","sl3_09","flora","three_way_cognate","1","1","0",0.599,1,-0.512493680866688
"1185","sl3_09","estulo","pseudoword","0","0","1",0.809,1,-0.211956361923645
"1186","sl3_09","sierra","non_cognate","1","1","0",0.95,1,-0.0512932943875506
"1187","sl3_09","sasos","pseudoword","0","0","1",1.417,1,0.348541960708543
"1188","sl3_09","suelet","pseudoword","0","0","1",0.848,1,-0.164874643190234
"1189","sl3_09","civil","two_way_cognate","1","1","0",0.665,1,-0.407968238326283
"1190","sl3_09","plago","pseudoword","0","0","1",1.049,1,0.0478373294141601
"1191","sl3_09","total","two_way_cognate","1","1","0",0.605,1,-0.502526820951296
"1192","sl3_09","tator","pseudoword","0","0","1",1.183,1,0.16805358499625
"1193","sl3_09","lobe","pseudoword","0","0","1",0.798,1,-0.225646681532328
"1194","sl3_09","aura","three_way_cognate","1","1","0",0.584,1,-0.53785429615391
"1195","sl3_09","chorde","pseudoword","0","0","1",0.75,1,-0.287682072451781
"1196","sl3_09","test","three_way_cognate","1","1","0",0.801,1,-0.221894331913778
"1197","sl3_09","rostro","non_cognate","1","1","0",0.807,1,-0.214431610712188
"1198","sl3_09","golla","pseudoword","0","0","1",0.732,1,-0.311974765020825
"1199","sl3_09","venado","non_cognate","1","1","0",0.865,1,-0.145025772050258
"1200","sl3_09","plural","three_way_cognate","1","1","0",0.615,1,-0.486133011175619
"1201","sl3_09","puñal","non_cognate","1","1","0",0.965,1,-0.0356271776431512
"1202","sl3_09","laras","pseudoword","0","0","1",0.739,1,-0.302457358033935
"1203","sl3_09","equipo","non_cognate","1","1","0",0.639,1,-0.447850824604602
"1204","sl3_09","maldad","non_cognate","1","1","0",0.877,1,-0.131248286609954
"1205","sl3_09","prías","pseudoword","0","0","1",0.921,1,-0.0822952427268302
"1206","sl3_09","harvé","pseudoword","0","0","1",0.816,1,-0.20334092401803
"1207","sl3_09","collar","two_way_cognate","1","1","0",1.118,1,0.111541374732908
"1208","sl3_09","torso","two_way_cognate","1","1","0",0.697,1,-0.360969868221613
"1209","sl3_09","olzan","pseudoword","0","0","1",1.35,1,0.300104592450338
"1210","sl3_09","tecia","pseudoword","0","0","1",0.823,1,-0.194799078305067
"1211","sl3_09","suave","non_cognate","1","1","0",0.749,1,-0.289016295464918
"1212","sl3_09","losco","pseudoword","0","0","1",0.799,1,-0.224394333215862
"1213","sl3_09","vien","pseudoword","0","0","1",0.766,1,-0.266573109241546
"1214","sl3_09","ceme","pseudoword","0","0","1",0.721,1,-0.327116141697188
"1215","sl3_09","hotel","three_way_cognate","1","1","0",0.687,1,-0.375420986759788
"1216","sl3_09","nasce","pseudoword","0","0","1",0.668,1,-0.403467105445491
"1217","sl3_09","mauja","pseudoword","0","0","1",1.082,1,0.0788111804242898
"1218","sl3_09","trauma","three_way_cognate","1","1","0",0.668,1,-0.403467105445491
"1219","sl3_09","grigir","pseudoword","0","0","1",0.911,1,-0.0932123817221787
"1220","sl3_09","blando","non_cognate","1","1","0",0.733,1,-0.310609577095486
"1221","sl3_09","vueras","pseudoword","0","0","1",0.819,1,-0.199671195129068
"1222","sl3_09","editor","two_way_cognate","1","1","0",0.852,1,-0.160168752152821
"1223","sl3_09","babrá","pseudoword","0","0","1",0.942,1,-0.059750004405774
"1224","sl3_09","anfia","pseudoword","0","0","1",0.8,1,-0.22314355131421
"1225","sl3_09","fiscal","two_way_cognate","1","1","0",0.914,1,-0.089924707527987
"1226","sl3_09","vigor","two_way_cognate","1","1","0",0.699,1,-0.358104536748327
"1227","sl3_09","moral","three_way_cognate","1","1","0",0.481,1,-0.731888008876376
"1228","sl3_09","drama","three_way_cognate","1","1","0",0.801,1,-0.221894331913778
"1229","sl3_09","tapa","non_cognate","1","1","0",0.638,1,-0.449416995637347
"1230","sl3_09","disco","three_way_cognate","1","1","0",0.532,1,-0.631111789640493
"1231","sl3_09","diabo","pseudoword","0","0","1",1.018,1,0.017839918128331
"1232","sl3_09","nomata","pseudoword","0","0","1",0.891,1,-0.115410851511328
"1233","sl3_09","inichó","pseudoword","0","0","1",1.427,1,0.355574338494699
"1234","sl3_09","vinzó","pseudoword","0","0","1",0.743,1,-0.297059234264378
"1235","sl3_09","regalo","non_cognate","1","1","0",0.574,1,-0.555125882662571
"1236","sl3_09","fomeó","pseudoword","0","0","1",0.686,1,-0.376877651256252
"1237","sl3_09","dobbo","pseudoword","0","0","1",0.721,1,-0.327116141697188
"1238","sl3_09","actor","two_way_cognate","1","1","0",0.635,1,-0.454130280089445
"1239","sl3_09","enigma","two_way_cognate","1","1","0",1.024,1,0.0237165266173161
"1240","sl3_09","siglo","non_cognate","1","1","0",0.525,1,-0.644357016390513
"1241","sl3_09","punta","non_cognate","1","1","0",0.665,1,-0.407968238326283
"1242","sl3_09","dibrea","pseudoword","0","0","1",1.299,1,0.261594737688462
"1243","sl3_09","próces","pseudoword","0","0","1",1.023,1,0.0227394869694893
"1244","sl3_09","llevar","non_cognate","1","1","0",0.68,1,-0.385662480811985
"1245","sl3_09","esís","pseudoword","0","0","1",0.681,1,-0.384192972832625
"1246","sl3_09","pitis","pseudoword","0","0","1",0.956,1,-0.0449973659307358
"1247","sl3_09","piano","two_way_cognate","1","1","0",0.567,1,-0.567395975254385
"1248","sl3_09","civas","pseudoword","0","0","1",0.832,1,-0.183922838160928
"1249","sl3_09","tapón","non_cognate","1","1","0",1.037,1,0.0363319292473902
"1250","sl3_09","huenos","pseudoword","0","0","1",0.824,1,-0.193584749072665
"1251","sl3_09","molor","pseudoword","0","0","1",0.782,1,-0.245900538436826
"1252","sl3_09","diroco","pseudoword","0","0","1",1.506,1,0.409457129377702
"1253","sl3_09","portal","three_way_cognate","1","1","0",0.694,1,-0.365283318475333
"1254","sl3_09","prave","pseudoword","0","0","1",0.807,1,-0.214431610712188
"1255","sl3_09","tradía","pseudoword","0","0","1",1.165,1,0.152721087017664
"1256","sl3_09","gino","pseudoword","0","0","1",0.75,1,-0.287682072451781
"1257","sl3_09","gripar","pseudoword","0","0","1",0.776,1,-0.253602758798918
"1258","sl3_09","cricó","pseudoword","0","0","1",0.682,1,-0.382725621138675
"1259","sl3_09","leniz","pseudoword","0","0","1",0.699,1,-0.358104536748327
"1260","sl3_09","pegar","non_cognate","1","1","0",0.748,1,-0.29035230100766
"1261","sl3_09","chote","pseudoword","0","0","1",0.706,1,-0.348140041488895
"1262","sl3_09","hilo","non_cognate","1","1","0",0.708,1,-0.345311185288417
"1263","sl3_09","asumie","pseudoword","0","0","1",0.886,1,-0.121038328377056
"1264","sl3_09","desaro","pseudoword","0","0","1",0.933,1,-0.0693500781347932
"1265","sl3_09","mafia","three_way_cognate","1","1","0",0.792,1,-0.233193887167711
"1266","sl3_09","seled","pseudoword","0","0","1",0.792,1,-0.233193887167711
"1267","sl3_09","kugis","pseudoword","0","0","1",0.764,1,-0.269187489815617
"1268","sl3_09","aljizo","pseudoword","0","0","1",0.648,1,-0.433864582629862
"1269","sl3_10","rostro","non_cognate","1","1","0",1.587,1,0.461845441544272
"1270","sl3_10","equipo","non_cognate","1","1","0",0.862,1,-0.148500008318444
"1271","sl3_10","gotro","pseudoword","0","0","1",1.553,1,0.44018854416655
"1272","sl3_10","rizado","non_cognate","1","1","0",1.023,1,0.0227394869694893
"1273","sl3_10","mortal","two_way_cognate","1","1","0",0.799,1,-0.224394333215862
"1274","sl3_10","diroco","pseudoword","0","0","1",1.33,1,0.285178942233662
"1275","sl3_10","torso","two_way_cognate","1","1","0",1.196,1,0.17898265552844
"1276","sl3_10","portal","three_way_cognate","1","1","0",0.898,1,-0.107585210679937
"1277","sl3_10","chat","three_way_cognate","1","1","0",1.756,1,0.563038495212925
"1278","sl3_10","civas","pseudoword","0","0","1",1.164,1,0.151862349309246
"1279","sl3_10","tumor","three_way_cognate","1","1","0",0.731,1,-0.313341819232359
"1280","sl3_10","losco","pseudoword","0","0","1",1.141,1,0.131905070879939
"1281","sl3_10","panté","pseudoword","0","0","1",0.965,1,-0.0356271776431512
"1282","sl3_10","piano","two_way_cognate","1","1","0",0.83,1,-0.186329578191493
"1283","sl3_10","actor","two_way_cognate","1","1","0",1.04,1,0.0392207131532813
"1284","sl3_10","civil","two_way_cognate","1","1","0",0.629,1,-0.463624022281697
"1285","sl3_10","fuar","pseudoword","0","0","1",1.396,1,0.333611004340181
"1286","sl3_10","samón","pseudoword","0","0","1",1.317,1,0.275356422761144
"1287","sl3_10","percha","non_cognate","1","1","0",1.062,1,0.0601539228197471
"1288","sl3_10","mango","three_way_cognate","1","1","0",0.587,1,-0.532730459154041
"1289","sl3_10","cuenco","non_cognate","1","1","0",1.412,1,0.34500713907105
"1290","sl3_10","dogue","pseudoword","0","0","1",0.931,1,-0.0714960017050699
"1291","sl3_10","viable","two_way_cognate","1","1","0",1.206,1,0.187309098304994
"1292","sl3_10","sasos","pseudoword","0","0","1",1.163,1,0.151002873536527
"1293","sl3_10","boñaz","pseudoword","0","0","1",1.659,1,0.506215011208307
"1294","sl3_10","pasta","two_way_cognate","1","1","0",0.955,1,-0.0460439385014068
"1295","sl3_10","babrá","pseudoword","0","0","1",1.222,1,0.200488860749404
"1296","sl3_10","dibrea","pseudoword","0","0","1",0.971,1,-0.0294288106908122
"1297","sl3_10","vinzó","pseudoword","0","0","1",0.7,1,-0.356674943938732
