"","ppt","word","type","correct_reponse","key_resp_lextale_trial.keys","key_resp_lextale_trial.corr","key_resp_lextale_trial.rt","is_correct","log_rt"
"1","5b20c0474c72120001f25d90","alla","pseudoword","0","0","1",1.0505,1,0.049266241302918
"2","5b20c0474c72120001f25d90","sasos","pseudoword","0","0","1",0.9632,1,-0.0374942044275805
"3","5b20c0474c72120001f25d90","barbs","pseudoword","0","0","1",1.027,1,0.0266419309464211
"4","5b20c0474c72120001f25d90","equipo","non_cognate","1","1","0",1.1481,1,0.138108402117629
"5","5b20c0474c72120001f25d90","tapa","non_cognate","1","1","0",0.6337,1,-0.456179622652666
"6","5b20c0474c72120001f25d90","martir","pseudoword","0","0","1",0.6787,1,-0.387576075272424
"7","5b20c0474c72120001f25d90","tator","pseudoword","0","0","1",0.7303,1,-0.314299870356073
"8","5b20c0474c72120001f25d90","muleta","non_cognate","1","1","0",0.6688,1,-0.402270217211645
"9","5b20c0474c72120001f25d90","gotro","pseudoword","0","0","1",0.7932,1,-0.231679882336496
"10","5b20c0474c72120001f25d90","rendir","non_cognate","1","1","0",0.8411,1,-0.173044720013745
"11","5b20c0474c72120001f25d90","listo","non_cognate","1","1","0",0.574,1,-0.555125882662571
"12","5b20c0474c72120001f25d90","kugis","pseudoword","0","0","1",0.5727,1,-0.557393259582325
"13","5b20c0474c72120001f25d90","colcha","non_cognate","1","1","0",0.6721,1,-0.397348140006217
"14","5b20c0474c72120001f25d90","tradía","pseudoword","0","0","1",0.8407,1,-0.173520400840886
"15","5b20c0474c72120001f25d90","plago","pseudoword","0","0","1",1.0985,1,0.0939456128425279
"16","5b20c0474c72120001f25d90","llevar","non_cognate","1","1","0",0.6305,1,-0.461242123577163
"17","5b20c0474c72120001f25d90","animal","two_way_cognate","1","1","0",1.0116,1,0.0115332358136731
"18","5b20c0474c72120001f25d90","portal","three_way_cognate","1","1","0",0.5587,1,-0.582142622517034
"19","5b20c0474c72120001f25d90","rumor","two_way_cognate","1","1","0",1.1821,1,0.167292517774194
"20","5b20c0474c72120001f25d90","prave","pseudoword","0","0","1",0.766,1,-0.266573109241546
"21","5b20c0474c72120001f25d90","virios","pseudoword","0","0","1",0.7096,1,-0.343053847986767
"22","5b20c0474c72120001f25d90","ozoso","pseudoword","0","0","1",0.6938,1,-0.365571544446488
"23","5b20c0474c72120001f25d90","mafia","three_way_cognate","1","1","0",0.8343,1,-0.181162229074108
"24","5b20c0474c72120001f25d90","percha","non_cognate","1","1","0",0.6176,1,-0.481914280271571
"25","5b20c0474c72120001f25d90","hotel","three_way_cognate","1","1","0",0.617,1,-0.482886255076749
"26","5b20c0474c72120001f25d90","rúo","pseudoword","0","0","1",0.6208,1,-0.476746310113128
"27","5b20c0474c72120001f25d90","tiza","non_cognate","1","1","0",0.7787,1,-0.250129416399197
"28","5b20c0474c72120001f25d90","vueras","pseudoword","0","0","1",0.8833,1,-0.124090385231051
"29","5b20c0474c72120001f25d90","plan","three_way_cognate","1","1","0",0.8502,1,-0.162283663057447
"30","5b20c0474c72120001f25d90","siglo","non_cognate","1","1","0",1.4279,1,0.356204833454112
"31","5b20c0474c72120001f25d90","dobbo","pseudoword","0","0","1",0.7785,1,-0.250386287708084
"32","5b20c0474c72120001f25d90","collar","two_way_cognate","1","1","0",1.4765,1,0.38967442220184
"33","5b20c0474c72120001f25d90","pupica","pseudoword","0","0","1",0.9556,1,-0.0454158635304826
"34","5b20c0474c72120001f25d90","vigor","two_way_cognate","1","1","0",1.0624,1,0.0605304997400324
"35","5b20c0474c72120001f25d90","trcia","pseudoword","0","0","1",0.9598,1,-0.0410303495579919
"36","5b20c0474c72120001f25d90","densó","pseudoword","0","0","1",0.9497,1,-0.0516091337332302
"37","5b20c0474c72120001f25d90","cuenco","non_cognate","1","1","0",1.1979,1,0.180570023755148
"38","5b20c0474c72120001f25d90","dibrea","pseudoword","0","0","1",0.6517,1,-0.428170945643802
"39","5b20c0474c72120001f25d90","halo","two_way_cognate","1","1","0",0.9144,1,-0.0894871665015362
"40","5b20c0474c72120001f25d90","esís","pseudoword","0","0","1",0.7633,1,-0.270104140177712
"41","5b20c0474c72120001f25d90","frasis","pseudoword","0","0","1",1.1294,1,0.121686518256599
"42","5b20c0474c72120001f25d90","sierra","non_cognate","1","1","0",0.9027,1,-0.102365006678028
"43","5b20c0474c72120001f25d90","cobén","pseudoword","0","0","1",1.4152,1,0.347270863863438
"44","5b20c0474c72120001f25d90","chote","pseudoword","0","0","1",0.9181,1,-0.0854489618324827
"45","5b20c0474c72120001f25d90","brillo","non_cognate","1","1","0",0.9821,1,-0.0180621428184085
"46","5b20c0474c72120001f25d90","sacar","non_cognate","1","1","0",0.9068,1,-0.0978333603487631
"47","5b20c0474c72120001f25d90","patada","non_cognate","1","1","0",0.8452,1,-0.168181993240235
"48","5b20c0474c72120001f25d90","moral","three_way_cognate","1","1","0",0.7282,1,-0.317179543240804
"49","5b20c0474c72120001f25d90","pico","non_cognate","1","1","0",0.8446,1,-0.168892136482294
"50","5b20c0474c72120001f25d90","hueas","pseudoword","0","0","1",1.0439,1,0.0429636994321157
"51","5b20c0474c72120001f25d90","ala","non_cognate","1","1","0",0.573,1,-0.556869562267398
"52","5b20c0474c72120001f25d90","regalo","non_cognate","1","1","0",0.5676,1,-0.566338333696249
"53","5b20c0474c72120001f25d90","dubo","pseudoword","0","0","1",0.5994,1,-0.511826124099574
"54","5b20c0474c72120001f25d90","olzan","pseudoword","0","0","1",0.7764,1,-0.253087427687282
"55","5b20c0474c72120001f25d90","lobe","pseudoword","0","0","1",1.1341,1,0.125839384839148
"56","5b20c0474c72120001f25d90","mibro","pseudoword","0","0","1",1.3116,1,0.271247765988356
"57","5b20c0474c72120001f25d90","fuar","pseudoword","0","0","1",1.0213,1,0.0210763256019163
"58","5b20c0474c72120001f25d90","kilo","three_way_cognate","1","1","0",0.6474,1,-0.434790937489993
"59","5b20c0474c72120001f25d90","laras","pseudoword","0","0","1",0.6067,1,-0.499720844033885
"60","5b20c0474c72120001f25d90","ánimo","non_cognate","1","1","0",0.7956,1,-0.22865873200232
"61","5b20c0474c72120001f25d90","chorde","pseudoword","0","0","1",0.9451,1,-0.0564645369811266
"62","5b20c0474c72120001f25d90","aviso","non_cognate","1","1","0",0.7933,1,-0.23155381867418
"63","5b20c0474c72120001f25d90","editor","two_way_cognate","1","1","0",0.9945,1,-0.00551518068811011
"64","5b20c0474c72120001f25d90","ceme","pseudoword","0","0","1",0.8783,1,-0.129767058059065
"65","5b20c0474c72120001f25d90","monue","pseudoword","0","0","1",1.0315,1,0.0310140535291695
"66","5b20c0474c72120001f25d90","rizado","non_cognate","1","1","0",0.6799,1,-0.385809550449723
"67","5b20c0474c72120001f25d90","suelo","non_cognate","1","1","0",0.763,1,-0.27049724769768
"68","5b20c0474c72120001f25d90","rostro","non_cognate","1","1","0",0.9627,1,-0.0380134421982162
"69","5b20c0474c72120001f25d90","mango","three_way_cognate","1","1","0",0.8259,1,-0.191281578165466
"70","5b20c0474c72120001f25d90","rizate","pseudoword","0","0","1",0.8441,1,-0.169484307992463
"71","5b20c0474c72120001f25d90","puñal","non_cognate","1","1","0",0.8132,1,-0.206778197227945
"72","5b20c0474c72120001f25d90","civas","pseudoword","0","0","1",0.6758,1,-0.391858104701948
"73","5b20c0474c72120001f25d90","dogue","pseudoword","0","0","1",0.7818,1,-0.246156325623283
"74","5b20c0474c72120001f25d90","albino","three_way_cognate","1","1","0",0.929,1,-0.0736465401682985
"75","5b20c0474c72120001f25d90","asumie","pseudoword","0","0","1",0.6408,1,-0.445037883227988
"76","5b20c0474c72120001f25d90","aurora","two_way_cognate","1","1","0",0.9979,1,-0.0021022080918702
"77","5b20c0474c72120001f25d90","torta","non_cognate","1","1","0",0.6814,1,-0.383605773755271
"78","5b20c0474c72120001f25d90","fiscal","two_way_cognate","1","1","0",1.5258,1,0.422518862673992
"79","5b20c0474c72120001f25d90","hurcos","pseudoword","0","0","1",1.5027,1,0.407263490049544
"80","5b20c0474c72120001f25d90","teñir","non_cognate","1","1","0",0.8395,1,-0.174948802464542
"81","5b20c0474c72120001f25d90","punta","non_cognate","1","1","0",1.3828,1,0.324110429065332
"82","5b20c0474c72120001f25d90","emén","pseudoword","0","0","1",0.8127,1,-0.207393241222978
"83","5b20c0474c72120001f25d90","feo","non_cognate","1","1","0",0.8551,1,-0.156536857820227
"84","5b20c0474c72120001f25d90","losco","pseudoword","0","0","1",0.612,1,-0.491022996469811
"85","5b20c0474c72120001f25d90","tecia","pseudoword","0","0","1",1.1832,1,0.168222632414453
"86","5b20c0474c72120001f25d90","mortal","two_way_cognate","1","1","0",1.429,1,0.35697489894773
"87","5b20c0474c72120001f25d90","trugo","pseudoword","0","0","1",0.8345,1,-0.180922535880247
"88","5b20c0474c72120001f25d90","prías","pseudoword","0","0","1",0.8172,1,-0.20187141603867
"89","5b20c0474c72120001f25d90","diroco","pseudoword","0","0","1",0.6902,1,-0.370773868318234
"90","5b20c0474c72120001f25d90","épinas","pseudoword","0","0","1",1.4541,1,0.374387152537303
"91","5b20c0474c72120001f25d90","diebro","pseudoword","0","0","1",0.6781,1,-0.388460509292341
"92","5b20c0474c72120001f25d90","listo","non_cognate","1","1","0",0.5915,1,-0.525093595563696
"93","5b20c0474c72120001f25d90","seled","pseudoword","0","0","1",0.7435,1,-0.296386513081927
"94","5b20c0474c72120001f25d90","clamor","two_way_cognate","1","1","0",1.1204,1,0.113685764403816
"95","5b20c0474c72120001f25d90","flora","three_way_cognate","1","1","0",0.6649,1,-0.408118625573728
"96","5b20c0474c72120001f25d90","suave","non_cognate","1","1","0",0.6995,1,-0.357389484876601
"97","5b20c0474c72120001f25d90","medium","pseudoword","0","0","1",0.6594,1,-0.416424948344506
"98","5b20c0474c72120001f25d90","coyo","pseudoword","0","0","1",0.6003,1,-0.51032574872434
"99","5b20c0474c72120001f25d90","arane","pseudoword","0","0","1",0.645,1,-0.438504962186365
"100","5b20c0474c72120001f25d90","llamar","non_cognate","1","1","0",0.6123,1,-0.490532920498228
"101","5b20c0474c72120001f25d90","pitis","pseudoword","0","0","1",0.7575,1,-0.277731741598613
"102","5b20c0474c72120001f25d90","nasce","pseudoword","0","0","1",0.8343,1,-0.181162229074108
"103","5b20c0474c72120001f25d90","guerra","non_cognate","1","1","0",0.854,1,-0.157824085193567
"104","5b20c0474c72120001f25d90","extra","three_way_cognate","1","1","0",0.7879,1,-0.238384100730495
"105","5b20c0474c72120001f25d90","plural","three_way_cognate","1","1","0",0.7002,1,-0.356389270461572
"106","5b20c0474c72120001f25d90","bugor","pseudoword","0","0","1",0.7596,1,-0.274963300044006
"107","5b20c0474c72120001f25d90","actor","two_way_cognate","1","1","0",0.6816,1,-0.383312303467031
"108","5b20c0474c72120001f25d90","caro","non_cognate","1","1","0",0.7009,1,-0.355390055475858
"109","5c3820ee1ede2b0001155929","flora","three_way_cognate","1","1","0",1.7709,1,0.571487891932616
"110","5c3820ee1ede2b0001155929","fiscal","two_way_cognate","1","1","0",0.95,1,-0.0512932943875506
"111","5c3820ee1ede2b0001155929","aviso","non_cognate","1","1","0",1.9661,1,0.676051885131308
"112","5c3820ee1ede2b0001155929","aura","three_way_cognate","1","1","0",0.8484,1,-0.16440305629161
"113","5c3820ee1ede2b0001155929","plural","three_way_cognate","1","1","0",1.5629,1,0.446543069866011
"114","5c3820ee1ede2b0001155929","casual","two_way_cognate","1","1","0",0.7707,1,-0.260456086198189
"115","5c3820ee1ede2b0001155929","portal","three_way_cognate","1","1","0",0.8282,1,-0.18850060787067
"116","5c3820ee1ede2b0001155929","grigir","pseudoword","0","0","1",1.0084,1,0.00836491633162767
"117","5c3820ee1ede2b0001155929","total","two_way_cognate","1","1","0",0.6407,1,-0.445193950337161
"118","5c3820ee1ede2b0001155929","pelvis","two_way_cognate","1","1","0",0.8013,1,-0.221519870198112
"119","5c3820ee1ede2b0001155929","tumor","three_way_cognate","1","1","0",0.8317,1,-0.184283480107495
"120","5c3820ee1ede2b0001155929","ardor","two_way_cognate","1","1","0",0.938,1,-0.0640053299759124
"121","5c3820ee1ede2b0001155929","collar","two_way_cognate","1","1","0",0.8955,1,-0.110373057481371
"122","5c3820ee1ede2b0001155929","halo","two_way_cognate","1","1","0",1.5219,1,0.419959554258617
"123","5c3820ee1ede2b0001155929","clamor","two_way_cognate","1","1","0",0.8664,1,-0.143408583295356
"124","5c3820ee1ede2b0001155929","test","three_way_cognate","1","1","0",0.7744,1,-0.25566674301977
"125","5c3820ee1ede2b0001155929","mortal","two_way_cognate","1","1","0",0.9116,1,-0.0925539816106079
"126","5c3820ee1ede2b0001155929","extra","three_way_cognate","1","1","0",1.4985,1,0.404464607774581
"127","5c3820ee1ede2b0001155929","torso","two_way_cognate","1","1","0",0.6449,1,-0.438660012965805
"128","5c3820ee1ede2b0001155929","punta","non_cognate","1","1","0",0.72,1,-0.328504066972036
"129","5c3820ee1ede2b0001155929","dogma","three_way_cognate","1","1","0",0.8426,1,-0.171262929437221
"130","5c3820ee1ede2b0001155929","anfia","pseudoword","0","0","1",0.9243,1,-0.0787185847114051
"131","5c3820ee1ede2b0001155929","hotel","three_way_cognate","1","1","0",0.5611,1,-0.577856136225211
"132","5c3820ee1ede2b0001155929","disco","three_way_cognate","1","1","0",0.537,1,-0.621757184473272
"133","5c3820ee1ede2b0001155929","suave","non_cognate","1","1","0",0.6258,1,-0.468724447747355
"134","5c3820ee1ede2b0001155929","siglo","non_cognate","1","1","0",1.7932,1,0.584001733299147
"135","5c3820ee1ede2b0001155929","arane","pseudoword","0","0","1",0.9948,1,-0.00521356705288743
"136","5c3820ee1ede2b0001155929","viable","two_way_cognate","1","1","0",0.6535,1,-0.42541274591786
"137","5c3820ee1ede2b0001155929","mafia","three_way_cognate","1","1","0",0.6386,1,-0.448476998701456
"138","5c3820ee1ede2b0001155929","pelvis","two_way_cognate","1","1","0",0.5956,1,-0.518185978172283
"139","5c3820ee1ede2b0001155929","animal","two_way_cognate","1","1","0",0.5432,1,-0.610277702737651
"140","5c3820ee1ede2b0001155929","equipo","non_cognate","1","1","0",0.7845,1,-0.24270870680905
"141","5c3820ee1ede2b0001155929","gripar","pseudoword","0","0","1",1.2497,1,0.222903522509601
"142","5c3820ee1ede2b0001155929","editor","two_way_cognate","1","1","0",1.4665,1,0.382878609435369
"143","5c3820ee1ede2b0001155929","clan","three_way_cognate","1","1","0",0.8206,1,-0.197719498974051
"144","5c3820ee1ede2b0001155929","actor","two_way_cognate","1","1","0",0.6167,1,-0.48337259698469
"145","5c3820ee1ede2b0001155929","albino","three_way_cognate","1","1","0",1.0832,1,0.0799196231758734
"146","5c3820ee1ede2b0001155929","rumor","two_way_cognate","1","1","0",1.2926,1,0.256655693846658
"147","5c3820ee1ede2b0001155929","altar","three_way_cognate","1","1","0",0.7701,1,-0.261234902436933
"148","5c3820ee1ede2b0001155929","chat","three_way_cognate","1","1","0",1.43,1,0.357674444271816
"149","5c3820ee1ede2b0001155929","civil","two_way_cognate","1","1","0",0.7504,1,-0.287148881290122
"150","5c3820ee1ede2b0001155929","moral","three_way_cognate","1","1","0",1.6968,1,0.528744124268336
"151","5c3820ee1ede2b0001155929","golf","three_way_cognate","1","1","0",0.7195,1,-0.329198752654714
"152","5c3820ee1ede2b0001155929","tapa","non_cognate","1","1","0",1.4832,1,0.394201915829454
"153","5c3820ee1ede2b0001155929","trauma","three_way_cognate","1","1","0",1.2785,1,0.245687515749104
"154","5c3820ee1ede2b0001155929","guerra","non_cognate","1","1","0",1.3998,1,0.336329369273302
"155","5c3820ee1ede2b0001155929","vigor","two_way_cognate","1","1","0",0.7304,1,-0.314162949701378
"156","5c3820ee1ede2b0001155929","brillo","non_cognate","1","1","0",1.0408,1,0.0399896482161584
"157","5c3820ee1ede2b0001155929","pico","non_cognate","1","1","0",1.2327,1,0.209206885575337
"158","5c3820ee1ede2b0001155929","enigma","two_way_cognate","1","1","0",0.9405,1,-0.061343630241052
"159","5c3820ee1ede2b0001155929","dibrea","pseudoword","0","0","1",1.5296,1,0.425006263315
"160","5c3820ee1ede2b0001155929","plan","three_way_cognate","1","1","0",2.0525,1,0.719058562344446
"161","5c3820ee1ede2b0001155929","mango","three_way_cognate","1","1","0",0.9298,1,-0.0727857697256527
"162","5c3820ee1ede2b0001155929","drama","three_way_cognate","1","1","0",0.8917,1,-0.114625525841303
"163","5c3820ee1ede2b0001155929","trugo","pseudoword","0","0","1",1.3041,1,0.265513147680719
"164","5c3820ee1ede2b0001155929","kilo","three_way_cognate","1","1","0",0.9211,1,-0.0821866709879471
"165","5c3820ee1ede2b0001155929","torta","non_cognate","1","1","0",1.5993,1,0.469566033514688
"166","5c3820ee1ede2b0001155929","piano","two_way_cognate","1","1","0",0.779,1,-0.249744233111389
"167","5c3820ee1ede2b0001155929","pasta","two_way_cognate","1","1","0",0.9535,1,-0.0476158539416633
"168","5c3820ee1ede2b0001155929","horror","three_way_cognate","1","1","0",0.8368,1,-0.178170185671479
"169","5ea1dc309315030c68262aa3","pelvis","two_way_cognate","1","1","0",1.9467,1,0.666135631313095
"170","5ea1dc309315030c68262aa3","ozoso","pseudoword","0","0","1",1.651,1,0.501381164937991
"171","5ea1dc309315030c68262aa3","portal","three_way_cognate","1","1","0",1.8858,1,0.63435213404944
"172","5ea1dc309315030c68262aa3","kilo","three_way_cognate","1","1","0",1.3106,1,0.270485047623259
"173","5ea1dc309315030c68262aa3","prías","pseudoword","0","0","1",1.5891,1,0.463167818236454
"174","5ea1dc309315030c68262aa3","pico","non_cognate","1","1","0",1.4229,1,0.352697042569509
"175","5ea1dc309315030c68262aa3","albino","three_way_cognate","1","1","0",1.5233,1,0.420879034160518
"176","5ea1dc309315030c68262aa3","edioso","pseudoword","0","0","1",1.1908,1,0.174625350159484
"177","5ea1dc309315030c68262aa3","extra","three_way_cognate","1","1","0",1.2323,1,0.20888234196194
"178","5ea1dc309315030c68262aa3","llamar","non_cognate","1","1","0",2.7022,1,0.994066256043722
"179","5ea1dc309315030c68262aa3","clamor","two_way_cognate","1","1","0",2.3403,1,0.85027912628024
"180","5ea1dc309315030c68262aa3","próces","pseudoword","0","0","1",1.431,1,0.358373500574314
"181","5ea1dc309315030c68262aa3","hurcos","pseudoword","0","0","1",2.5052,1,0.918368571669121
"182","5ea1dc309315030c68262aa3","flecha","non_cognate","1","1","0",1.4145,1,0.346776111759485
"183","5ea1dc309315030c68262aa3","ardor","two_way_cognate","1","1","0",1.4325,1,0.359421169606758
"184","5ea1dc309315030c68262aa3","brillo","non_cognate","1","1","0",1.0324,1,0.0318861888623217
"185","5ea1dc309315030c68262aa3","mango","three_way_cognate","1","1","0",1.1483,1,0.138282587800007
"186","5ea1dc309315030c68262aa3","bugor","pseudoword","0","0","1",1.3134,1,0.272619194774735
"187","5ea1dc309315030c68262aa3","listo","non_cognate","1","1","0",1.1831,1,0.16813811227748
"188","5ea1dc309315030c68262aa3","piano","two_way_cognate","1","1","0",0.9078,1,-0.0967311889597718
"189","5ea1dc309315030c68262aa3","colcha","non_cognate","1","1","0",2.1981,1,0.787593350851891
"190","5ea1dc309315030c68262aa3","test","three_way_cognate","1","1","0",2.3546,1,0.856370861661959
"191","5ea1dc309315030c68262aa3","hotel","three_way_cognate","1","1","0",1.1977,1,0.180403050971324
"192","5ea1dc309315030c68262aa3","ceme","pseudoword","0","0","1",1.0841,1,0.0807501496851091
"193","5ea1dc309315030c68262aa3","fuar","pseudoword","0","0","1",1.561,1,0.445326641533295
"194","5ea1dc309315030c68262aa3","flora","three_way_cognate","1","1","0",1.2583,1,0.229761603615785
"195","5ea1dc309315030c68262aa3","torso","two_way_cognate","1","1","0",0.9181,1,-0.0854489618324827
"196","5ea1dc309315030c68262aa3","rostro","non_cognate","1","1","0",1.933,1,0.659073200226194
"197","5ea1dc309315030c68262aa3","pitis","pseudoword","0","0","1",2.3319,1,0.846683385922147
"198","5ea1dc309315030c68262aa3","patada","non_cognate","1","1","0",1.8915,1,0.637370165090947
"199","5ea1dc309315030c68262aa3","kugis","pseudoword","0","0","1",1.125,1,0.117783035656383
"200","5ea1dc309315030c68262aa3","medium","pseudoword","0","0","1",2.5011,1,0.91673063510254
"201","5ea1dc309315030c68262aa3","guerra","non_cognate","1","1","0",1.3426,1,0.294608032522514
"202","5ea1dc309315030c68262aa3","sacar","non_cognate","1","1","0",1.1702,1,0.157174674371999
"203","5ea1dc309315030c68262aa3","chocar","non_cognate","1","1","0",1.169,1,0.156148682489931
"204","5ea1dc309315030c68262aa3","regalo","non_cognate","1","1","0",1.072,1,0.0695260626486103
"205","5ea1dc309315030c68262aa3","punta","non_cognate","1","1","0",2.6672,1,0.981029233014392
"206","5ea1dc309315030c68262aa3","alla","pseudoword","0","0","1",2.1683,1,0.773943450388035
"207","5ea1dc309315030c68262aa3","dibrea","pseudoword","0","0","1",1.6529,1,0.502531320941171
"208","5ea1dc309315030c68262aa3","honor","two_way_cognate","1","1","0",2.1059,1,0.744742929203596
"209","5ea1dc309315030c68262aa3","civil","two_way_cognate","1","1","0",1.05,1,0.048790164169432
"210","5ea1dc309315030c68262aa3","retina","three_way_cognate","1","1","0",1.2321,1,0.208720030648486
"211","5ea1dc309315030c68262aa3","aviso","non_cognate","1","1","0",1.2894,1,0.254176993894383
"212","5ea1dc309315030c68262aa3","cuenco","non_cognate","1","1","0",0.9367,1,-0.0653922187670522
"213","5ea1dc309315030c68262aa3","molor","pseudoword","0","0","1",1.9126,1,0.648463572933305
"214","5ea1dc309315030c68262aa3","pelvis","two_way_cognate","1","1","0",1.304,1,0.265436463504461
"215","5ea1dc309315030c68262aa3","equipo","non_cognate","1","1","0",1.1412,1,0.132080340357208
"216","5ea1dc309315030c68262aa3","feo","non_cognate","1","1","0",1.2842,1,0.250135956377811
"217","5ea1dc309315030c68262aa3","tapón","non_cognate","1","1","0",2.1304,1,0.756309755517585
"218","5ea1dc309315030c68262aa3","gotro","pseudoword","0","0","1",1.4604,1,0.378710370799345
"219","5ea1dc309315030c68262aa3","rizate","pseudoword","0","0","1",2.519,1,0.923861997370473
"220","5ea1dc309315030c68262aa3","venado","non_cognate","1","1","0",1.4959,1,0.402728032398278
"221","5ea1dc309315030c68262aa3","ala","non_cognate","1","1","0",2.266,1,0.818016162605815
"222","5ea1dc309315030c68262aa3","pegar","non_cognate","1","1","0",2.4309,1,0.888261559152652
"223","5ea1dc309315030c68262aa3","drama","three_way_cognate","1","1","0",1.6228,1,0.484153052350155
"224","5ea1dc309315030c68262aa3","suave","non_cognate","1","1","0",0.8662,1,-0.143639450201611
"225","5ea1dc309315030c68262aa3","listo","non_cognate","1","1","0",0.8507,1,-0.161695739000298
"226","5ea1dc309315030c68262aa3","actor","two_way_cognate","1","1","0",0.9324,1,-0.069993371820535
"227","5ea1dc309315030c68262aa3","color","two_way_cognate","1","1","0",1.0662,1,0.0641009254065236
"228","5ea1dc309315030c68262aa3","sierra","non_cognate","1","1","0",1.0277,1,0.0273232956488904
"229","5ea1dc309315030c68262aa3","editor","two_way_cognate","1","1","0",1.4358,1,0.361722185160246
"230","5ea1dc309315030c68262aa3","pabea","pseudoword","0","0","1",2.0871,1,0.735775542615568
"231","5ea1dc309315030c68262aa3","forro","non_cognate","1","1","0",1.3893,1,0.328800023172679
"232","5ea1dc309315030c68262aa3","disco","three_way_cognate","1","1","0",2.2201,1,0.797552239914736
"233","5ea1dc309315030c68262aa3","hilo","non_cognate","1","1","0",1.9795,1,0.682844287564048
"234","5ea1dc309315030c68262aa3","hueas","pseudoword","0","0","1",2.6629,1,0.979415754493219
"235","5ea1dc309315030c68262aa3","tumor","three_way_cognate","1","1","0",1.3854,1,0.325988906606368
"236","5ea1dc309315030c68262aa3","trauma","three_way_cognate","1","1","0",1.0194,1,0.0192142189238044
"237","5ea1dc309315030c68262aa3","total","two_way_cognate","1","1","0",0.9265,1,-0.0763412332567226
"238","5ea1dc309315030c68262aa3","chat","three_way_cognate","1","1","0",1.9883,1,0.687280002281898
"239","5ea1dc309315030c68262aa3","esís","pseudoword","0","0","1",1.6842,1,0.521290673613755
"240","5ea1dc309315030c68262aa3","dogma","three_way_cognate","1","1","0",1.3644,1,0.310714771562354
"241","5ea1dc309315030c68262aa3","fiscal","two_way_cognate","1","1","0",1.0428,1,0.0419094030772096
"242","5ea1dc309315030c68262aa3","trcia","pseudoword","0","0","1",2.4462,1,0.894535800071126
"243","5ea1dc309315030c68262aa3","casual","two_way_cognate","1","1","0",1.8734,1,0.627754961792893
"244","5ea1dc309315030c68262aa3","tiza","non_cognate","1","1","0",1.4676,1,0.38362841349899
"245","5ea1dc309315030c68262aa3","suelo","non_cognate","1","1","0",1.3001,1,0.262441184585986
"246","5ea1dc309315030c68262aa3","animal","two_way_cognate","1","1","0",1.0542,1,0.0527821854389695
"247","5ea1dc309315030c68262aa3","llevar","non_cognate","1","1","0",1.1804,1,0.165853364086647
"248","5ea1dc309315030c68262aa3","moral","three_way_cognate","1","1","0",1.3351,1,0.289006195413912
"249","5ea1dc309315030c68262aa3","rendir","non_cognate","1","1","0",1.3334,1,0.287732071201823
"250","5ea1dc309315030c68262aa3","dobbo","pseudoword","0","0","1",1.4585,1,0.377408510325639
"251","5ea1dc309315030c68262aa3","enigma","two_way_cognate","1","1","0",1.8705,1,0.626205774806064
"252","5ea1dc309315030c68262aa3","nomata","pseudoword","0","0","1",1.9369,1,0.661088756866057
"253","5ea1dc309315030c68262aa3","tapa","non_cognate","1","1","0",1.0005,1,0.000499875041650993
"254","5ea1dc309315030c68262aa3","altar","three_way_cognate","1","1","0",0.9971,1,-0.00290421314738983
"255","5ea1dc309315030c68262aa3","plan","three_way_cognate","1","1","0",1.3778,1,0.320488024176958
"256","5ea1dc309315030c68262aa3","tator","pseudoword","0","0","1",2.6273,1,0.965956702888975
"257","5ea1dc309315030c68262aa3","jauda","pseudoword","0","0","1",2.0343,1,0.710151779375769
"258","5ea1dc309315030c68262aa3","tobre","pseudoword","0","0","1",2.5381,1,0.931415769619224
"259","5ea1dc309315030c68262aa3","diebro","pseudoword","0","0","1",2.5502,1,0.936171787467304
"260","5ea1dc309315030c68262aa3","torta","non_cognate","1","1","0",1.331,1,0.285930539412975
"261","5ea1dc309315030c68262aa3","aurora","two_way_cognate","1","1","0",0.9459,1,-0.0556184237630123
"262","5ea1dc309315030c68262aa3","lidena","pseudoword","0","0","1",1.4865,1,0.396424363456015
"263","5ea1dc309315030c68262aa3","aljizo","pseudoword","0","0","1",1.2798,1,0.246703815723223
"264","5ea1dc309315030c68262aa3","vigor","two_way_cognate","1","1","0",1.2145,1,0.19433246946009
"265","5ea1dc309315030c68262aa3","diroco","pseudoword","0","0","1",2.1198,1,0.751321744611018
"266","5ea1dc309315030c68262aa3","halo","two_way_cognate","1","1","0",1.7279,1,0.546906798336939
"267","5ea1dc309315030c68262aa3","mibro","pseudoword","0","0","1",1.2999,1,0.262287338431836
"268","5ea1dc309315030c68262aa3","emén","pseudoword","0","0","1",1.2632,1,0.233648183959295
"269","60fcd9699c3def3068403b90","rúo","pseudoword","0","0","1",1.2447,1,0.218894537024795
"270","60fcd9699c3def3068403b90","mango","three_way_cognate","1","1","0",0.9307,1,-0.0718182877904723
"271","60fcd9699c3def3068403b90","casual","two_way_cognate","1","1","0",0.9298,1,-0.0727857697256527
"272","60fcd9699c3def3068403b90","ceme","pseudoword","0","0","1",0.8475,1,-0.165464439727532
"273","60fcd9699c3def3068403b90","diabo","pseudoword","0","0","1",1.1864,1,0.170923511841585
"274","60fcd9699c3def3068403b90","altar","three_way_cognate","1","1","0",0.7898,1,-0.235975530129588
"275","60fcd9699c3def3068403b90","cengo","pseudoword","0","0","1",1.1701,1,0.157089215242775
"276","60fcd9699c3def3068403b90","chocar","non_cognate","1","1","0",0.8184,1,-0.20040406434472
"277","60fcd9699c3def3068403b90","honor","two_way_cognate","1","1","0",1.6001,1,0.470066127292692
"278","60fcd9699c3def3068403b90","listo","non_cognate","1","1","0",0.7587,1,-0.276148836638108
"279","60fcd9699c3def3068403b90","moral","three_way_cognate","1","1","0",1.1987,1,0.181237636230917
"280","60fcd9699c3def3068403b90","regalo","non_cognate","1","1","0",0.9901,1,-0.0099493308536681
"281","60fcd9699c3def3068403b90","suave","non_cognate","1","1","0",1.0329,1,0.0323703800304506
"282","60fcd9699c3def3068403b90","pegar","non_cognate","1","1","0",1.2355,1,0.211475746446528
"283","60fcd9699c3def3068403b90","editor","two_way_cognate","1","1","0",1.2006,1,0.182821431835606
"284","60fcd9699c3def3068403b90","fuar","pseudoword","0","0","1",0.9611,1,-0.0396768171528984
"285","60fcd9699c3def3068403b90","flecha","non_cognate","1","1","0",0.9678,1,-0.0327298246229189
"286","60fcd9699c3def3068403b90","grigir","pseudoword","0","0","1",1.5304,1,0.425529139143906
"287","60fcd9699c3def3068403b90","pupica","pseudoword","0","0","1",0.9636,1,-0.0370790082414207
"288","60fcd9699c3def3068403b90","muñeca","non_cognate","1","1","0",1.3812,1,0.3229526865337
"289","60fcd9699c3def3068403b90","trcia","pseudoword","0","0","1",1.1304,1,0.122571552388181
"290","60fcd9699c3def3068403b90","flora","three_way_cognate","1","1","0",0.8872,1,-0.11968484294598
"291","60fcd9699c3def3068403b90","disco","three_way_cognate","1","1","0",0.9796,1,-0.0206109539041243
"292","60fcd9699c3def3068403b90","horror","three_way_cognate","1","1","0",1.361,1,0.308219723669329
"293","60fcd9699c3def3068403b90","diebro","pseudoword","0","0","1",1.201,1,0.183154543097847
"294","60fcd9699c3def3068403b90","chote","pseudoword","0","0","1",1.1154,1,0.109213084973316
"295","60fcd9699c3def3068403b90","pico","non_cognate","1","1","0",0.6298,1,-0.462352970315213
"296","60fcd9699c3def3068403b90","punta","non_cognate","1","1","0",0.7694,1,-0.262144288663942
"297","60fcd9699c3def3068403b90","llamar","non_cognate","1","1","0",0.8928,1,-0.113392687355091
"298","60fcd9699c3def3068403b90","bugor","pseudoword","0","0","1",0.73,1,-0.3147107448397
"299","60fcd9699c3def3068403b90","fomeó","pseudoword","0","0","1",0.8134,1,-0.206532285509013
"300","60fcd9699c3def3068403b90","ánimo","non_cognate","1","1","0",0.8135,1,-0.206409352323045
"301","60fcd9699c3def3068403b90","pitis","pseudoword","0","0","1",0.8305,1,-0.185727349928787
"302","60fcd9699c3def3068403b90","entodo","pseudoword","0","0","1",1.078,1,0.0751074724868055
"303","60fcd9699c3def3068403b90","anfia","pseudoword","0","0","1",0.8183,1,-0.200526261448801
"304","60fcd9699c3def3068403b90","cobén","pseudoword","0","0","1",0.7855,1,-0.241434821286461
"305","60fcd9699c3def3068403b90","medium","pseudoword","0","0","1",1.1615,1,0.149712273228327
"306","60fcd9699c3def3068403b90","portal","three_way_cognate","1","1","0",0.9319,1,-0.0705297661905273
"307","60fcd9699c3def3068403b90","seled","pseudoword","0","0","1",1.0155,1,0.0153811020383024
"308","60fcd9699c3def3068403b90","torso","two_way_cognate","1","1","0",1.009,1,0.0089597413714718
"309","60fcd9699c3def3068403b90","rizate","pseudoword","0","0","1",0.8323,1,-0.183562326230088
"310","60fcd9699c3def3068403b90","prías","pseudoword","0","0","1",0.7847,1,-0.24245379984871
"311","60fcd9699c3def3068403b90","hotel","three_way_cognate","1","1","0",1.0632,1,0.0612832284168984
"312","60fcd9699c3def3068403b90","feo","non_cognate","1","1","0",1.0887,1,0.0849843239049973
"313","60fcd9699c3def3068403b90","aurora","two_way_cognate","1","1","0",1.1658,1,0.153407546629312
"314","60fcd9699c3def3068403b90","mibro","pseudoword","0","0","1",0.8468,1,-0.166290739721427
"315","60fcd9699c3def3068403b90","civil","two_way_cognate","1","1","0",1.0456,1,0.0445908833278752
"316","60fcd9699c3def3068403b90","golf","three_way_cognate","1","1","0",1.2773,1,0.244748475066594
"317","60fcd9699c3def3068403b90","losco","pseudoword","0","0","1",0.918,1,-0.0855578883616465
"318","60fcd9699c3def3068403b90","esís","pseudoword","0","0","1",1.3181,1,0.276191305736283
"319","60fcd9699c3def3068403b90","animal","two_way_cognate","1","1","0",1.3024,1,0.264208716266139
"320","60fcd9699c3def3068403b90","edioso","pseudoword","0","0","1",0.8761,1,-0.132275039309819
"321","60fcd9699c3def3068403b90","siglo","non_cognate","1","1","0",1.4583,1,0.377271373737382
"322","60fcd9699c3def3068403b90","color","two_way_cognate","1","1","0",1.1135,1,0.107508207715285
"323","60fcd9699c3def3068403b90","babrá","pseudoword","0","0","1",1.6976,1,0.529215488877582
"324","60fcd9699c3def3068403b90","plural","three_way_cognate","1","1","0",1.5136,1,0.414490919315477
"325","60fcd9699c3def3068403b90","clamor","two_way_cognate","1","1","0",1.1121,1,0.106250119842659
"326","60fcd9699c3def3068403b90","inichó","pseudoword","0","0","1",1.1651,1,0.152806920243758
"327","60fcd9699c3def3068403b90","jauda","pseudoword","0","0","1",1.1958,1,0.178815417464667
"328","60fcd9699c3def3068403b90","plago","pseudoword","0","0","1",0.7838,1,-0.243601393216606
"329","60fcd9699c3def3068403b90","diroco","pseudoword","0","0","1",1.1788,1,0.164496971881403
"330","60fcd9699c3def3068403b90","parre","pseudoword","0","0","1",1.0782,1,0.0752929840354313
"331","60fcd9699c3def3068403b90","frasis","pseudoword","0","0","1",1.1494,1,0.139240067091504
"332","60fcd9699c3def3068403b90","forro","non_cognate","1","1","0",1.0524,1,0.0510732701840006
"333","60fcd9699c3def3068403b90","suelet","pseudoword","0","0","1",0.9649,1,-0.035730809955799
"334","60fcd9699c3def3068403b90","tradía","pseudoword","0","0","1",1.1844,1,0.169236317245299
"335","60fcd9699c3def3068403b90","molor","pseudoword","0","0","1",0.9631,1,-0.0375980304153185
"336","60fcd9699c3def3068403b90","collar","two_way_cognate","1","1","0",1.7264,1,0.546038315521733
"337","60fcd9699c3def3068403b90","tecia","pseudoword","0","0","1",0.7846,1,-0.242581245206685
"338","60fcd9699c3def3068403b90","total","two_way_cognate","1","1","0",0.9816,1,-0.0185713855854353
"339","60fcd9699c3def3068403b90","sacar","non_cognate","1","1","0",0.9994,1,-0.000600180072032461
"340","60fcd9699c3def3068403b90","tapa","non_cognate","1","1","0",0.9473,1,-0.0541394461006482
"341","60fcd9699c3def3068403b90","vinzó","pseudoword","0","0","1",0.8444,1,-0.169128963007971
"342","60fcd9699c3def3068403b90","hurcos","pseudoword","0","0","1",1.0618,1,0.0599655811674341
"343","60fcd9699c3def3068403b90","prave","pseudoword","0","0","1",0.8695,1,-0.139836945187799
"344","60fcd9699c3def3068403b90","dubo","pseudoword","0","0","1",0.8201,1,-0.198328994939771
"345","60fcd9699c3def3068403b90","samón","pseudoword","0","0","1",1.3141,1,0.273152020667455
"346","60fcd9699c3def3068403b90","actor","two_way_cognate","1","1","0",1.6142,1,0.478839477908135
"347","60fcd9699c3def3068403b90","gotro","pseudoword","0","0","1",0.7218,1,-0.326007186773449
"348","60fcd9699c3def3068403b90","laras","pseudoword","0","0","1",1.1132,1,0.107238750669599
"349","60fcd9699c3def3068403b90","llevar","non_cognate","1","1","0",1.0478,1,0.0466927279919824
"350","60fcd9699c3def3068403b90","torta","non_cognate","1","1","0",1.1132,1,0.107238750669599
"351","60fcd9699c3def3068403b90","guerra","non_cognate","1","1","0",0.9796,1,-0.0206109539041243
"352","60fcd9699c3def3068403b90","ozoso","pseudoword","0","0","1",1.1608,1,0.149109422587841
"353","60fcd9699c3def3068403b90","aura","three_way_cognate","1","1","0",0.7975,1,-0.226273444323137
"354","60fcd9699c3def3068403b90","gino","pseudoword","0","0","1",1.7189,1,0.541684551351974
"355","60fcd9699c3def3068403b90","drama","three_way_cognate","1","1","0",0.9646,1,-0.0360417713472655
"356","60fcd9699c3def3068403b90","épinas","pseudoword","0","0","1",0.7322,1,-0.311701578296001
"357","60fcd9699c3def3068403b90","coyo","pseudoword","0","0","1",0.7697,1,-0.261754450441865
"358","60fcd9699c3def3068403b90","civas","pseudoword","0","0","1",0.8835,1,-0.123863987222386
"359","60fcd9699c3def3068403b90","equipo","non_cognate","1","1","0",0.8421,1,-0.171856506946191
"360","60fcd9699c3def3068403b90","dobbo","pseudoword","0","0","1",0.6615,1,-0.413245295427127
"361","60fcd9699c3def3068403b90","rendir","non_cognate","1","1","0",0.7163,1,-0.333656205361731
"362","60fcd9699c3def3068403b90","sasos","pseudoword","0","0","1",0.6661,1,-0.406315469563003
"363","60fcd9699c3def3068403b90","morrá","pseudoword","0","0","1",1.2987,1,0.261363764133907
"364","60fcd9699c3def3068403b90","dogue","pseudoword","0","0","1",0.7307,1,-0.313752300184965
"365","60fcd9699c3def3068403b90","kilo","three_way_cognate","1","1","0",0.9304,1,-0.0721406777776824
"366","60fcd9699c3def3068403b90","lidena","pseudoword","0","0","1",0.6972,1,-0.360682965336271
"367","60fcd9699c3def3068403b90","harvé","pseudoword","0","0","1",0.9275,1,-0.0752624845005469
"368","60fcd9699c3def3068403b90","vueras","pseudoword","0","0","1",1.7494,1,0.559272872003618
"369","60fcd9699c3def3068403b90","nomata","pseudoword","0","0","1",0.8772,1,-0.131020262438404
"370","60fcd9699c3def3068403b90","brillo","non_cognate","1","1","0",0.7633,1,-0.270104140177712
"371","60fcd9699c3def3068403b90","tiza","non_cognate","1","1","0",1.0452,1,0.0442082546643203
"372","60fcd9699c3def3068403b90","aviso","non_cognate","1","1","0",0.6645,1,-0.408720400828837
"373","60fcd9699c3def3068403b90","dibrea","pseudoword","0","0","1",0.9967,1,-0.00330545700872648
"374","60fcd9699c3def3068403b90","conso","pseudoword","0","0","1",1.0994,1,0.0947645764444229
"375","60fcd9699c3def3068403b90","blando","non_cognate","1","1","0",0.7791,1,-0.249615871645325
"376","60fcd9699c3def3068403b90","mauja","pseudoword","0","0","1",0.8035,1,-0.21877809380457
"377","60fcd9699c3def3068403b90","emén","pseudoword","0","0","1",0.7,1,-0.356674943938732
"378","60fcd9699c3def3068403b90","hueas","pseudoword","0","0","1",0.7488,1,-0.289283353818755
"379","60fcd9699c3def3068403b90","tobre","pseudoword","0","0","1",1.0135,1,0.0134096869099177
"380","60fcd9699c3def3068403b90","fiscal","two_way_cognate","1","1","0",0.6823,1,-0.382285835160759
"381","60fcd9699c3def3068403b90","virios","pseudoword","0","0","1",0.7135,1,-0.337572842065246
"382","60fcd9699c3def3068403b90","aljizo","pseudoword","0","0","1",0.6813,1,-0.383752541202515
"383","60fcd9699c3def3068403b90","nasce","pseudoword","0","0","1",0.7307,1,-0.313752300184965
"384","60fcd9699c3def3068403b90","nocó","pseudoword","0","0","1",0.7672,1,-0.265007755412909
"385","60fcd9699c3def3068403b90","boñaz","pseudoword","0","0","1",0.8167,1,-0.202483448617907
"386","60fcd9699c3def3068403b90","chorde","pseudoword","0","0","1",0.8478,1,-0.1651105200636
"387","60fcd9699c3def3068403b90","caro","non_cognate","1","1","0",0.8001,1,-0.223018559126059
"388","60fcd9699c3def3068403b90","martir","pseudoword","0","0","1",1.4636,1,0.380899154162915
"389","60fcd9699c3def3068403b90","pelí","pseudoword","0","0","1",0.88,1,-0.127833371509885
"390","60fcd9699c3def3068403b90","barbs","pseudoword","0","0","1",0.796,1,-0.228156093137754
"391","60fcd9699c3def3068403b90","listo","non_cognate","1","1","0",0.7632,1,-0.27023515884806
"392","60fcd9699c3def3068403b90","tator","pseudoword","0","0","1",0.8076,1,-0.213688392543455
"393","60fcd9699c3def3068403b90","olzan","pseudoword","0","0","1",1.762,1,0.566449527513988
"394","60fcd9699c3def3068403b90","kugis","pseudoword","0","0","1",0.5978,1,-0.5144990291323
"395","60fcd9699c3def3068403b90","suelo","non_cognate","1","1","0",0.8163,1,-0.202973344524827
"396","60fcd9699c3def3068403b90","cuenco","non_cognate","1","1","0",0.8655,1,-0.144447904365873
"397","60fcd9699c3def3068403b90","arane","pseudoword","0","0","1",0.9636,1,-0.0370790082414207
"398","60fcd9699c3def3068403b90","venado","non_cognate","1","1","0",0.7314,1,-0.312794773266856
"399","60fcd9699c3def3068403b90","mortal","two_way_cognate","1","1","0",0.9289,1,-0.073754188588662
"400","60fcd9699c3def3068403b90","trugo","pseudoword","0","0","1",0.7179,1,-0.3314249953997
"401","60fcd9699c3def3068403b90","asumie","pseudoword","0","0","1",1.1979,1,0.180570023755148
"402","60fcd9699c3def3068403b90","ala","non_cognate","1","1","0",0.8635,1,-0.146761381395404
"403","60fcd9699c3def3068403b90","monue","pseudoword","0","0","1",0.7626,1,-0.271021631558674
"404","60fcd9699c3def3068403b90","pabea","pseudoword","0","0","1",0.7474,1,-0.291154761930754
"405","60fcd9699c3def3068403b90","golla","pseudoword","0","0","1",1.0161,1,0.0159717695096987
"406","613929236e3092c6bad219ab","extra","three_way_cognate","1","1","0",0.981,1,-0.019182819416774
"407","613929236e3092c6bad219ab","trauma","three_way_cognate","1","1","0",0.7342,1,-0.308973807919403
"408","613929236e3092c6bad219ab","pabea","pseudoword","0","0","1",0.6452,1,-0.438194932731083
"409","613929236e3092c6bad219ab","dibrea","pseudoword","0","0","1",0.6663,1,-0.406015259413646
"410","613929236e3092c6bad219ab","vueras","pseudoword","0","0","1",0.7989,1,-0.224519497494141
"411","613929236e3092c6bad219ab","parre","pseudoword","0","0","1",0.9824,1,-0.017756721589259
"412","613929236e3092c6bad219ab","emén","pseudoword","0","0","1",0.6127,1,-0.489879859250528
"413","613929236e3092c6bad219ab","halo","two_way_cognate","1","1","0",0.784,1,-0.243346258631729
"414","613929236e3092c6bad219ab","aduana","non_cognate","1","1","0",0.6336,1,-0.456337438481921
"415","613929236e3092c6bad219ab","edioso","pseudoword","0","0","1",0.9834,1,-0.016739324004298
"416","613929236e3092c6bad219ab","maldad","non_cognate","1","1","0",0.6338,1,-0.456021831725317
"417","613929236e3092c6bad219ab","grigir","pseudoword","0","0","1",1.2183,1,0.197456444378225
"418","613929236e3092c6bad219ab","panté","pseudoword","0","0","1",0.734,1,-0.309246250367621
"419","613929236e3092c6bad219ab","portal","three_way_cognate","1","1","0",0.7005,1,-0.355960913205075
"420","613929236e3092c6bad219ab","nocita","pseudoword","0","0","1",0.8005,1,-0.222518746545368
"421","613929236e3092c6bad219ab","vinzó","pseudoword","0","0","1",0.6043,1,-0.503684515614624
"422","613929236e3092c6bad219ab","tapón","non_cognate","1","1","0",0.854,1,-0.157824085193567
"423","613929236e3092c6bad219ab","virios","pseudoword","0","0","1",0.7246,1,-0.32213550052116
"424","613929236e3092c6bad219ab","estulo","pseudoword","0","0","1",0.8763,1,-0.132046780920332
"425","613929236e3092c6bad219ab","leniz","pseudoword","0","0","1",0.5034,1,-0.686370196280922
"426","613929236e3092c6bad219ab","piano","two_way_cognate","1","1","0",0.5255,1,-0.643405088665131
"427","613929236e3092c6bad219ab","rizado","non_cognate","1","1","0",0.6728,1,-0.396307170323399
"428","613929236e3092c6bad219ab","clan","three_way_cognate","1","1","0",0.6041,1,-0.504015531837442
"429","613929236e3092c6bad219ab","babrá","pseudoword","0","0","1",0.7685,1,-0.263314716003487
"430","613929236e3092c6bad219ab","huenos","pseudoword","0","0","1",0.7841,1,-0.243218715745261
"431","613929236e3092c6bad219ab","animal","two_way_cognate","1","1","0",0.6299,1,-0.462194202354254
"432","613929236e3092c6bad219ab","guerra","non_cognate","1","1","0",0.5074,1,-0.678455631816956
"433","613929236e3092c6bad219ab","civas","pseudoword","0","0","1",0.6464,1,-0.436336771775251
"434","613929236e3092c6bad219ab","flecha","non_cognate","1","1","0",0.563,1,-0.574475650842447
"435","613929236e3092c6bad219ab","arane","pseudoword","0","0","1",0.6143,1,-0.487271870812255
"436","613929236e3092c6bad219ab","tradía","pseudoword","0","0","1",0.7608,1,-0.273384767750956
"437","613929236e3092c6bad219ab","gotro","pseudoword","0","0","1",0.5604,1,-0.579104464519285
"438","613929236e3092c6bad219ab","laras","pseudoword","0","0","1",0.5599,1,-0.57999708262729
"439","613929236e3092c6bad219ab","sasos","pseudoword","0","0","1",0.7842,1,-0.243091189123906
"440","613929236e3092c6bad219ab","caro","non_cognate","1","1","0",0.6078,1,-0.497909398499444
"441","613929236e3092c6bad219ab","ardor","two_way_cognate","1","1","0",0.635,1,-0.454130280089445
"442","613929236e3092c6bad219ab","golf","three_way_cognate","1","1","0",0.5263,1,-0.641883886622404
"443","613929236e3092c6bad219ab","sacar","non_cognate","1","1","0",0.5627,1,-0.575008652542904
"444","613929236e3092c6bad219ab","entodo","pseudoword","0","0","1",1.0422,1,0.0413338634929772
"445","613929236e3092c6bad219ab","enigma","two_way_cognate","1","1","0",0.7652,1,-0.267618041416039
"446","613929236e3092c6bad219ab","rúo","pseudoword","0","0","1",0.8314,1,-0.1846442521636
"447","613929236e3092c6bad219ab","fuar","pseudoword","0","0","1",1.2777,1,0.24506158661514
"448","613929236e3092c6bad219ab","diebro","pseudoword","0","0","1",0.61,1,-0.49429632181478
"449","613929236e3092c6bad219ab","morrá","pseudoword","0","0","1",1.093,1,0.0889262091944015
"450","613929236e3092c6bad219ab","drama","three_way_cognate","1","1","0",0.6781,1,-0.388460509292341
"451","613929236e3092c6bad219ab","asumie","pseudoword","0","0","1",0.7297,1,-0.315121788210563
"452","613929236e3092c6bad219ab","moral","three_way_cognate","1","1","0",0.5683,1,-0.565105830679061
"453","613929236e3092c6bad219ab","pelvis","two_way_cognate","1","1","0",0.5426,1,-0.611382878757306
"454","613929236e3092c6bad219ab","plan","three_way_cognate","1","1","0",0.5253,1,-0.643785751022221
"455","613929236e3092c6bad219ab","golla","pseudoword","0","0","1",0.5763,1,-0.551126920539516
"456","613929236e3092c6bad219ab","tobre","pseudoword","0","0","1",0.6026,1,-0.506501652285936
"457","613929236e3092c6bad219ab","harvé","pseudoword","0","0","1",0.5196,1,-0.654695994185693
"458","613929236e3092c6bad219ab","dogue","pseudoword","0","0","1",0.6147,1,-0.486620935069173
"459","613929236e3092c6bad219ab","kilo","three_way_cognate","1","1","0",0.6024,1,-0.506833602496453
"460","613929236e3092c6bad219ab","punta","non_cognate","1","1","0",0.6781,1,-0.388460509292341
"461","613929236e3092c6bad219ab","bará","pseudoword","0","0","1",0.5907,1,-0.526447004668947
"462","613929236e3092c6bad219ab","trcia","pseudoword","0","0","1",0.679,1,-0.387134151423441
"463","613929236e3092c6bad219ab","honor","two_way_cognate","1","1","0",0.5254,1,-0.643595401730698
"464","613929236e3092c6bad219ab","horror","three_way_cognate","1","1","0",0.9699,1,-0.03056230558264
"465","613929236e3092c6bad219ab","ozoso","pseudoword","0","0","1",0.8396,1,-0.174829691035659
"466","613929236e3092c6bad219ab","trugo","pseudoword","0","0","1",0.6523,1,-0.427250700180087
"467","613929236e3092c6bad219ab","pasta","two_way_cognate","1","1","0",0.6276,1,-0.46585225812326
"468","613929236e3092c6bad219ab","puñal","non_cognate","1","1","0",0.6605,1,-0.414758155019757
"469","613929236e3092c6bad219ab","mortal","two_way_cognate","1","1","0",0.5192,1,-0.655466113592257
"470","613929236e3092c6bad219ab","sierra","non_cognate","1","1","0",0.5145,1,-0.664559723708033
"471","613929236e3092c6bad219ab","conso","pseudoword","0","0","1",0.7124,1,-0.33911572756663
"472","613929236e3092c6bad219ab","hilo","non_cognate","1","1","0",0.5361,1,-0.623434568148645
"473","613929236e3092c6bad219ab","bugor","pseudoword","0","0","1",0.5276,1,-0.639416858138978
"474","613929236e3092c6bad219ab","patada","non_cognate","1","1","0",0.769,1,-0.262664309476493
"475","613929236e3092c6bad219ab","cengo","pseudoword","0","0","1",0.6163,1,-0.48402142101394
"476","613929236e3092c6bad219ab","llevar","non_cognate","1","1","0",0.5833,1,-0.539053645222545
"477","613929236e3092c6bad219ab","colcha","non_cognate","1","1","0",0.5352,1,-0.625114770168118
"478","613929236e3092c6bad219ab","dubo","pseudoword","0","0","1",0.7057,1,-0.348565060975353
"479","613929236e3092c6bad219ab","tecia","pseudoword","0","0","1",0.5612,1,-0.577677930753831
"480","613929236e3092c6bad219ab","densó","pseudoword","0","0","1",0.5695,1,-0.5629964960949
"481","613929236e3092c6bad219ab","aljizo","pseudoword","0","0","1",1.0503,1,0.0490758376465926
"482","613929236e3092c6bad219ab","cuenco","non_cognate","1","1","0",0.8781,1,-0.129994796616187
"483","613929236e3092c6bad219ab","dogma","three_way_cognate","1","1","0",1.071,1,0.0685927914656117
"484","613929236e3092c6bad219ab","forro","non_cognate","1","1","0",0.6094,1,-0.495280412430528
"485","613929236e3092c6bad219ab","olzan","pseudoword","0","0","1",0.6179,1,-0.481428646915203
"486","613929236e3092c6bad219ab","kugis","pseudoword","0","0","1",0.5682,1,-0.565281809562049
"487","613929236e3092c6bad219ab","monue","pseudoword","0","0","1",0.5716,1,-0.559315832926425
"488","613929236e3092c6bad219ab","plago","pseudoword","0","0","1",0.9696,1,-0.030871663667087
"489","613929236e3092c6bad219ab","aviso","non_cognate","1","1","0",0.5676,1,-0.566338333696249
"490","613929236e3092c6bad219ab","diabo","pseudoword","0","0","1",0.7264,1,-0.319654451695053
"491","613929236e3092c6bad219ab","seled","pseudoword","0","0","1",0.6661,1,-0.406315469563003
"492","613929236e3092c6bad219ab","nomata","pseudoword","0","0","1",0.6041,1,-0.504015531837442
"493","613929236e3092c6bad219ab","desaro","pseudoword","0","0","1",0.9398,1,-0.0620881923134217
"494","613929236e3092c6bad219ab","editor","two_way_cognate","1","1","0",0.5816,1,-0.541972352762827
"495","613929236e3092c6bad219ab","torta","non_cognate","1","1","0",0.5374,1,-0.621012582800746
"496","613929236e3092c6bad219ab","esís","pseudoword","0","0","1",0.5808,1,-0.543348815471551
"497","613929236e3092c6bad219ab","diroco","pseudoword","0","0","1",0.6475,1,-0.434636485408444
"498","613929236e3092c6bad219ab","frasis","pseudoword","0","0","1",0.5341,1,-0.627172191636412
"499","613929236e3092c6bad219ab","molor","pseudoword","0","0","1",0.7341,1,-0.309110019865401
"500","613929236e3092c6bad219ab","próces","pseudoword","0","0","1",0.5247,1,-0.644928608289471
"501","613929236e3092c6bad219ab","gravés","pseudoword","0","0","1",0.5349,1,-0.625675465444933
"502","613929236e3092c6bad219ab","feo","non_cognate","1","1","0",0.5289,1,-0.636955900910203
"503","613929236e3092c6bad219ab","mafia","three_way_cognate","1","1","0",0.7264,1,-0.319654451695053
"504","613929236e3092c6bad219ab","nocó","pseudoword","0","0","1",0.7008,1,-0.355532739359955
"505","613929236e3092c6bad219ab","ceme","pseudoword","0","0","1",0.9035,1,-0.101479168949854
"506","613929236e3092c6bad219ab","disco","three_way_cognate","1","1","0",0.6784,1,-0.388018194504444
"507","613929236e3092c6bad219ab","clamor","two_way_cognate","1","1","0",0.7944,1,-0.230168166251174
"508","613929236e3092c6bad219ab","color","two_way_cognate","1","1","0",0.8348,1,-0.180563103779091
"509","613929236e3092c6bad219ab","civil","two_way_cognate","1","1","0",0.5156,1,-0.662424007917105
"510","613929236e3092c6bad219ab","brillo","non_cognate","1","1","0",0.5419,1,-0.612673796410068
"511","613929236e3092c6bad219ab","lobe","pseudoword","0","0","1",0.6486,1,-0.43293908510892
"512","613929236e3092c6bad219ab","collar","two_way_cognate","1","1","0",0.5763,1,-0.551126920539516
"513","613929236e3092c6bad219ab","gió","pseudoword","0","0","1",0.5263,1,-0.641883886622404
"514","613929236e3092c6bad219ab","equipo","non_cognate","1","1","0",0.7244,1,-0.322411552972879
"515","613929236e3092c6bad219ab","jauda","pseudoword","0","0","1",0.7095,1,-0.34319478238204
"516","613929236e3092c6bad219ab","pico","non_cognate","1","1","0",0.6689,1,-0.402120706857775
"517","613929236e3092c6bad219ab","lidena","pseudoword","0","0","1",0.656,1,-0.421594490038048
"518","613929236e3092c6bad219ab","prías","pseudoword","0","0","1",0.6854,1,-0.377752669541629
"519","613929236e3092c6bad219ab","tator","pseudoword","0","0","1",0.6608,1,-0.414304056775369
"520","613929236e3092c6bad219ab","nasce","pseudoword","0","0","1",0.5034,1,-0.686370196280922
"521","613929236e3092c6bad219ab","altar","three_way_cognate","1","1","0",0.6299,1,-0.462194202354254
"522","613929236e3092c6bad219ab","chote","pseudoword","0","0","1",0.9438,1,-0.0578409996898499
"523","613929236e3092c6bad219ab","prave","pseudoword","0","0","1",0.6218,1,-0.475136781357484
"524","613929236e3092c6bad219ab","boñaz","pseudoword","0","0","1",0.5353,1,-0.624927941582801
"525","613929236e3092c6bad219ab","hotel","three_way_cognate","1","1","0",0.6665,1,-0.405715139363374
"526","613929236e3092c6bad219ab","tumor","three_way_cognate","1","1","0",0.8845,1,-0.122732765382297
"527","613929236e3092c6bad219ab","chat","three_way_cognate","1","1","0",0.6105,1,-0.493476985431378
"528","613929236e3092c6bad219ab","muleta","non_cognate","1","1","0",0.5145,1,-0.664559723708033
"529","613929236e3092c6bad219ab","siglo","non_cognate","1","1","0",0.5354,1,-0.624741147895885
"530","613929236e3092c6bad219ab","viable","two_way_cognate","1","1","0",0.5987,1,-0.512994641050831
"531","613929236e3092c6bad219ab","fiscal","two_way_cognate","1","1","0",0.5415,1,-0.613412212541092
"532","613929236e3092c6bad219ab","épinas","pseudoword","0","0","1",0.7603,1,-0.274042186747746
"533","613929236e3092c6bad219ab","aurora","two_way_cognate","1","1","0",0.7655,1,-0.267226063884399
"534","613929236e3092c6bad219ab","hurcos","pseudoword","0","0","1",0.9966,1,-0.00340579313483282
"535","613929236e3092c6bad219ab","medium","pseudoword","0","0","1",0.6371,1,-0.450828649859695
"536","613929236e3092c6bad219ab","hueas","pseudoword","0","0","1",0.7493,1,-0.288615841611872
"537","613929236e3092c6bad219ab","listo","non_cognate","1","1","0",0.782,1,-0.245900538436826
"538","613929236e3092c6bad219ab","mibro","pseudoword","0","0","1",0.863,1,-0.147340587898709
"539","613929236e3092c6bad219ab","flora","three_way_cognate","1","1","0",0.6011,1,-0.508993968937021
"540","613929236e3092c6bad219ab","cricó","pseudoword","0","0","1",0.7994,1,-0.223893832704914
"541","613929236e3092c6bad219ab","blando","non_cognate","1","1","0",0.8704,1,-0.138802402880459
"542","613929236e3092c6bad219ab","cobén","pseudoword","0","0","1",0.8005,1,-0.222518746545368
"543","613929236e3092c6bad219ab","venado","non_cognate","1","1","0",0.5495,1,-0.598746505138461
"544","613929236e3092c6bad219ab","suelet","pseudoword","0","0","1",0.7505,1,-0.28701562790862
"545","613929236e3092c6bad219ab","chorde","pseudoword","0","0","1",0.5514,1,-0.595294780392441
"546","613929236e3092c6bad219ab","chocar","non_cognate","1","1","0",0.6177,1,-0.481752376280284
"547","613929236e3092c6bad219ab","enorme","non_cognate","1","1","0",0.5719,1,-0.558791128060867
"548","613929236e3092c6bad219ab","retina","three_way_cognate","1","1","0",0.5533,1,-0.591854929078073
"549","613929236e3092c6bad219ab","pitis","pseudoword","0","0","1",0.6458,1,-0.437265420657962
"550","613929236e3092c6bad219ab","cuenco","non_cognate","1","1","0",0.6803,1,-0.385221401631122
"551","613929236e3092c6bad219ab","aleta","non_cognate","1","1","0",1.087,1,0.0834216081390724
"552","613929236e3092c6bad219ab","total","two_way_cognate","1","1","0",0.5155,1,-0.662617975525122
"553","613929236e3092c6bad219ab","test","three_way_cognate","1","1","0",0.5155,1,-0.662617975525122
"554","613929236e3092c6bad219ab","fomeó","pseudoword","0","0","1",0.5624,1,-0.575541938485682
"555","613929236e3092c6bad219ab","pelvis","two_way_cognate","1","1","0",0.6293,1,-0.463147188449249
"556","613929236e3092c6bad219ab","rendir","non_cognate","1","1","0",0.5627,1,-0.575008652542904
"557","613929236e3092c6bad219ab","plural","three_way_cognate","1","1","0",0.9832,1,-0.016942720730312
"558","613929236e3092c6bad219ab","tiza","non_cognate","1","1","0",0.7507,1,-0.28674917440318
"559","613929236e3092c6bad219ab","vien","pseudoword","0","0","1",0.7659,1,-0.266703666066589
"560","613929236e3092c6bad219ab","listo","non_cognate","1","1","0",0.5631,1,-0.574298046721564
"561","613929236e3092c6bad219ab","muñeca","non_cognate","1","1","0",0.5008,1,-0.691548459196248
"562","613929236e3092c6bad219ab","coyo","pseudoword","0","0","1",0.9995,1,-0.000500125041682243
"563","613929236e3092c6bad219ab","pupica","pseudoword","0","0","1",0.6505,1,-0.430013981029577
"564","613929236e3092c6bad219ab","casual","two_way_cognate","1","1","0",1.189,1,0.173112617708645
"565","62ac76db32757a0dbb1c59f0","caro","non_cognate","1","1","0",1.9558,1,0.670799316896038
"566","62ac76db32757a0dbb1c59f0","trugo","pseudoword","0","0","1",2.4468,1,0.894781048386273
"567","62ac76db32757a0dbb1c59f0","chote","pseudoword","0","0","1",2.4281,1,0.887109058510575
"568","62ac76db32757a0dbb1c59f0","brillo","non_cognate","1","1","0",1.7645,1,0.567867364133188
"569","62ac76db32757a0dbb1c59f0","chorde","pseudoword","0","0","1",2.3946,1,0.873216202300606
"570","62ac76db32757a0dbb1c59f0","conso","pseudoword","0","0","1",1.6746,1,0.515574330788194
"571","62ac76db32757a0dbb1c59f0","cobén","pseudoword","0","0","1",1.7499,1,0.559558643445565
"572","62ac76db32757a0dbb1c59f0","diabo","pseudoword","0","0","1",2.626,1,0.965461775880604
"573","62ac76db32757a0dbb1c59f0","aduana","non_cognate","1","1","0",1.3998,1,0.336329369273302
"574","62ac76db32757a0dbb1c59f0","suelet","pseudoword","0","0","1",2.6249,1,0.96504280007985
"575","62ac76db32757a0dbb1c59f0","cuenco","non_cognate","1","1","0",2.1549,1,0.767744318766729
"576","62ac76db32757a0dbb1c59f0","sacar","non_cognate","1","1","0",2.0047,1,0.695494423628294
"577","62ac76db32757a0dbb1c59f0","color","two_way_cognate","1","1","0",1.6508,1,0.50126001889629
"578","62ac76db32757a0dbb1c59f0","barbs","pseudoword","0","0","1",2.2796,1,0.823999988978707
"579","62ac76db32757a0dbb1c59f0","gió","pseudoword","0","0","1",1.745,1,0.556754555654391
"580","62ac76db32757a0dbb1c59f0","plan","three_way_cognate","1","1","0",1.7576,1,0.563949242088263
"581","62ac76db32757a0dbb1c59f0","lidena","pseudoword","0","0","1",1.9009,1,0.642327458229971
"582","62ac76db32757a0dbb1c59f0","enigma","two_way_cognate","1","1","0",1.4086,1,0.342596303329173
"583","62ac76db32757a0dbb1c59f0","bugor","pseudoword","0","0","1",2.8396,1,1.04366319718309
"584","62ac76db32757a0dbb1c59f0","actor","two_way_cognate","1","1","0",2.0343,1,0.710151779375769
"585","62ac76db32757a0dbb1c59f0","flora","three_way_cognate","1","1","0",2.7867,1,1.02485810007945
"586","62ac76db32757a0dbb1c59f0","dibrea","pseudoword","0","0","1",2.4798,1,0.908177911763605
"587","62ac76db32757a0dbb1c59f0","parre","pseudoword","0","0","1",1.4018,1,0.337757125084087
"588","62ac76db32757a0dbb1c59f0","épinas","pseudoword","0","0","1",2.7001,1,0.993288809361466
"589","62ac76db32757a0dbb1c59f0","cricó","pseudoword","0","0","1",2.6951,1,0.991435309423951
"590","62ac76db32757a0dbb1c59f0","collar","two_way_cognate","1","1","0",2.8732,1,1.05542639121851
"591","62ac76db32757a0dbb1c59f0","losco","pseudoword","0","0","1",2.7522,1,1.01240059184904
"592","62ac76db32757a0dbb1c59f0","piano","two_way_cognate","1","1","0",1.3178,1,0.275963679497583
"593","62ac76db32757a0dbb1c59f0","sierra","non_cognate","1","1","0",2.635,1,0.968883181993326
"594","62ac76db32757a0dbb1c59f0","llamar","non_cognate","1","1","0",1.5183,1,0.417591287906005
"595","62ac76db32757a0dbb1c59f0","rumor","two_way_cognate","1","1","0",2.0371,1,0.711527227841375
"596","62ac76db32757a0dbb1c59f0","retina","three_way_cognate","1","1","0",2.0112,1,0.698731558853846
"597","62ac76db32757a0dbb1c59f0","huenos","pseudoword","0","0","1",2.2836,1,0.825753145107967
"598","62ac76db32757a0dbb1c59f0","blando","non_cognate","1","1","0",2.6704,1,0.982228273925434
"599","62ac76db32757a0dbb1c59f0","aviso","non_cognate","1","1","0",2.7765,1,1.02119114169952
"600","62ac76db32757a0dbb1c59f0","plago","pseudoword","0","0","1",1.6996,1,0.530392929258519
"601","62ac76db32757a0dbb1c59f0","puñal","non_cognate","1","1","0",2.6948,1,0.991323990104368
"602","62ac76db32757a0dbb1c59f0","total","two_way_cognate","1","1","0",2.2538,1,0.812617680536112
"603","62ac76db32757a0dbb1c59f0","dobbo","pseudoword","0","0","1",1.3899,1,0.329231802108575
"604","62ac76db32757a0dbb1c59f0","coyo","pseudoword","0","0","1",1.398,1,0.335042643811618
"605","62ac76db32757a0dbb1c59f0","tator","pseudoword","0","0","1",2.867,1,1.05326618690123
"606","62ac76db32757a0dbb1c59f0","equipo","non_cognate","1","1","0",2.5303,1,0.928337872784822
"607","62ac76db32757a0dbb1c59f0","halo","two_way_cognate","1","1","0",2.0659,1,0.725565966815446
"608","62ac76db32757a0dbb1c59f0","ceme","pseudoword","0","0","1",2.701,1,0.993622074810479
"609","62ac76db32757a0dbb1c59f0","hueas","pseudoword","0","0","1",2.7113,1,0.997428224667094
"610","62ac76db32757a0dbb1c59f0","ánimo","non_cognate","1","1","0",2.6947,1,0.991286880910561
"611","62ac76db32757a0dbb1c59f0","edioso","pseudoword","0","0","1",2.8767,1,1.05664380384561
"612","62ac76db32757a0dbb1c59f0","honor","two_way_cognate","1","1","0",2.4651,1,0.902232374623115
"613","62ac76db32757a0dbb1c59f0","pasta","two_way_cognate","1","1","0",1.7386,1,0.553080191662827
"614","62ac76db32757a0dbb1c59f0","dogue","pseudoword","0","0","1",2.8411,1,1.04419130112622
"615","62ac76db32757a0dbb1c59f0","esís","pseudoword","0","0","1",1.7966,1,0.585895989812969
"616","62ac76db32757a0dbb1c59f0","horror","three_way_cognate","1","1","0",1.3977,1,0.334828028508724
"617","62ac76db32757a0dbb1c59f0","patada","non_cognate","1","1","0",1.4884,1,0.39770171749033
"618","62ac76db32757a0dbb1c59f0","plural","three_way_cognate","1","1","0",1.4763,1,0.389538957557905
"619","62ac76db32757a0dbb1c59f0","rúo","pseudoword","0","0","1",1.8024,1,0.589119110135898
"620","62ac76db32757a0dbb1c59f0","tradía","pseudoword","0","0","1",2.8783,1,1.05719984208756
"621","62ac76db32757a0dbb1c59f0","tiza","non_cognate","1","1","0",2.8929,1,1.06225945920231
"622","62ac76db32757a0dbb1c59f0","virios","pseudoword","0","0","1",1.4258,1,0.354733059701391
"623","62ac76db32757a0dbb1c59f0","pico","non_cognate","1","1","0",1.3088,1,0.269110686866346
"624","62ac76db32757a0dbb1c59f0","fomeó","pseudoword","0","0","1",2.6475,1,0.973615798493425
"625","62ac76db32757a0dbb1c59f0","clan","three_way_cognate","1","1","0",2.2705,1,0.820000071555869
"626","62ac76db32757a0dbb1c59f0","golla","pseudoword","0","0","1",1.9144,1,0.649404257612027
"627","62ac76db32757a0dbb1c59f0","samón","pseudoword","0","0","1",1.3098,1,0.269874453801816
"628","62ac76db32757a0dbb1c59f0","cuenco","non_cognate","1","1","0",1.8341,1,0.60655389797485
"629","62ac76db32757a0dbb1c59f0","animal","two_way_cognate","1","1","0",1.4276,1,0.355994712633868
"630","62ac76db32757a0dbb1c59f0","grigir","pseudoword","0","0","1",1.7333,1,0.550027105965128
"631","62ac76db32757a0dbb1c59f0","viable","two_way_cognate","1","1","0",2.8107,1,1.03343356264312
"632","62ac76db32757a0dbb1c59f0","llevar","non_cognate","1","1","0",1.8101,1,0.59338209237037
"633","62ac76db32757a0dbb1c59f0","babrá","pseudoword","0","0","1",2.2743,1,0.821672312748231
"634","62ac76db32757a0dbb1c59f0","ala","non_cognate","1","1","0",1.7462,1,0.55744199839457
"635","62ac76db32757a0dbb1c59f0","suelo","non_cognate","1","1","0",1.5655,1,0.448205261784323
"636","62ac76db32757a0dbb1c59f0","olzan","pseudoword","0","0","1",1.7365,1,0.551871593201992
"637","62ac76db32757a0dbb1c59f0","venado","non_cognate","1","1","0",1.5504,1,0.438512962154365
"638","62ac76db32757a0dbb1c59f0","monue","pseudoword","0","0","1",1.3689,1,0.31400749761933
"639","62ac76db32757a0dbb1c59f0","mauja","pseudoword","0","0","1",1.3992,1,0.335900644722255
"640","62ac76db32757a0dbb1c59f0","bará","pseudoword","0","0","1",1.38,1,0.322083499169113
"641","62ac76db32757a0dbb1c59f0","drama","three_way_cognate","1","1","0",1.3061,1,0.267045597601339
"642","62ac76db32757a0dbb1c59f0","chat","three_way_cognate","1","1","0",1.3907,1,0.329807217502428
"643","62ac76db32757a0dbb1c59f0","estulo","pseudoword","0","0","1",1.7011,1,0.5312751006334
"644","62ac76db32757a0dbb1c59f0","listo","non_cognate","1","1","0",1.6474,1,0.499198287525011
"645","62ac76db32757a0dbb1c59f0","muñeca","non_cognate","1","1","0",1.6232,1,0.484399509529468
"646","62ac76db32757a0dbb1c59f0","rizado","non_cognate","1","1","0",2.6221,1,0.963975523439566
"647","62ac76db32757a0dbb1c59f0","moral","three_way_cognate","1","1","0",2.1663,1,0.773020643143109
"648","62ac76db32757a0dbb1c59f0","kugis","pseudoword","0","0","1",1.7768,1,0.574813993598081
"649","62ac76db32757a0dbb1c59f0","cengo","pseudoword","0","0","1",1.4566,1,0.376104952801678
"650","62ac76db32757a0dbb1c59f0","trcia","pseudoword","0","0","1",1.2933,1,0.257197091439061
"651","62ac76db32757a0dbb1c59f0","hotel","three_way_cognate","1","1","0",1.6957,1,0.528095634930945
"652","62ac76db32757a0dbb1c59f0","mortal","two_way_cognate","1","1","0",1.469,1,0.38458189719174
"653","62ac76db32757a0dbb1c59f0","mibro","pseudoword","0","0","1",1.3481,1,0.298696193714881
"654","62ac76db32757a0dbb1c59f0","torta","non_cognate","1","1","0",2.6171,1,0.962066834510739
"655","62ac76db32757a0dbb1c59f0","muleta","non_cognate","1","1","0",1.2873,1,0.252547001683452
"656","62ac76db32757a0dbb1c59f0","diroco","pseudoword","0","0","1",1.7296,1,0.547890167902807
"657","62ac76db32757a0dbb1c59f0","pelvis","two_way_cognate","1","1","0",1.2227,1,0.201061528168007
"658","62ac76db32757a0dbb1c59f0","test","three_way_cognate","1","1","0",2.0566,1,0.721054133812953
"659","62ac76db32757a0dbb1c59f0","suave","non_cognate","1","1","0",1.377,1,0.319907219746518
"660","62ac76db32757a0dbb1c59f0","seled","pseudoword","0","0","1",1.3062,1,0.26712215848642
"661","62ac76db32757a0dbb1c59f0","harvé","pseudoword","0","0","1",1.3174,1,0.275660097224455
"662","62ac76db32757a0dbb1c59f0","lobe","pseudoword","0","0","1",1.2826,1,0.248889267732625
"663","62ac76db32757a0dbb1c59f0","disco","three_way_cognate","1","1","0",1.7244,1,0.544879163890842
"664","62ac76db32757a0dbb1c59f0","tobre","pseudoword","0","0","1",1.3759,1,0.319108062451634
"665","62ac76db32757a0dbb1c59f0","dubo","pseudoword","0","0","1",1.7126,1,0.538012683609955
"666","62ac76db32757a0dbb1c59f0","pelí","pseudoword","0","0","1",2.627,1,0.965842510703403
"667","62ac76db32757a0dbb1c59f0","morrá","pseudoword","0","0","1",2.7227,1,1.00162403501843
"668","62ac76db32757a0dbb1c59f0","golf","three_way_cognate","1","1","0",1.3672,1,0.312764852819244
"669","62ac76db32757a0dbb1c59f0","colcha","non_cognate","1","1","0",1.8271,1,0.602730010435483
"670","62ac76db32757a0dbb1c59f0","prías","pseudoword","0","0","1",1.2952,1,0.258665123381288
"671","62ac76db32757a0dbb1c59f0","desaro","pseudoword","0","0","1",1.8684,1,0.625082449645816
"672","62ac76db32757a0dbb1c59f0","prave","pseudoword","0","0","1",1.289,1,0.25386672395705
"673","62ac76db32757a0dbb1c59f0","torso","two_way_cognate","1","1","0",1.3886,1,0.328296045337036
"674","62ac76db32757a0dbb1c59f0","feo","non_cognate","1","1","0",1.4401,1,0.3647125556212
"675","62ac76db32757a0dbb1c59f0","laras","pseudoword","0","0","1",1.478,1,0.39068982252601
"676","62ac76db32757a0dbb1c59f0","teñir","non_cognate","1","1","0",1.4702,1,0.38539844595785
"677","62ac76db32757a0dbb1c59f0","nocó","pseudoword","0","0","1",1.362,1,0.308954207727321
"678","62ac76db32757a0dbb1c59f0","civas","pseudoword","0","0","1",1.4469,1,0.369423336760899
"679","62ac76db32757a0dbb1c59f0","enorme","non_cognate","1","1","0",1.2864,1,0.251847619442565
"680","62ac76db32757a0dbb1c59f0","flecha","non_cognate","1","1","0",1.3726,1,0.316706751492397
"681","62ac76db32757a0dbb1c59f0","molor","pseudoword","0","0","1",1.3503,1,0.30032678998486
"682","62ac76db32757a0dbb1c59f0","boñaz","pseudoword","0","0","1",1.7296,1,0.547890167902807
"683","62ac76db32757a0dbb1c59f0","pupica","pseudoword","0","0","1",1.812,1,0.594431207620788
"684","62ac76db32757a0dbb1c59f0","regalo","non_cognate","1","1","0",1.0598,1,0.0580802110765247
"685","62ac76db32757a0dbb1c59f0","panté","pseudoword","0","0","1",1.4929,1,0.400720537077407
"686","62ac76db32757a0dbb1c59f0","nomata","pseudoword","0","0","1",1.5484,1,0.437222139721356
"687","62ac76db32757a0dbb1c59f0","emén","pseudoword","0","0","1",1.3857,1,0.326205427122532
"688","62ac76db32757a0dbb1c59f0","nocita","pseudoword","0","0","1",1.3802,1,0.322228416204364
"689","62ac76db32757a0dbb1c59f0","aurora","two_way_cognate","1","1","0",1.5634,1,0.446862936804093
"690","62ac76db32757a0dbb1c59f0","percha","non_cognate","1","1","0",1.5737,1,0.453429534624682
"691","62ac76db32757a0dbb1c59f0","rizate","pseudoword","0","0","1",2.0719,1,0.7284660606843
"692","62ac76db32757a0dbb1c59f0","pitis","pseudoword","0","0","1",1.5888,1,0.462979014308771
"693","62ac76db32757a0dbb1c59f0","leniz","pseudoword","0","0","1",1.8214,1,0.599605436151581
"694","62ac76db32757a0dbb1c59f0","fuar","pseudoword","0","0","1",1.6592,1,0.506335558493126
"695","62ac76db32757a0dbb1c59f0","tapón","non_cognate","1","1","0",1.7657,1,0.568547212326616
"696","62ac76db32757a0dbb1c59f0","tecia","pseudoword","0","0","1",1.4325,1,0.359421169606758
"697","62ac76db32757a0dbb1c59f0","chocar","non_cognate","1","1","0",1.4024,1,0.338185054624888
"698","62ac76db32757a0dbb1c59f0","aleta","non_cognate","1","1","0",1.4333,1,0.359979477947033
"699","62ac76db32757a0dbb1c59f0","jauda","pseudoword","0","0","1",1.8021,1,0.588952651542088
"700","62ac76db32757a0dbb1c59f0","editor","two_way_cognate","1","1","0",1.2218,1,0.20032518123353
"701","62ac76db32757a0dbb1c59f0","pelvis","two_way_cognate","1","1","0",1.458,1,0.377065633586466
"702","62ac76db32757a0dbb1c59f0","tumor","three_way_cognate","1","1","0",1.6435,1,0.496828114122137
"703","62ac76db32757a0dbb1c59f0","aljizo","pseudoword","0","0","1",1.3337,1,0.287957034646212
"704","62ac76db32757a0dbb1c59f0","gino","pseudoword","0","0","1",1.4815,1,0.393055088031483
"705","62ac76db32757a0dbb1c59f0","listo","non_cognate","1","1","0",1.3822,1,0.323676432675157
"706","62ac76db32757a0dbb1c59f0","gravés","pseudoword","0","0","1",1.9694,1,0.677728927831565
"707","62ac76db32757a0dbb1c59f0","portal","three_way_cognate","1","1","0",1.4512,1,0.372390800378735
"708","62ac76db32757a0dbb1c59f0","diebro","pseudoword","0","0","1",1.58,1,0.457424847038875
"709","62ac76db32757a0dbb1c59f0","martir","pseudoword","0","0","1",1.5069,1,0.410054560441972
"710","62ac76db32757a0dbb1c59f0","gotro","pseudoword","0","0","1",1.7564,1,0.563266259705425
"711","62ac76db32757a0dbb1c59f0","tapa","non_cognate","1","1","0",1.6688,1,0.512104805264371
"712","62ac76db32757a0dbb1c59f0","forro","non_cognate","1","1","0",1.3961,1,0.333682635012465
"713","62ad17e032a85a4ca119b289","muñeca","non_cognate","1","1","0",1.8195,1,0.598561738070077
"714","62ad17e032a85a4ca119b289","torta","non_cognate","1","1","0",1.6487,1,0.499987098584996
"715","62ad17e032a85a4ca119b289","horror","three_way_cognate","1","1","0",1.865,1,0.623261053095779
"716","62ad17e032a85a4ca119b289","entodo","pseudoword","0","0","1",1.4847,1,0.395212731643813
"717","62ad17e032a85a4ca119b289","lobe","pseudoword","0","0","1",1.1319,1,0.123897636656237
"718","62ad17e032a85a4ca119b289","pasta","two_way_cognate","1","1","0",2.1048,1,0.744220450743946
"719","62ad17e032a85a4ca119b289","lidena","pseudoword","0","0","1",1.2816,1,0.248109297331958
"720","62ad17e032a85a4ca119b289","muleta","non_cognate","1","1","0",1.1428,1,0.133481391374481
"721","62ad17e032a85a4ca119b289","golf","three_way_cognate","1","1","0",1.8055,1,0.590837561735375
"722","62ad17e032a85a4ca119b289","llevar","non_cognate","1","1","0",0.976099999,1,-0.0241902398257028
"723","62ad17e032a85a4ca119b289","barbs","pseudoword","0","0","1",0.9178,1,-0.085775777021404
"724","62ad17e032a85a4ca119b289","plan","three_way_cognate","1","1","0",1.5984,1,0.469003128912152
"725","62ad17e032a85a4ca119b289","harvé","pseudoword","0","0","1",1.014900001,1,0.0147900864579542
"726","62ad17e032a85a4ca119b289","edioso","pseudoword","0","0","1",1.0488,1,0.047646653467353
"727","62ad17e032a85a4ca119b289","grigir","pseudoword","0","0","1",1.4652,1,0.381991751922522
"728","62ad17e032a85a4ca119b289","honor","two_way_cognate","1","1","0",1.5758,1,0.454763079829451
"729","62ad17e032a85a4ca119b289","kilo","three_way_cognate","1","1","0",1.7153,1,0.539587992433642
"730","62ad17e032a85a4ca119b289","regalo","non_cognate","1","1","0",0.9008,1,-0.104472021596711
"731","62ad17e032a85a4ca119b289","llamar","non_cognate","1","1","0",0.7988,1,-0.224644677440477
"732","62ad17e032a85a4ca119b289","pelí","pseudoword","0","0","1",0.9183,1,-0.0852311443626605
"733","62ad17e032a85a4ca119b289","flora","three_way_cognate","1","1","0",0.9709,1,-0.0295318026060379
"734","62ad17e032a85a4ca119b289","anfia","pseudoword","0","0","1",1.135099999,1,0.126720751898177
"735","62ad17e032a85a4ca119b289","diebro","pseudoword","0","0","1",1.0523,1,0.0509782447646295
"736","62ad17e032a85a4ca119b289","suave","non_cognate","1","1","0",0.838,1,-0.176737178500054
"737","62ad17e032a85a4ca119b289","tator","pseudoword","0","0","1",0.832,1,-0.183922838160928
"738","62ad17e032a85a4ca119b289","gotro","pseudoword","0","0","1",1.0697,1,0.0673782353299482
"739","62ad17e032a85a4ca119b289","chote","pseudoword","0","0","1",0.941599999,1,-0.0601747240980922
"740","62ad17e032a85a4ca119b289","samón","pseudoword","0","0","1",1.1388,1,0.129975076421745
"741","62ad17e032a85a4ca119b289","pico","non_cognate","1","1","0",1.44,1,0.364643113587909
"742","62ad17e032a85a4ca119b289","nomata","pseudoword","0","0","1",1.0736,1,0.0710174872352804
"743","62ad17e032a85a4ca119b289","pupica","pseudoword","0","0","1",1.4575,1,0.37672263924251
"744","62ad17e032a85a4ca119b289","prías","pseudoword","0","0","1",1.1383,1,0.129535921349034
"745","62ad17e032a85a4ca119b289","enigma","two_way_cognate","1","1","0",2.2398,1,0.806386576166456
"746","62ad17e032a85a4ca119b289","cengo","pseudoword","0","0","1",1.1207,1,0.113953490075845
"747","62ad17e032a85a4ca119b289","vien","pseudoword","0","0","1",1.3733,1,0.317216602554099
"748","62ad17e032a85a4ca119b289","pitis","pseudoword","0","0","1",0.9445,1,-0.0570995920405728
"749","62ad17e032a85a4ca119b289","rúo","pseudoword","0","0","1",0.936599999,1,-0.0654989833003873
"750","62ad17e032a85a4ca119b289","tecia","pseudoword","0","0","1",1.2455,1,0.219537055720098
"751","62ad17e032a85a4ca119b289","fuar","pseudoword","0","0","1",0.9675,1,-0.0330398540782002
"752","62ad17e032a85a4ca119b289","boñaz","pseudoword","0","0","1",0.873200001,1,-0.135590653161135
"753","62ad17e032a85a4ca119b289","panté","pseudoword","0","0","1",0.867400001,1,-0.142255046428001
"754","62ad17e032a85a4ca119b289","hueas","pseudoword","0","0","1",0.7896,1,-0.236228790862865
"755","62ad17e032a85a4ca119b289","olzan","pseudoword","0","0","1",0.7842,1,-0.243091189123906
"756","62ad17e032a85a4ca119b289","trcia","pseudoword","0","0","1",0.778599999,1,-0.250257845090138
"757","62ad17e032a85a4ca119b289","diabo","pseudoword","0","0","1",1.2379,1,0.213416395555628
"758","62ad17e032a85a4ca119b289","desaro","pseudoword","0","0","1",1.7425,1,0.555320863652542
"759","62ad17e032a85a4ca119b289","plago","pseudoword","0","0","1",0.8513,1,-0.160990686092126
"760","62ad17e032a85a4ca119b289","civil","two_way_cognate","1","1","0",2.203700001,1,0.790137766327356
"761","62ad17e032a85a4ca119b289","huenos","pseudoword","0","0","1",1.0853,1,0.0818564464698321
"762","62ad17e032a85a4ca119b289","cobén","pseudoword","0","0","1",0.8278,1,-0.188983699667505
"763","62ad17e032a85a4ca119b289","martir","pseudoword","0","0","1",1.8938,1,0.638585392567263
"764","62ad17e032a85a4ca119b289","arane","pseudoword","0","0","1",0.772599999,1,-0.257993830044287
"765","62ad17e032a85a4ca119b289","tradía","pseudoword","0","0","1",1.7676,1,0.569622694274448
"766","62ad17e032a85a4ca119b289","tapón","non_cognate","1","1","0",0.9841,1,-0.0160277610771973
"767","62ad17e032a85a4ca119b289","venado","non_cognate","1","1","0",1.7373,1,0.552332183917717
"768","62ad17e032a85a4ca119b289","molor","pseudoword","0","0","1",1.217200001,1,0.196553139862237
"769","62ad17e032a85a4ca119b289","suelo","non_cognate","1","1","0",1.1674,1,0.154779053787554
"770","62ad17e032a85a4ca119b289","chorde","pseudoword","0","0","1",0.8876,1,-0.119234087923698
"771","62ad17e032a85a4ca119b289","fomeó","pseudoword","0","0","1",1.086,1,0.0825012215117438
"772","62ad17e032a85a4ca119b289","pabea","pseudoword","0","0","1",1.100799999,1,0.0960371872885118
"773","62ad17e032a85a4ca119b289","civas","pseudoword","0","0","1",1.0027,1,0.00269636154774253
"774","62ad17e032a85a4ca119b289","medium","pseudoword","0","0","1",1.117700001,1,0.111273003304123
"775","62ad17e032a85a4ca119b289","mango","three_way_cognate","1","1","0",0.9231,1,-0.0800177079860312
"776","62ad17e032a85a4ca119b289","bará","pseudoword","0","0","1",1.489700001,1,0.398574758074686
"777","62ad17e032a85a4ca119b289","total","two_way_cognate","1","1","0",2.074400001,1,0.729671955724385
"778","62ad17e032a85a4ca119b289","rizado","non_cognate","1","1","0",0.951,1,-0.0502412164367468
"779","62ad17e032a85a4ca119b289","inichó","pseudoword","0","0","1",0.7672,1,-0.265007755412909
"780","62ad17e032a85a4ca119b289","clamor","two_way_cognate","1","1","0",1.6062,1,0.473871140772225
"781","62ad17e032a85a4ca119b289","cricó","pseudoword","0","0","1",0.834,1,-0.18152187662339
"782","62ad17e032a85a4ca119b289","aljizo","pseudoword","0","0","1",1.288400001,1,0.253401139251063
"783","62ad17e032a85a4ca119b289","dibrea","pseudoword","0","0","1",0.8565,1,-0.154900961217962
"784","62ad17e032a85a4ca119b289","listo","non_cognate","1","1","0",1.1051,1,0.0999358286125995
"785","62ad17e032a85a4ca119b289","gino","pseudoword","0","0","1",1.078,1,0.0751074724868055
"786","62ad17e032a85a4ca119b289","piano","two_way_cognate","1","1","0",1.334,1,0.288181947493432
"787","62ad17e032a85a4ca119b289","babrá","pseudoword","0","0","1",0.889900001,1,-0.116646180995599
"788","62ad17e032a85a4ca119b289","diroco","pseudoword","0","0","1",1.2174,1,0.196717437077687
"789","62ad17e032a85a4ca119b289","ozoso","pseudoword","0","0","1",1.0265,1,0.0261549574768512
"790","62ad17e032a85a4ca119b289","tobre","pseudoword","0","0","1",1.507900001,1,0.410717955052787
"791","62ad17e032a85a4ca119b289","losco","pseudoword","0","0","1",0.802,1,-0.220646671115623
"792","62ad17e032a85a4ca119b289","listo","non_cognate","1","1","0",0.924,1,-0.0790432073404529
"793","62ad17e032a85a4ca119b289","percha","non_cognate","1","1","0",1.5215,1,0.419696690354889
"794","62ad17e032a85a4ca119b289","asumie","pseudoword","0","0","1",0.953200001,1,-0.0479305327084522
"795","62ad17e032a85a4ca119b289","coyo","pseudoword","0","0","1",0.8931,1,-0.113056722292297
"796","62ad17e032a85a4ca119b289","hotel","three_way_cognate","1","1","0",1.573900001,1,0.453556616210783
"797","62ad17e032a85a4ca119b289","trugo","pseudoword","0","0","1",1.377,1,0.319907219746518
"798","62ad17e032a85a4ca119b289","maldad","non_cognate","1","1","0",1.150599999,1,0.140283544577944
"799","62ad17e032a85a4ca119b289","frasis","pseudoword","0","0","1",0.8605,1,-0.150241663330543
"800","62ad17e032a85a4ca119b289","gravés","pseudoword","0","0","1",1.6367,1,0.492682019529701
"801","62ad17e032a85a4ca119b289","monue","pseudoword","0","0","1",0.909200001,1,-0.0951901859038809
"802","62ad17e032a85a4ca119b289","punta","non_cognate","1","1","0",1.6193,1,0.481993957097288
"803","62ad17e032a85a4ca119b289","esís","pseudoword","0","0","1",0.9001,1,-0.105249410719097
"804","62ad17e032a85a4ca119b289","vinzó","pseudoword","0","0","1",1.2036,1,0.185317065773753
"805","62ad17e032a85a4ca119b289","nocita","pseudoword","0","0","1",0.7951,1,-0.229287386074699
"806","62ad17e032a85a4ca119b289","mibro","pseudoword","0","0","1",0.7581,1,-0.276939975919879
"807","62ad17e032a85a4ca119b289","rizate","pseudoword","0","0","1",1.199299999,1,0.181738052421719
"808","62ad17e032a85a4ca119b289","golla","pseudoword","0","0","1",1.6096,1,0.475985700923283
"809","62ad17e032a85a4ca119b289","sacar","non_cognate","1","1","0",0.8678,1,-0.141794005617887
"810","62ad17e032a85a4ca119b289","aviso","non_cognate","1","1","0",1.595200001,1,0.466999120852317
"811","62ad17e032a85a4ca119b289","morrá","pseudoword","0","0","1",2.0538,1,0.719691735782057
"812","62ad17e032a85a4ca119b289","seled","pseudoword","0","0","1",1.2507,1,0.223703394572724
"813","62ad17e032a85a4ca119b289","emén","pseudoword","0","0","1",0.9005,1,-0.104805114366126
"814","62ad17e032a85a4ca119b289","actor","two_way_cognate","1","1","0",1.318700001,1,0.276646403589839
"815","62ad17e032a85a4ca119b289","guerra","non_cognate","1","1","0",1.1507,1,0.140370452847276
"816","62ad17e032a85a4ca119b289","gió","pseudoword","0","0","1",1.159900001,1,0.148333795367837
"817","62ad17e032a85a4ca119b289","colcha","non_cognate","1","1","0",1.7674,1,0.569509540101767
"818","62ad17e032a85a4ca119b289","chocar","non_cognate","1","1","0",0.9683,1,-0.0322133223646516
"819","62ad17e032a85a4ca119b289","suelet","pseudoword","0","0","1",1.4006,1,0.33690071623928
"820","62ad17e032a85a4ca119b289","pegar","non_cognate","1","1","0",1.2226,1,0.200979738612488
"821","62ad17e032a85a4ca119b289","kugis","pseudoword","0","0","1",0.8007,1,-0.222268933903549
"822","62ad17e032a85a4ca119b289","ánimo","non_cognate","1","1","0",1.5338,1,0.427748316348622
"823","62ad17e032a85a4ca119b289","equipo","non_cognate","1","1","0",0.984,1,-0.0161293819298836
"824","62ad17e032a85a4ca119b289","mauja","pseudoword","0","0","1",1.1008,1,0.0960371881969422
"825","62ad17e032a85a4ca119b289","color","two_way_cognate","1","1","0",1.0272,1,0.0268366539535596
"826","62ad17e032a85a4ca119b289","torso","two_way_cognate","1","1","0",2.2426,1,0.807635907044643
"827","62ad17e032a85a4ca119b289","dobbo","pseudoword","0","0","1",1.007200001,1,0.00717420474085178
"828","62ad17e032a85a4ca119b289","laras","pseudoword","0","0","1",1.105200001,1,0.100026314971938
"829","62ad17e032a85a4ca119b289","estulo","pseudoword","0","0","1",1.6726,1,0.514379301965288
"830","62ad17e032a85a4ca119b289","ceme","pseudoword","0","0","1",1,1,0
"831","62ad17e032a85a4ca119b289","dogue","pseudoword","0","0","1",1.1286,1,0.120977926552903
"832","62ad17e032a85a4ca119b289","prave","pseudoword","0","0","1",1.093900001,1,0.0897492930577684
"833","62ad17e032a85a4ca119b289","conso","pseudoword","0","0","1",0.984099999,1,-0.0160277620933541
"834","62ad17e032a85a4ca119b289","jauda","pseudoword","0","0","1",1.6872,1,0.523070350182428
"835","62ad17e032a85a4ca119b289","sasos","pseudoword","0","0","1",1.9678,1,0.676916167449528
"836","62ad17e032a85a4ca119b289","virios","pseudoword","0","0","1",1.2673,1,0.236888653105882
"837","62ad17e032a85a4ca119b289","dubo","pseudoword","0","0","1",1.4504,1,0.371839380458504
"838","62ad17e032a85a4ca119b289","brillo","non_cognate","1","1","0",0.9693,1,-0.0311811174835747
"839","62ad17e032a85a4ca119b289","rumor","two_way_cognate","1","1","0",1.9938,1,0.690042365606467
"840","62ad17e032a85a4ca119b289","aurora","two_way_cognate","1","1","0",1.3674,1,0.312911126497556
"841","62ad17e032a85a4ca119b289","siglo","non_cognate","1","1","0",1.417200001,1,0.348683094714797
"842","62ad17e032a85a4ca119b289","collar","two_way_cognate","1","1","0",1.1772,1,0.163138737377181
"843","62ad17e032a85a4ca119b289","nocó","pseudoword","0","0","1",1.2365,1,0.212284807979334
"844","62ad17e032a85a4ca119b289","moral","three_way_cognate","1","1","0",1.1342,1,0.125927556597791
"845","62ad17e032a85a4ca119b289","mafia","three_way_cognate","1","1","0",1.7008,1,0.531098728605547
"846","62ad17e032a85a4ca119b289","feo","non_cognate","1","1","0",1.071900001,1,0.0694327756482595
"847","62ad17e032a85a4ca119b289","nasce","pseudoword","0","0","1",1.8553,1,0.618046408050695
"848","62ad17e032a85a4ca119b289","drama","three_way_cognate","1","1","0",0.9273,1,-0.0754781411759567
"849","62ad17e032a85a4ca119b289","tapa","non_cognate","1","1","0",1.109200001,1,0.103639035661037
"850","62ad17e032a85a4ca119b289","leniz","pseudoword","0","0","1",0.9675,1,-0.0330398540782002
"851","62ad17e032a85a4ca119b289","vueras","pseudoword","0","0","1",1.1006,1,0.0958554856435214
"852","62ad17e032a85a4ca119b289","densó","pseudoword","0","0","1",1.2174,1,0.196717437077687
"853","63c06106314da889290931cd","tecia","pseudoword","0","0","1",2.0401,1,0.712998826262546
"854","63c06106314da889290931cd","editor","two_way_cognate","1","1","0",1.3327,1,0.287206959603544
"855","63c06106314da889290931cd","chote","pseudoword","0","0","1",1.0852,1,0.0817643018026396
"856","63c06106314da889290931cd","trauma","three_way_cognate","1","1","0",1.156,1,0.144965770250186
"857","63c06106314da889290931cd","huenos","pseudoword","0","0","1",2.134,1,0.757998152879562
"858","63c06106314da889290931cd","losco","pseudoword","0","0","1",1.0594,1,0.0577027101282892
"859","63c06106314da889290931cd","rendir","non_cognate","1","1","0",1.8401,1,0.609819917970192
"860","63c06106314da889290931cd","civil","two_way_cognate","1","1","0",1.2835,1,0.249590721329058
"861","63c06106314da889290931cd","trcia","pseudoword","0","0","1",0.9332,1,-0.0691357388348621
"862","63c06106314da889290931cd","olzan","pseudoword","0","0","1",1.0811,1,0.0779790413165886
"863","63c06106314da889290931cd","llevar","non_cognate","1","1","0",1.0893,1,0.0855352881062627
"864","63c06106314da889290931cd","maldad","non_cognate","1","1","0",1.0717,1,0.0692461727368144
"865","63c06106314da889290931cd","caro","non_cognate","1","1","0",1.057,1,0.0554347068881005
"866","63c06106314da889290931cd","equipo","non_cognate","1","1","0",0.9178,1,-0.085775777021404
"867","63c06106314da889290931cd","altar","three_way_cognate","1","1","0",1.1499,1,0.139674982072482
"868","63c06106314da889290931cd","vigor","two_way_cognate","1","1","0",1.697,1,0.528861986252089
"869","63c06106314da889290931cd","venado","non_cognate","1","1","0",1.1228,1,0.11582556550559
"870","63c06106314da889290931cd","dubo","pseudoword","0","0","1",1.2891,1,0.253944300466922
"871","63c06106314da889290931cd","halo","two_way_cognate","1","1","0",1.6314,1,0.489438541884343
"872","63c06106314da889290931cd","extra","three_way_cognate","1","1","0",1.0176,1,0.0174469136037207
"873","63c06106314da889290931cd","animal","two_way_cognate","1","1","0",1.039,1,0.0382587121170903
"874","63c06106314da889290931cd","ala","non_cognate","1","1","0",0.9034,1,-0.101589855761633
"875","63c06106314da889290931cd","nasce","pseudoword","0","0","1",0.8146,1,-0.205058083767825
"876","63c06106314da889290931cd","harvé","pseudoword","0","0","1",1.7503,1,0.559787201814653
"877","63c06106314da889290931cd","fiscal","two_way_cognate","1","1","0",1.2434,1,0.2178495628531
"878","63c06106314da889290931cd","listo","non_cognate","1","1","0",1.0192,1,0.019018005835762
"879","63c06106314da889290931cd","chocar","non_cognate","1","1","0",1.1986,1,0.181154209041948
"880","63c06106314da889290931cd","dogue","pseudoword","0","0","1",1.0564,1,0.0548669014408401
"881","63c06106314da889290931cd","plago","pseudoword","0","0","1",0.8597,1,-0.151171787801739
"882","63c06106314da889290931cd","pasta","two_way_cognate","1","1","0",1.3144,1,0.273380287740921
"883","63c06106314da889290931cd","mango","three_way_cognate","1","1","0",0.884,1,-0.123298216344494
"884","63c06106314da889290931cd","lobe","pseudoword","0","0","1",1.8157,1,0.596471068294484
"885","63c06106314da889290931cd","samón","pseudoword","0","0","1",1.4523,1,0.373148506631621
"886","63c06106314da889290931cd","suelet","pseudoword","0","0","1",0.5664,1,-0.568454736602627
"887","63c06106314da889290931cd","casual","two_way_cognate","1","1","0",0.8983,1,-0.107251190746976
"888","63c06106314da889290931cd","tator","pseudoword","0","0","1",1.6728,1,0.514498869132287
"889","63c06106314da889290931cd","drama","three_way_cognate","1","1","0",0.9315,1,-0.0709590889404939
"890","63c06106314da889290931cd","suave","non_cognate","1","1","0",1.0686,1,0.0663493805415339
"891","63c06106314da889290931cd","trugo","pseudoword","0","0","1",1.281,1,0.247641022914597
"892","63c06106314da889290931cd","vien","pseudoword","0","0","1",1.3477,1,0.298399435792976
"893","63c06106314da889290931cd","rumor","two_way_cognate","1","1","0",1.2161,1,0.195649017004817
"894","63c06106314da889290931cd","pabea","pseudoword","0","0","1",1.3014,1,0.263440608078747
"895","63c06106314da889290931cd","pitis","pseudoword","0","0","1",1.5075,1,0.410452649619204
"896","63c06106314da889290931cd","regalo","non_cognate","1","1","0",0.8576,1,-0.1536174886656
"897","63c06106314da889290931cd","torta","non_cognate","1","1","0",0.9411,1,-0.0607058751173948
"898","63c06106314da889290931cd","asumie","pseudoword","0","0","1",2.0668,1,0.726001517430893
"899","63c06106314da889290931cd","test","three_way_cognate","1","1","0",0.9268,1,-0.076017486423916
"900","63c06106314da889290931cd","kugis","pseudoword","0","0","1",1.2051,1,0.186562551051209
"901","63c06106314da889290931cd","nomata","pseudoword","0","0","1",1.2315,1,0.208232938578456
"902","63c06106314da889290931cd","portal","three_way_cognate","1","1","0",1.1248,1,0.117605242074263
"903","63c06106314da889290931cd","diroco","pseudoword","0","0","1",0.9369,1,-0.0651787260249945
"904","63c06106314da889290931cd","rizate","pseudoword","0","0","1",0.9277,1,-0.0750468743229113
"905","63c06106314da889290931cd","teñir","non_cognate","1","1","0",1.3598,1,0.307337630110222
"906","63c06106314da889290931cd","horror","three_way_cognate","1","1","0",1.3521,1,0.301658939382575
"907","63c06106314da889290931cd","ardor","two_way_cognate","1","1","0",1.5214,1,0.419630963581064
"908","63c06106314da889290931cd","leniz","pseudoword","0","0","1",0.9043,1,-0.100594115235703
"909","63c06106314da889290931cd","bugor","pseudoword","0","0","1",1.5386,1,0.430872912042697
"910","63c06106314da889290931cd","diebro","pseudoword","0","0","1",1.5485,1,0.43728672043112
"911","63c06106314da889290931cd","honor","two_way_cognate","1","1","0",1.7838,1,0.57874592024997
"912","63c06106314da889290931cd","total","two_way_cognate","1","1","0",0.99,1,-0.0100503358535015
"913","63c06106314da889290931cd","pelvis","two_way_cognate","1","1","0",1.4186,1,0.349670469785849
"914","63c06106314da889290931cd","pico","non_cognate","1","1","0",1.0397,1,0.0389322100017875
"915","63c06106314da889290931cd","ozoso","pseudoword","0","0","1",1.1333,1,0.125133730756766
"916","63c06106314da889290931cd","gripar","pseudoword","0","0","1",1.1977,1,0.180403050971324
"917","63c06106314da889290931cd","grigir","pseudoword","0","0","1",1.4506,1,0.371977263947175
"918","63c06106314da889290931cd","aleta","non_cognate","1","1","0",1.0359,1,0.0352706140819193
"919","63c06106314da889290931cd","collar","two_way_cognate","1","1","0",1.2666,1,0.236336145100193
"920","63c06106314da889290931cd","pupica","pseudoword","0","0","1",0.9408,1,-0.0610247018377746
"921","63c06106314da889290931cd","enorme","non_cognate","1","1","0",1.0822,1,0.0789960062264979
"922","63c06106314da889290931cd","nocita","pseudoword","0","0","1",1.1743,1,0.160672225388898
"923","63c06106314da889290931cd","plural","three_way_cognate","1","1","0",0.9366,1,-0.0654989822326957
"924","63c06106314da889290931cd","barbs","pseudoword","0","0","1",1.5011,1,0.406198172683993
"925","63c06106314da889290931cd","sierra","non_cognate","1","1","0",0.7144,1,-0.336312249419848
"926","63c06106314da889290931cd","anfia","pseudoword","0","0","1",1.8168,1,0.597076711809212
"927","63c06106314da889290931cd","muñeca","non_cognate","1","1","0",1.3965,1,0.333969106403094
"928","63c06106314da889290931cd","ánimo","non_cognate","1","1","0",1.3793,1,0.321576124099337
"929","63c06106314da889290931cd","muleta","non_cognate","1","1","0",1.0489,1,0.0477419959854211
"930","63c06106314da889290931cd","moral","three_way_cognate","1","1","0",1.0742,1,0.071576198489222
"931","63c06106314da889290931cd","mafia","three_way_cognate","1","1","0",1.4932,1,0.400921468058292
"932","63c06106314da889290931cd","punta","non_cognate","1","1","0",1.2806,1,0.247328718102565
"933","63c06106314da889290931cd","densó","pseudoword","0","0","1",1.3604,1,0.307778774150903
"934","63c06106314da889290931cd","bará","pseudoword","0","0","1",1.3225,1,0.279523884750317
"935","63c06106314da889290931cd","color","two_way_cognate","1","1","0",0.9048,1,-0.100041354180226
"936","63c06106314da889290931cd","puñal","non_cognate","1","1","0",1.2271,1,0.204653662000365
"937","63c06106314da889290931cd","hotel","three_way_cognate","1","1","0",1.0086,1,0.00856323066048781
"938","63c06106314da889290931cd","chorde","pseudoword","0","0","1",1.6246,1,0.485261631634716
"939","63c06106314da889290931cd","prave","pseudoword","0","0","1",0.8481,1,-0.164756725614483
"940","63c06106314da889290931cd","aljizo","pseudoword","0","0","1",0.8427,1,-0.171144256203829
"941","63c06106314da889290931cd","listo","non_cognate","1","1","0",0.8138,1,-0.206040643414548
"942","63c06106314da889290931cd","monue","pseudoword","0","0","1",1.2938,1,0.257583624627748
"943","63c06106314da889290931cd","seled","pseudoword","0","0","1",1.5487,1,0.437415869339992
"944","63c06106314da889290931cd","pegar","non_cognate","1","1","0",1.2979,1,0.260747573711576
"945","63c06106314da889290931cd","mibro","pseudoword","0","0","1",0.8758,1,-0.132617524614839
"946","63c06106314da889290931cd","pelí","pseudoword","0","0","1",1.252,1,0.224742272677907
"947","63c06106314da889290931cd","retina","three_way_cognate","1","1","0",1.6039,1,0.472438163361195
"948","63c06106314da889290931cd","mortal","two_way_cognate","1","1","0",1.3226,1,0.279599496258425
"949","63c06106314da889290931cd","edioso","pseudoword","0","0","1",1.3084,1,0.268805016682092
"950","63c06106314da889290931cd","pelvis","two_way_cognate","1","1","0",1.064,1,0.0620353909194527
"951","63c06106314da889290931cd","hilo","non_cognate","1","1","0",1.9542,1,0.669980902528106
"952","63c06106314da889290931cd","clamor","two_way_cognate","1","1","0",1.0988,1,0.0942186752389817
"953","63c06106314da889290931cd","llamar","non_cognate","1","1","0",1.1103,1,0.104630249078083
"954","63c06106314da889290931cd","arane","pseudoword","0","0","1",1.3518,1,0.301437037684117
"955","63c06106314da889290931cd","frasis","pseudoword","0","0","1",1.1219,1,0.115023676568782
"956","63c06106314da889290931cd","albino","three_way_cognate","1","1","0",1.3157,1,0.274368843389656
"957","63c06106314da889290931cd","suelo","non_cognate","1","1","0",0.8887,1,-0.117995558237707
"958","63c06106314da889290931cd","gotro","pseudoword","0","0","1",1.2493,1,0.222583394455647
"959","63c06106314da889290931cd","aura","three_way_cognate","1","1","0",1.1027,1,0.0977617177824958
"960","63c06106314da889290931cd","tumor","three_way_cognate","1","1","0",0.7971,1,-0.22677513754826
"961","63c06106314da889290931cd","jauda","pseudoword","0","0","1",1.5571,1,0.442825116865242
"962","63c06106314da889290931cd","hueas","pseudoword","0","0","1",0.9232,1,-0.0799093832283019
"963","63c06106314da889290931cd","gió","pseudoword","0","0","1",1.2396,1,0.214788746931456
"964","63c06106314da889290931cd","vueras","pseudoword","0","0","1",0.8992,1,-0.10624979984271
"965","63c06106314da889290931cd","dobbo","pseudoword","0","0","1",1.001,1,0.000999500333083423
"966","63c06106314da889290931cd","actor","two_way_cognate","1","1","0",1.2345,1,0.210666029803097
"967","63c06106314da889290931cd","lidena","pseudoword","0","0","1",1.8669,1,0.624279301261145
"968","63c06106314da889290931cd","tapón","non_cognate","1","1","0",1.6368,1,0.492743116215225
"969","63c06106314da889290931cd","golf","three_way_cognate","1","1","0",1.1029,1,0.0979430743299642
"970","63c06106314da889290931cd","cricó","pseudoword","0","0","1",1.2519,1,0.22466239728348
"971","63c06106314da889290931cd","plan","three_way_cognate","1","1","0",0.9103,1,-0.093981063470894
"972","63c06106314da889290931cd","dibrea","pseudoword","0","0","1",1.8419,1,0.61079764754292
"973","63c06106314da889290931cd","babrá","pseudoword","0","0","1",1.8515,1,0.61599612137153
"974","63c06106314da889290931cd","clan","three_way_cognate","1","1","0",0.9916,1,-0.00843547882110158
"975","63c06106314da889290931cd","siglo","non_cognate","1","1","0",0.686,1,-0.376877651256252
"976","63c06106314da889290931cd","kilo","three_way_cognate","1","1","0",1.0649,1,0.062880898039201
"977","63c06106314da889290931cd","gino","pseudoword","0","0","1",1.3484,1,0.298918704377769
"978","63c06106314da889290931cd","brillo","non_cognate","1","1","0",1.6362,1,0.492376480097461
"979","646f8a859c69c3cb1d5f08c8","gotro","pseudoword","0","0","1",0.9308,1,-0.0717108475540004
"980","646f8a859c69c3cb1d5f08c8","tapón","non_cognate","1","1","0",0.5479,1,-0.601662490437767
"981","646f8a859c69c3cb1d5f08c8","panté","pseudoword","0","0","1",0.7376,1,-0.304353606739753
"982","646f8a859c69c3cb1d5f08c8","olzan","pseudoword","0","0","1",0.6697,1,-0.400925428066133
"983","646f8a859c69c3cb1d5f08c8","pelvis","two_way_cognate","1","1","0",0.6017,1,-0.507996296755831
"984","646f8a859c69c3cb1d5f08c8","dobbo","pseudoword","0","0","1",0.8255,1,-0.191766015621954
"985","646f8a859c69c3cb1d5f08c8","suave","non_cognate","1","1","0",0.6901,1,-0.370918764355581
"986","646f8a859c69c3cb1d5f08c8","emén","pseudoword","0","0","1",0.7512,1,-0.286083351088084
"987","646f8a859c69c3cb1d5f08c8","aura","three_way_cognate","1","1","0",0.6188,1,-0.479973160283226
"988","646f8a859c69c3cb1d5f08c8","leniz","pseudoword","0","0","1",0.6765,1,-0.390822831371294
"989","646f8a859c69c3cb1d5f08c8","color","two_way_cognate","1","1","0",0.5204,1,-0.653157532343787
"990","646f8a859c69c3cb1d5f08c8","mafia","three_way_cognate","1","1","0",0.64,1,-0.44628710262842
"991","646f8a859c69c3cb1d5f08c8","regalo","non_cognate","1","1","0",0.9352,1,-0.0669948688242784
"992","646f8a859c69c3cb1d5f08c8","brillo","non_cognate","1","1","0",0.5835,1,-0.538710827255526
"993","646f8a859c69c3cb1d5f08c8","moral","three_way_cognate","1","1","0",0.719,1,-0.32989392126109
"994","646f8a859c69c3cb1d5f08c8","próces","pseudoword","0","0","1",0.7841,1,-0.243218715745261
"995","646f8a859c69c3cb1d5f08c8","muleta","non_cognate","1","1","0",0.5396,1,-0.616927154648536
"996","646f8a859c69c3cb1d5f08c8","chocar","non_cognate","1","1","0",0.6815,1,-0.38345902784555
"997","646f8a859c69c3cb1d5f08c8","arane","pseudoword","0","0","1",0.6972,1,-0.360682965336271
"998","646f8a859c69c3cb1d5f08c8","plural","three_way_cognate","1","1","0",0.5802,1,-0.544382407294833
"999","646f8a859c69c3cb1d5f08c8","muñeca","non_cognate","1","1","0",0.6992,1,-0.357818454640811
"1000","646f8a859c69c3cb1d5f08c8","rendir","non_cognate","1","1","0",0.8913,1,-0.115074207845465
"1001","646f8a859c69c3cb1d5f08c8","pelvis","two_way_cognate","1","1","0",0.7046,1,-0.350125013075
"1002","646f8a859c69c3cb1d5f08c8","llamar","non_cognate","1","1","0",0.767,1,-0.265268477614881
"1003","646f8a859c69c3cb1d5f08c8","torso","two_way_cognate","1","1","0",0.7484,1,-0.289817684582203
"1004","646f8a859c69c3cb1d5f08c8","cobén","pseudoword","0","0","1",0.6897,1,-0.371498558544891
"1005","646f8a859c69c3cb1d5f08c8","equipo","non_cognate","1","1","0",0.9676,1,-0.0329365002462648
"1006","646f8a859c69c3cb1d5f08c8","dubo","pseudoword","0","0","1",0.8482,1,-0.164638821941647
"1007","646f8a859c69c3cb1d5f08c8","kugis","pseudoword","0","0","1",0.9245,1,-0.0785022281549575
"1008","646f8a859c69c3cb1d5f08c8","trcia","pseudoword","0","0","1",0.7651,1,-0.267748734744331
"1009","646f8a859c69c3cb1d5f08c8","tapa","non_cognate","1","1","0",0.6514,1,-0.428631386140004
"1010","646f8a859c69c3cb1d5f08c8","mortal","two_way_cognate","1","1","0",0.7255,1,-0.320894206657894
"1011","646f8a859c69c3cb1d5f08c8","coyo","pseudoword","0","0","1",0.7561,1,-0.279581636417913
"1012","646f8a859c69c3cb1d5f08c8","hilo","non_cognate","1","1","0",0.7193,1,-0.329476762108826
"1013","646f8a859c69c3cb1d5f08c8","listo","non_cognate","1","1","0",0.9173,1,-0.0863207064665272
"1014","646f8a859c69c3cb1d5f08c8","tator","pseudoword","0","0","1",0.7389,1,-0.302592685187535
"1015","646f8a859c69c3cb1d5f08c8","fiscal","two_way_cognate","1","1","0",0.6691,1,-0.401821753193366
"1016","646f8a859c69c3cb1d5f08c8","pegar","non_cognate","1","1","0",0.751,1,-0.286349627218002
"1017","646f8a859c69c3cb1d5f08c8","clan","three_way_cognate","1","1","0",0.5408,1,-0.614705754253383
"1018","646f8a859c69c3cb1d5f08c8","alla","pseudoword","0","0","1",0.6571,1,-0.419919065078315
"1019","646f8a859c69c3cb1d5f08c8","llevar","non_cognate","1","1","0",0.526,1,-0.642454066244427
"1020","646f8a859c69c3cb1d5f08c8","prave","pseudoword","0","0","1",0.8207,1,-0.197597644346471
"1021","646f8a859c69c3cb1d5f08c8","esís","pseudoword","0","0","1",0.7415,1,-0.29908011740415
"1022","646f8a859c69c3cb1d5f08c8","pico","non_cognate","1","1","0",0.6362,1,-0.452242299667093
"1023","646f8a859c69c3cb1d5f08c8","enorme","non_cognate","1","1","0",0.9007,1,-0.10458304019244
"1024","646f8a859c69c3cb1d5f08c8","pitis","pseudoword","0","0","1",0.634,1,-0.455706324544911
"1025","646f8a859c69c3cb1d5f08c8","pupica","pseudoword","0","0","1",0.7391,1,-0.302322049191296
"1026","646f8a859c69c3cb1d5f08c8","laras","pseudoword","0","0","1",0.8372,1,-0.177692288410292
"1027","646f8a859c69c3cb1d5f08c8","vigor","two_way_cognate","1","1","0",0.5864,1,-0.533753128409695
"1028","646f8a859c69c3cb1d5f08c8","losco","pseudoword","0","0","1",0.8333,1,-0.182361557593976
"1029","646f8a859c69c3cb1d5f08c8","puñal","non_cognate","1","1","0",0.785,1,-0.242071561199729
"1030","646f8a859c69c3cb1d5f08c8","total","two_way_cognate","1","1","0",0.6695,1,-0.40122411385091
"1031","646f8a859c69c3cb1d5f08c8","nomata","pseudoword","0","0","1",0.8937,1,-0.112385130594791
"1032","646f8a859c69c3cb1d5f08c8","aurora","two_way_cognate","1","1","0",0.8183,1,-0.200526261448801
"1033","646f8a859c69c3cb1d5f08c8","guerra","non_cognate","1","1","0",0.9378,1,-0.0642185723266512
"1034","646f8a859c69c3cb1d5f08c8","teñir","non_cognate","1","1","0",0.7894,1,-0.23648211575339
"1035","646f8a859c69c3cb1d5f08c8","feo","non_cognate","1","1","0",0.6017,1,-0.507996296755831
"1036","646f8a859c69c3cb1d5f08c8","inichó","pseudoword","0","0","1",0.8104,1,-0.210227326047663
"1037","646f8a859c69c3cb1d5f08c8","hotel","three_way_cognate","1","1","0",0.5593,1,-0.581069277154595
"1038","646f8a859c69c3cb1d5f08c8","editor","two_way_cognate","1","1","0",0.567,1,-0.567395975254385
"1039","646f8a859c69c3cb1d5f08c8","pasta","two_way_cognate","1","1","0",0.6355,1,-0.453343188352628
"1040","646f8a859c69c3cb1d5f08c8","suelo","non_cognate","1","1","0",0.6698,1,-0.400776118622033
"1041","646f8a859c69c3cb1d5f08c8","mibro","pseudoword","0","0","1",0.5678,1,-0.565986034943266
"1042","646f8a859c69c3cb1d5f08c8","piano","two_way_cognate","1","1","0",0.5201,1,-0.65373417820311
"1043","646f8a859c69c3cb1d5f08c8","portal","three_way_cognate","1","1","0",0.5014,1,-0.690351093257944
"1044","646f8a859c69c3cb1d5f08c8","punta","non_cognate","1","1","0",0.5343,1,-0.626797800018411
