"","participant","word","type","correct_reponse","key_resp_lextale_trial.keys","key_resp_lextale_trial.rt","is_correct","log_rt","non_cognate","pseudoword","three_way_cognate","two_way_cognate","ps_lextale_score","frequency"
"1","5a06ebf2c259f300017656ee","boñaz","pseudoword","0","0",2.234,1,0.803793700647009,32,21,20,18,44.2708333333333,NA
"2","5a06ebf2c259f300017656ee","total","two_way_cognate","1","1",2.14,1,0.76080582903376,32,21,20,18,44.2708333333333,3.311
"3","5a06ebf2c259f300017656ee","medium","pseudoword","0","1",1.888,0,0.635518067723309,32,21,20,18,44.2708333333333,NA
"4","5a06ebf2c259f300017656ee","cuenco","non_cognate","1","1",1.535,1,0.42853038103916,32,21,20,18,44.2708333333333,1.23
"5","5a06ebf2c259f300017656ee","cuenco","non_cognate","1","1",1.535,1,0.42853038103916,32,21,20,18,44.2708333333333,1.23
"6","5a06ebf2c259f300017656ee","patada","non_cognate","1","1",1.223,1,0.201306856705035,32,21,20,18,44.2708333333333,2.715
"7","5a06ebf2c259f300017656ee","gravés","pseudoword","0","1",2.016,0,0.701115350209122,32,21,20,18,44.2708333333333,NA
"8","5a06ebf2c259f300017656ee","nomata","pseudoword","0","0",1.816,1,0.596636280179102,32,21,20,18,44.2708333333333,NA
"9","5a06ebf2c259f300017656ee","tiza","non_cognate","1","1",0.832,1,-0.183922838160928,32,21,20,18,44.2708333333333,2.158
"10","5a06ebf2c259f300017656ee","bugor","pseudoword","0","0",0.668,1,-0.403467105445491,32,21,20,18,44.2708333333333,NA
"11","5a06ebf2c259f300017656ee","entodo","pseudoword","0","1",0.527,0,-0.640554730440775,32,21,20,18,44.2708333333333,NA
"12","5a06ebf2c259f300017656ee","kugis","pseudoword","0","1",0.651,0,-0.429245636773568,32,21,20,18,44.2708333333333,NA
"13","5a06ebf2c259f300017656ee","altar","three_way_cognate","1","1",0.567,1,-0.567395975254385,32,21,20,18,44.2708333333333,2.529
"14","5a06ebf2c259f300017656ee","listo","non_cognate","1","1",0.624,1,-0.471604910612709,32,21,20,18,44.2708333333333,4.03
"15","5a06ebf2c259f300017656ee","listo","non_cognate","1","1",0.624,1,-0.471604910612709,32,21,20,18,44.2708333333333,4.03
"16","5a06ebf2c259f300017656ee","torta","non_cognate","1","1",0.78,1,-0.2484613592985,32,21,20,18,44.2708333333333,2.851
"17","5a06ebf2c259f300017656ee","nasce","pseudoword","0","0",0.65,1,-0.430782916092454,32,21,20,18,44.2708333333333,NA
"18","5a06ebf2c259f300017656ee","chat","three_way_cognate","1","0",0.663,0,-0.410980288796275,32,21,20,18,44.2708333333333,1.845
"19","5a06ebf2c259f300017656ee","vinzó","pseudoword","0","1",0.716,0,-0.334075112021491,32,21,20,18,44.2708333333333,NA
"20","5a06ebf2c259f300017656ee","ánimo","non_cognate","1","1",0.632,1,-0.45886588483528,32,21,20,18,44.2708333333333,2.777
"21","5a06ebf2c259f300017656ee","tumor","three_way_cognate","1","1",0.644,1,-0.440056552877783,32,21,20,18,44.2708333333333,2.767
"22","5a06ebf2c259f300017656ee","suelo","non_cognate","1","0",0.62,0,-0.478035800943,32,21,20,18,44.2708333333333,3.503
"23","5a06ebf2c259f300017656ee","pabea","pseudoword","0","1",0.918,0,-0.0855578883616465,32,21,20,18,44.2708333333333,NA
"24","5a06ebf2c259f300017656ee","retina","three_way_cognate","1","1",0.505,1,-0.683196849706777,32,21,20,18,44.2708333333333,1.716
"25","5a06ebf2c259f300017656ee","hurcos","pseudoword","0","1",0.474,0,-0.746547957287061,32,21,20,18,44.2708333333333,NA
"26","5a06ebf2c259f300017656ee","forro","non_cognate","1","1",0.709,1,-0.34389975245001,32,21,20,18,44.2708333333333,1.886
"27","5a06ebf2c259f300017656ee","rostro","non_cognate","1","1",1.234,1,0.210260925483196,32,21,20,18,44.2708333333333,3.222
"28","5a06ebf2c259f300017656ee","trcia","pseudoword","0","1",0.941,0,-0.0608121393967575,32,21,20,18,44.2708333333333,NA
"29","5a06ebf2c259f300017656ee","golf","three_way_cognate","1","1",1.229,1,0.206200830583898,32,21,20,18,44.2708333333333,3.129
"30","5a06ebf2c259f300017656ee","arane","pseudoword","0","1",0.722,0,-0.325730140089311,32,21,20,18,44.2708333333333,NA
"31","5a06ebf2c259f300017656ee","plan","three_way_cognate","1","1",1.381,1,0.322807874427155,32,21,20,18,44.2708333333333,3.848
"32","5a06ebf2c259f300017656ee","grigir","pseudoword","0","1",1.318,0,0.276115436080316,32,21,20,18,44.2708333333333,NA
"33","5a06ebf2c259f300017656ee","vueras","pseudoword","0","1",1.211,0,0.191446464570955,32,21,20,18,44.2708333333333,NA
"34","5a06ebf2c259f300017656ee","flora","three_way_cognate","1","0",0.886,0,-0.121038328377056,32,21,20,18,44.2708333333333,2.09
"35","5a06ebf2c259f300017656ee","gino","pseudoword","0","1",1.078,0,0.0751074724868055,32,21,20,18,44.2708333333333,NA
"36","5a06ebf2c259f300017656ee","rizado","non_cognate","1","1",1.717,1,0.540578581915338,32,21,20,18,44.2708333333333,1.69
"37","5a06ebf2c259f300017656ee","trauma","three_way_cognate","1","1",0.855,1,-0.156653810045377,32,21,20,18,44.2708333333333,2.59
"38","5a06ebf2c259f300017656ee","samón","pseudoword","0","1",0.799,0,-0.224394333215862,32,21,20,18,44.2708333333333,NA
"39","5a06ebf2c259f300017656ee","dibrea","pseudoword","0","0",0.831,1,-0.185125484126689,32,21,20,18,44.2708333333333,NA
"40","5a06ebf2c259f300017656ee","fuar","pseudoword","0","1",1.505,0,0.408792898200839,32,21,20,18,44.2708333333333,NA
"41","5a06ebf2c259f300017656ee","gripar","pseudoword","0","0",0.978,1,-0.0222456089473197,32,21,20,18,44.2708333333333,NA
"42","5a06ebf2c259f300017656ee","caro","non_cognate","1","1",1.43,1,0.357674444271816,32,21,20,18,44.2708333333333,2.946
"43","5a06ebf2c259f300017656ee","esís","pseudoword","0","1",0.858,0,-0.153151179494175,32,21,20,18,44.2708333333333,NA
"44","5a06ebf2c259f300017656ee","feo","non_cognate","1","1",0.825,1,-0.192371892647456,32,21,20,18,44.2708333333333,3.16
"45","5a06ebf2c259f300017656ee","parre","pseudoword","0","1",0.846,0,-0.167235919375914,32,21,20,18,44.2708333333333,NA
"46","5a06ebf2c259f300017656ee","guerra","non_cognate","1","1",0.891,1,-0.115410851511328,32,21,20,18,44.2708333333333,3.948
"47","5a06ebf2c259f300017656ee","épinas","pseudoword","0","1",1.009,0,0.0089597413714718,32,21,20,18,44.2708333333333,NA
"48","5a06ebf2c259f300017656ee","animal","two_way_cognate","1","1",0.933,1,-0.0693500781347932,32,21,20,18,44.2708333333333,3.271
"49","5a06ebf2c259f300017656ee","sierra","non_cognate","1","0",0.81,0,-0.210721031315653,32,21,20,18,44.2708333333333,2.658
"50","5a06ebf2c259f300017656ee","enorme","non_cognate","1","0",0.716,0,-0.334075112021491,32,21,20,18,44.2708333333333,3.375
"51","5a06ebf2c259f300017656ee","peniz","pseudoword","0","1",1.002,0,0.00199800266267306,32,21,20,18,44.2708333333333,NA
"52","5a06ebf2c259f300017656ee","prave","pseudoword","0","1",0.938,0,-0.0640053299759124,32,21,20,18,44.2708333333333,NA
"53","5a06ebf2c259f300017656ee","pitis","pseudoword","0","1",0.384,0,-0.95711272639441,32,21,20,18,44.2708333333333,NA
"54","5a06ebf2c259f300017656ee","conso","pseudoword","0","1",0.641,0,-0.444725822061467,32,21,20,18,44.2708333333333,NA
"55","5a06ebf2c259f300017656ee","rúo","pseudoword","0","0",0.863,1,-0.147340587898709,32,21,20,18,44.2708333333333,NA
"56","5a06ebf2c259f300017656ee","puñal","non_cognate","1","1",1.678,1,0.517602608045014,32,21,20,18,44.2708333333333,1.756
"57","5a06ebf2c259f300017656ee","honor","two_way_cognate","1","1",1.01,1,0.00995033085316809,32,21,20,18,44.2708333333333,3.515
"58","5a06ebf2c259f300017656ee","fiscal","two_way_cognate","1","1",0.851,1,-0.161343150408763,32,21,20,18,44.2708333333333,3.2
"59","5a06ebf2c259f300017656ee","test","three_way_cognate","1","1",0.552,1,-0.594207232705042,32,21,20,18,44.2708333333333,2.652
"60","5a06ebf2c259f300017656ee","desaro","pseudoword","0","1",1.059,0,0.0573250666192694,32,21,20,18,44.2708333333333,NA
"61","5a06ebf2c259f300017656ee","anfia","pseudoword","0","1",1.326,0,0.282166891763671,32,21,20,18,44.2708333333333,NA
"62","5a06ebf2c259f300017656ee","vien","pseudoword","0","1",0.908,0,-0.0965109003808437,32,21,20,18,44.2708333333333,NA
"63","5a06ebf2c259f300017656ee","harvé","pseudoword","0","1",0.946,0,-0.0555127099302588,32,21,20,18,44.2708333333333,NA
"64","5a06ebf2c259f300017656ee","mibro","pseudoword","0","1",0.908,0,-0.0965109003808437,32,21,20,18,44.2708333333333,NA
"65","5a06ebf2c259f300017656ee","mango","three_way_cognate","1","1",1.124,1,0.116893751471499,32,21,20,18,44.2708333333333,2.336
"66","5a06ebf2c259f300017656ee","cobén","pseudoword","0","0",0.65,1,-0.430782916092454,32,21,20,18,44.2708333333333,NA
"67","5a06ebf2c259f300017656ee","equipo","non_cognate","1","0",0.862,0,-0.148500008318444,32,21,20,18,44.2708333333333,4.056
"68","5a06ebf2c259f300017656ee","mauja","pseudoword","0","0",1.209,1,0.189793571632656,32,21,20,18,44.2708333333333,NA
"69","5a06ebf2c259f300017656ee","edioso","pseudoword","0","1",1.521,0,0.419368013277156,32,21,20,18,44.2708333333333,NA
"70","5a06ebf2c259f300017656ee","torso","two_way_cognate","1","1",0.561,1,-0.578034373459441,32,21,20,18,44.2708333333333,2.025
"71","5a06ebf2c259f300017656ee","rumor","two_way_cognate","1","1",1.044,1,0.043059489460447,32,21,20,18,44.2708333333333,2.751
"72","5a06ebf2c259f300017656ee","losco","pseudoword","0","1",1.113,0,0.107059072293408,32,21,20,18,44.2708333333333,NA
"73","5a06ebf2c259f300017656ee","rendir","non_cognate","1","1",0.978,1,-0.0222456089473197,32,21,20,18,44.2708333333333,2.223
"74","5a06ebf2c259f300017656ee","cuenco","non_cognate","1","1",0.975,1,-0.0253178079842899,32,21,20,18,44.2708333333333,1.23
"75","5a06ebf2c259f300017656ee","cuenco","non_cognate","1","1",0.975,1,-0.0253178079842899,32,21,20,18,44.2708333333333,1.23
"76","5a06ebf2c259f300017656ee","pelvis","two_way_cognate","1","0",1.327,0,0.28292075535007,32,21,20,18,44.2708333333333,1.785
"77","5a06ebf2c259f300017656ee","pelvis","two_way_cognate","1","0",1.327,0,0.28292075535007,32,21,20,18,44.2708333333333,1.785
"78","5a06ebf2c259f300017656ee","babrá","pseudoword","0","1",1.155,0,0.144100343973757,32,21,20,18,44.2708333333333,NA
"79","5a06ebf2c259f300017656ee","hotel","three_way_cognate","1","1",0.931,1,-0.0714960017050699,32,21,20,18,44.2708333333333,3.66
"80","5a06ebf2c259f300017656ee","aduana","non_cognate","1","1",1.083,1,0.0797349680188535,32,21,20,18,44.2708333333333,2.23
"81","5a06ebf2c259f300017656ee","regalo","non_cognate","1","1",0.664,1,-0.409473129505703,32,21,20,18,44.2708333333333,3.597
"82","5a06ebf2c259f300017656ee","collar","two_way_cognate","1","1",1.549,1,0.437609561434732,32,21,20,18,44.2708333333333,2.869
"83","5a06ebf2c259f300017656ee","morrá","pseudoword","0","0",0.658,1,-0.41855034765682,32,21,20,18,44.2708333333333,NA
"84","5a06ebf2c259f300017656ee","pelvis","two_way_cognate","1","1",0.859,1,-0.151986356997882,32,21,20,18,44.2708333333333,1.785
"85","5a06ebf2c259f300017656ee","pelvis","two_way_cognate","1","1",0.859,1,-0.151986356997882,32,21,20,18,44.2708333333333,1.785
"86","5a06ebf2c259f300017656ee","pasta","two_way_cognate","1","1",0.824,1,-0.193584749072665,32,21,20,18,44.2708333333333,2.763
"87","5a06ebf2c259f300017656ee","pegar","non_cognate","1","1",0.839,1,-0.175544572514931,32,21,20,18,44.2708333333333,2.517
"88","5a06ebf2c259f300017656ee","lobe","pseudoword","0","1",0.664,0,-0.409473129505703,32,21,20,18,44.2708333333333,NA
"89","5a06ebf2c259f300017656ee","vigor","two_way_cognate","1","0",0.823,0,-0.194799078305067,32,21,20,18,44.2708333333333,1.785
"90","5a06ebf2c259f300017656ee","aleta","non_cognate","1","1",0.673,1,-0.396009949337409,32,21,20,18,44.2708333333333,1.699
"91","5a06ebf2c259f300017656ee","extra","three_way_cognate","1","0",0.905,0,-0.0998203352822109,32,21,20,18,44.2708333333333,3.248
"92","5a06ebf2c259f300017656ee","teñir","non_cognate","1","0",0.823,0,-0.194799078305067,32,21,20,18,44.2708333333333,1.146
"93","5a06ebf2c259f300017656ee","halo","two_way_cognate","1","1",1.285,1,0.250758718347183,32,21,20,18,44.2708333333333,1.934
"94","5a06ebf2c259f300017656ee","enigma","two_way_cognate","1","1",0.697,1,-0.360969868221613,32,21,20,18,44.2708333333333,2.114
"95","5a06ebf2c259f300017656ee","barbs","pseudoword","0","1",1.196,0,0.17898265552844,32,21,20,18,44.2708333333333,NA
"96","5a06ebf2c259f300017656ee","venado","non_cognate","1","0",0.986,0,-0.0140989243795016,32,21,20,18,44.2708333333333,2.127
"97","5a06ebf2c259f300017656ee","estulo","pseudoword","0","1",0.616,0,-0.484508315448617,32,21,20,18,44.2708333333333,NA
"98","5a06ebf2c259f300017656ee","diroco","pseudoword","0","1",0.818,0,-0.20089294237939,32,21,20,18,44.2708333333333,NA
"99","5a06ebf2c259f300017656ee","próces","pseudoword","0","1",1.075,0,0.0723206615796261,32,21,20,18,44.2708333333333,NA
"100","5a06ebf2c259f300017656ee","civil","two_way_cognate","1","0",1.182,0,0.167207918983906,32,21,20,18,44.2708333333333,2.93
"101","5a06ebf2c259f300017656ee","llamar","non_cognate","1","1",1.014,1,0.0139029051689914,32,21,20,18,44.2708333333333,3.85
"102","5a06ebf2c259f300017656ee","mortal","two_way_cognate","1","0",0.836,0,-0.179126665897435,32,21,20,18,44.2708333333333,2.902
"103","5a06ebf2c259f300017656ee","colcha","non_cognate","1","1",1.244,1,0.218331994316988,32,21,20,18,44.2708333333333,1.556
"104","5a06ebf2c259f300017656ee","chote","pseudoword","0","1",0.97,0,-0.0304592074847086,32,21,20,18,44.2708333333333,NA
"105","5a06ebf2c259f300017656ee","suelet","pseudoword","0","1",0.682,0,-0.382725621138675,32,21,20,18,44.2708333333333,NA
"106","5a06ebf2c259f300017656ee","laras","pseudoword","0","0",0.976,1,-0.0242926925690446,32,21,20,18,44.2708333333333,NA
"107","5a06ebf2c259f300017656ee","pupica","pseudoword","0","1",1.201,0,0.183154543097847,32,21,20,18,44.2708333333333,NA
"108","5a06ebf2c259f300017656ee","nocita","pseudoword","0","1",1.143,0,0.133656384812674,32,21,20,18,44.2708333333333,NA
"109","5a06ebf2c259f300017656ee","virios","pseudoword","0","1",0.83,0,-0.186329578191493,32,21,20,18,44.2708333333333,NA
"110","5a06ebf2c259f300017656ee","seled","pseudoword","0","0",1.89,1,0.636576829071551,32,21,20,18,44.2708333333333,NA
"111","5a06ebf2c259f300017656ee","clan","three_way_cognate","1","0",1.05,0,0.048790164169432,32,21,20,18,44.2708333333333,2.342
"112","5a06ebf2c259f300017656ee","muleta","non_cognate","1","1",1.317,1,0.275356422761144,32,21,20,18,44.2708333333333,1.699
"113","5a06ebf2c259f300017656ee","siglo","non_cognate","1","1",0.757,1,-0.278392025544688,32,21,20,18,44.2708333333333,3.092
"114","5a06ebf2c259f300017656ee","aurora","two_way_cognate","1","0",1.354,0,0.303063174490083,32,21,20,18,44.2708333333333,2.17
"115","5a06ebf2c259f300017656ee","cricó","pseudoword","0","0",1.464,1,0.38117241553912,32,21,20,18,44.2708333333333,NA
"116","5a06ebf2c259f300017656ee","suave","non_cognate","1","0",1.925,0,0.654925967739748,32,21,20,18,44.2708333333333,3.031
"117","5a06ebf2c259f300017656ee","tobre","pseudoword","0","0",1.396,1,0.333611004340181,32,21,20,18,44.2708333333333,NA
"118","5a06ebf2c259f300017656ee","panté","pseudoword","0","1",1.183,0,0.16805358499625,32,21,20,18,44.2708333333333,NA
"119","5a06ebf2c259f300017656ee","gió","pseudoword","0","1",1.353,0,0.302324349188651,32,21,20,18,44.2708333333333,NA
"120","5a06ebf2c259f300017656ee","hueas","pseudoword","0","1",1.257,0,0.22872792960811,32,21,20,18,44.2708333333333,NA
"121","5a06ebf2c259f300017656ee","aura","three_way_cognate","1","1",1.048,1,0.0468835858988505,32,21,20,18,44.2708333333333,2.009
"122","5a06ebf2c259f300017656ee","albino","three_way_cognate","1","1",1.328,1,0.283674051054242,32,21,20,18,44.2708333333333,1.477
"123","5a06ebf2c259f300017656ee","emén","pseudoword","0","0",0.985,1,-0.0151136378100482,32,21,20,18,44.2708333333333,NA
"124","5a06ebf2c259f300017656ee","llevar","non_cognate","1","1",0.701,1,-0.355247391947547,32,21,20,18,44.2708333333333,3.748
"125","5a06ebf2c259f300017656ee","golla","pseudoword","0","1",2.658,0,0.977573960291054,32,21,20,18,44.2708333333333,NA
"126","5a06ebf2c259f300017656ee","martir","pseudoword","0","1",1.265,0,0.235072122179483,32,21,20,18,44.2708333333333,NA
"127","5a06ebf2c259f300017656ee","dobbo","pseudoword","0","1",1.329,0,0.284426779731108,32,21,20,18,44.2708333333333,NA
"128","5a06ebf2c259f300017656ee","jauda","pseudoword","0","1",0.892,0,-0.114289146402128,32,21,20,18,44.2708333333333,NA
"129","5a06ebf2c259f300017656ee","viable","two_way_cognate","1","1",1.669,1,0.512224644679698,32,21,20,18,44.2708333333333,2.079
"130","5a06ebf2c259f300017656ee","inichó","pseudoword","0","1",1.892,0,0.637634470629686,32,21,20,18,44.2708333333333,NA
"131","5a06ebf2c259f300017656ee","percha","non_cognate","1","0",0.968,0,-0.0325231917055601,32,21,20,18,44.2708333333333,1.633
"132","5a06ebf2c259f300017656ee","civas","pseudoword","0","1",0.801,0,-0.221894331913778,32,21,20,18,44.2708333333333,NA
"133","5a06ebf2c259f300017656ee","frasis","pseudoword","0","0",0.203,1,-1.59454929994035,32,21,20,18,44.2708333333333,NA
"134","5a06ebf2c259f300017656ee","diebro","pseudoword","0","1",0.972,0,-0.028399474521698,32,21,20,18,44.2708333333333,NA
"135","5a06ebf2c259f300017656ee","listo","non_cognate","1","0",0.628,0,-0.465215112513938,32,21,20,18,44.2708333333333,4.03
"136","5a06ebf2c259f300017656ee","listo","non_cognate","1","0",0.628,0,-0.465215112513938,32,21,20,18,44.2708333333333,4.03
"137","5a06ebf2c259f300017656ee","cengo","pseudoword","0","1",1.019,0,0.0188217542405877,32,21,20,18,44.2708333333333,NA
"138","5a06ebf2c259f300017656ee","editor","two_way_cognate","1","0",0.86,0,-0.150822889734584,32,21,20,18,44.2708333333333,2.708
"139","5a06ebf2c259f300017656ee","molor","pseudoword","0","1",0.84,0,-0.174353387144778,32,21,20,18,44.2708333333333,NA
"140","5a06ebf2c259f300017656ee","punta","non_cognate","1","0",0.885,0,-0.122167633974208,32,21,20,18,44.2708333333333,2.968
"141","5a06ebf2c259f300017656ee","huenos","pseudoword","0","1",1.026,0,0.0256677467485778,32,21,20,18,44.2708333333333,NA
"142","5a06ebf2c259f300017656ee","asumie","pseudoword","0","1",0.866,0,-0.143870370419702,32,21,20,18,44.2708333333333,NA
"143","5a06ebf2c259f300017656ee","sasos","pseudoword","0","1",0.973,0,-0.027371196796132,32,21,20,18,44.2708333333333,NA
"144","5a06ebf2c259f300017656ee","ceme","pseudoword","0","1",1.497,0,0.403463105437491,32,21,20,18,44.2708333333333,NA
"145","5a06ebf2c259f300017656ee","aviso","non_cognate","1","1",1.422,1,0.352064331381049,32,21,20,18,44.2708333333333,3.049
"146","5a06ebf2c259f300017656ee","ala","non_cognate","1","0",0.966,0,-0.0345914447696191,32,21,20,18,44.2708333333333,2.796
"147","5a06ebf2c259f300017656ee","hálito","non_cognate","1","1",1.117,1,0.110646520087064,32,21,20,18,44.2708333333333,0.903
"148","5a06ebf2c259f300017656ee","pico","non_cognate","1","0",0.956,0,-0.0449973659307358,32,21,20,18,44.2708333333333,2.76
"149","5a06ebf2c259f300017656ee","flecha","non_cognate","1","1",0.807,1,-0.214431610712188,32,21,20,18,44.2708333333333,2.458
"150","5a06ebf2c259f300017656ee","trugo","pseudoword","0","0",0.759,1,-0.275753501586507,32,21,20,18,44.2708333333333,NA
"151","5a06ebf2c259f300017656ee","plago","pseudoword","0","1",1.117,0,0.110646520087064,32,21,20,18,44.2708333333333,NA
"152","5a06ebf2c259f300017656ee","densó","pseudoword","0","1",0.841,0,-0.173163619009189,32,21,20,18,44.2708333333333,NA
"153","5a06ebf2c259f300017656ee","fomeó","pseudoword","0","1",1.253,0,0.225540675913931,32,21,20,18,44.2708333333333,NA
"154","5a06ebf2c259f300017656ee","brillo","non_cognate","1","1",1.232,1,0.208638865111328,32,21,20,18,44.2708333333333,2.517
"155","5a06ebf2c259f300017656ee","portal","three_way_cognate","1","1",0.838,1,-0.176737178500054,32,21,20,18,44.2708333333333,2.657
"156","5a06ebf2c259f300017656ee","hilo","non_cognate","1","1",1.012,1,0.0119285708652738,32,21,20,18,44.2708333333333,2.589
"157","5a06ebf2c259f300017656ee","piano","two_way_cognate","1","1",0.833,1,-0.182721636815294,32,21,20,18,44.2708333333333,2.951
"158","5a06ebf2c259f300017656ee","tecia","pseudoword","0","1",1.123,0,0.116003675756306,32,21,20,18,44.2708333333333,NA
"159","5a06ebf2c259f300017656ee","kilo","three_way_cognate","1","1",0.725,1,-0.321583624127462,32,21,20,18,44.2708333333333,2.49
"160","5a06ebf2c259f300017656ee","gotro","pseudoword","0","1",1.198,0,0.180653499693258,32,21,20,18,44.2708333333333,NA
"161","5a06ebf2c259f300017656ee","tapón","non_cognate","1","0",1.144,0,0.134530892957606,32,21,20,18,44.2708333333333,1.785
"162","5a06ebf2c259f300017656ee","moral","three_way_cognate","1","1",1.282,1,0.248421358498478,32,21,20,18,44.2708333333333,2.901
"163","5a06ebf2c259f300017656ee","dubo","pseudoword","0","1",1.229,0,0.206200830583898,32,21,20,18,44.2708333333333,NA
"164","5a06ebf2c259f300017656ee","ozoso","pseudoword","0","1",0.931,0,-0.0714960017050699,32,21,20,18,44.2708333333333,NA
"165","5a06ebf2c259f300017656ee","plural","three_way_cognate","1","1",0.907,1,-0.0976128288670004,32,21,20,18,44.2708333333333,1.881
"166","5a06ebf2c259f300017656ee","tapa","non_cognate","1","0",0.922,0,-0.0812100554255432,32,21,20,18,44.2708333333333,2.747
"167","5a06ebf2c259f300017656ee","ardor","two_way_cognate","1","1",0.905,1,-0.0998203352822109,32,21,20,18,44.2708333333333,1.672
"168","5a06ebf2c259f300017656ee","muñeca","non_cognate","1","1",0.966,1,-0.0345914447696191,32,21,20,18,44.2708333333333,3.093
"169","5a06ebf2c259f300017656ee","casual","two_way_cognate","1","1",1.077,1,0.0741793981742515,32,21,20,18,44.2708333333333,2.272
"170","5a06ebf2c259f300017656ee","llzan","pseudoword","0","1",0.952,0,-0.0491902441907718,32,21,20,18,44.2708333333333,NA
"171","5a06ebf2c259f300017656ee","chocar","non_cognate","1","1",0.784,1,-0.243346258631729,32,21,20,18,44.2708333333333,2.299
"172","5a06ebf2c259f300017656ee","drama","three_way_cognate","1","1",1.033,1,0.0324671901375014,32,21,20,18,44.2708333333333,2.736
"173","5a06ebf2c259f300017656ee","mafia","three_way_cognate","1","1",0.716,1,-0.334075112021491,32,21,20,18,44.2708333333333,2.732
"174","5a06ebf2c259f300017656ee","prías","pseudoword","0","0",1.149,1,0.138891998866619,32,21,20,18,44.2708333333333,NA
"175","5a06ebf2c259f300017656ee","tradía","pseudoword","0","1",0.634,0,-0.455706324544911,32,21,20,18,44.2708333333333,NA
"176","5a06ebf2c259f300017656ee","disco","three_way_cognate","1","1",1.151,1,0.140631129739746,32,21,20,18,44.2708333333333,3.282
"177","5a06ebf2c259f300017656ee","pelí","pseudoword","0","1",1.252,0,0.224742272677907,32,21,20,18,44.2708333333333,NA
"178","5a06ebf2c259f300017656ee","nocó","pseudoword","0","1",0.671,0,-0.398986142010455,32,21,20,18,44.2708333333333,NA
"179","5a06ebf2c259f300017656ee","sacar","non_cognate","1","1",1,1,0,32,21,20,18,44.2708333333333,3.536
"180","5a06ebf2c259f300017656ee","maldad","non_cognate","1","0",1.189,0,0.173112617708645,32,21,20,18,44.2708333333333,2.656
"181","5a06ebf2c259f300017656ee","lidena","pseudoword","0","0",1.05,1,0.048790164169432,32,21,20,18,44.2708333333333,NA
"182","5a06ebf2c259f300017656ee","rizate","pseudoword","0","1",0.832,0,-0.183922838160928,32,21,20,18,44.2708333333333,NA
"183","5a06ebf2c259f300017656ee","chorde","pseudoword","0","1",0.765,0,-0.267879445155601,32,21,20,18,44.2708333333333,NA
"184","5a06ebf2c259f300017656ee","blando","non_cognate","1","0",0.76,0,-0.27443684570176,32,21,20,18,44.2708333333333,2.292
"185","5a06ebf2c259f300017656ee","actor","two_way_cognate","1","1",0.978,1,-0.0222456089473197,32,21,20,18,44.2708333333333,3.091
"186","5a06ebf2c259f300017656ee","bará","pseudoword","0","1",0.802,0,-0.220646671115623,32,21,20,18,44.2708333333333,NA
"187","5a06ebf2c259f300017656ee","aljizo","pseudoword","0","1",0.671,0,-0.398986142010455,32,21,20,18,44.2708333333333,NA
"188","5a06ebf2c259f300017656ee","diabo","pseudoword","0","0",0.992,1,-0.00803217169726427,32,21,20,18,44.2708333333333,NA
"189","5a06ebf2c259f300017656ee","amplir","pseudoword","0","1",0.76,0,-0.27443684570176,32,21,20,18,44.2708333333333,NA
"190","5a06ebf2c259f300017656ee","coyo","pseudoword","0","1",1.326,0,0.282166891763671,32,21,20,18,44.2708333333333,NA
"191","5a06ebf2c259f300017656ee","dogue","pseudoword","0","1",0.681,0,-0.384192972832625,32,21,20,18,44.2708333333333,NA
"192","5a06ebf2c259f300017656ee","tator","pseudoword","0","0",0.869,1,-0.140412153716745,32,21,20,18,44.2708333333333,NA
"193","5a06ebf2c259f300017656ee","color","two_way_cognate","1","1",4.774,1,1.56318452791664,32,21,20,18,44.2708333333333,3.442
"194","5a06ebf2c259f300017656ee","dogma","three_way_cognate","1","1",0.957,1,-0.0439518875291828,32,21,20,18,44.2708333333333,1.38
"195","5a06ebf2c259f300017656ee","alla","pseudoword","0","1",0.753,0,-0.283690051182243,32,21,20,18,44.2708333333333,NA
"196","5a06ebf2c259f300017656ee","clamor","two_way_cognate","1","1",1.042,1,0.0411419433311752,32,21,20,18,44.2708333333333,1.38
"197","5a06ebf2c259f300017656ee","monue","pseudoword","0","1",1.157,0,0.14583044821154,32,21,20,18,44.2708333333333,NA
"198","5a06ebf2c259f300017656ee","horror","three_way_cognate","1","1",0.628,1,-0.465215112513938,32,21,20,18,44.2708333333333,2.658
"199","5b0564479649530001a3946c","edioso","pseudoword","0","1",1.593,0,0.465619030927911,23,78,23,17,64.5833333333333,NA
"200","5b0564479649530001a3946c","cobén","pseudoword","0","0",1.412,1,0.34500713907105,23,78,23,17,64.5833333333333,NA
"201","5b0564479649530001a3946c","dubo","pseudoword","0","0",1.033,1,0.0324671901375014,23,78,23,17,64.5833333333333,NA
"202","5b0564479649530001a3946c","listo","non_cognate","1","1",0.886,1,-0.121038328377056,23,78,23,17,64.5833333333333,4.03
"203","5b0564479649530001a3946c","listo","non_cognate","1","1",0.886,1,-0.121038328377056,23,78,23,17,64.5833333333333,4.03
"204","5b0564479649530001a3946c","pupica","pseudoword","0","0",0.903,1,-0.102032725565152,23,78,23,17,64.5833333333333,NA
"205","5b0564479649530001a3946c","seled","pseudoword","0","0",0.731,1,-0.313341819232359,23,78,23,17,64.5833333333333,NA
"206","5b0564479649530001a3946c","fuar","pseudoword","0","0",0.803,1,-0.219400565035375,23,78,23,17,64.5833333333333,NA
"207","5b0564479649530001a3946c","torta","non_cognate","1","1",0.807,1,-0.214431610712188,23,78,23,17,64.5833333333333,2.851
"208","5b0564479649530001a3946c","total","two_way_cognate","1","1",0.626,1,-0.468404907882039,23,78,23,17,64.5833333333333,3.311
"209","5b0564479649530001a3946c","guerra","non_cognate","1","1",1.261,1,0.231905056982782,23,78,23,17,64.5833333333333,3.948
"210","5b0564479649530001a3946c","virios","pseudoword","0","0",0.856,1,-0.155484902840395,23,78,23,17,64.5833333333333,NA
"211","5b0564479649530001a3946c","prías","pseudoword","0","0",0.992,1,-0.00803217169726427,23,78,23,17,64.5833333333333,NA
"212","5b0564479649530001a3946c","ánimo","non_cognate","1","0",1.018,0,0.017839918128331,23,78,23,17,64.5833333333333,2.777
"213","5b0564479649530001a3946c","próces","pseudoword","0","0",1.128,1,0.120446153075867,23,78,23,17,64.5833333333333,NA
"214","5b0564479649530001a3946c","actor","two_way_cognate","1","1",0.547,1,-0.603306476560156,23,78,23,17,64.5833333333333,3.091
"215","5b0564479649530001a3946c","altar","three_way_cognate","1","1",1.321,1,0.278389025540188,23,78,23,17,64.5833333333333,2.529
"216","5b0564479649530001a3946c","aura","three_way_cognate","1","1",0.65,1,-0.430782916092454,23,78,23,17,64.5833333333333,2.009
"217","5b0564479649530001a3946c","sierra","non_cognate","1","1",0.767,1,-0.265268477614881,23,78,23,17,64.5833333333333,2.658
"218","5b0564479649530001a3946c","dobbo","pseudoword","0","0",0.647,1,-0.435408984481236,23,78,23,17,64.5833333333333,NA
"219","5b0564479649530001a3946c","viable","two_way_cognate","1","1",1.602,1,0.471252848646168,23,78,23,17,64.5833333333333,2.079
"220","5b0564479649530001a3946c","suelet","pseudoword","0","0",0.974,1,-0.026343975339602,23,78,23,17,64.5833333333333,NA
"221","5b0564479649530001a3946c","cuenco","non_cognate","1","0",1.151,0,0.140631129739746,23,78,23,17,64.5833333333333,1.23
"222","5b0564479649530001a3946c","cuenco","non_cognate","1","0",1.151,0,0.140631129739746,23,78,23,17,64.5833333333333,1.23
"223","5b0564479649530001a3946c","molor","pseudoword","0","0",1.041,1,0.0401817896328318,23,78,23,17,64.5833333333333,NA
"224","5b0564479649530001a3946c","ozoso","pseudoword","0","0",1.422,1,0.352064331381049,23,78,23,17,64.5833333333333,NA
"225","5b0564479649530001a3946c","asumie","pseudoword","0","0",0.845,1,-0.168418651624963,23,78,23,17,64.5833333333333,NA
"226","5b0564479649530001a3946c","hálito","non_cognate","1","0",1.016,0,0.0158733491562902,23,78,23,17,64.5833333333333,0.903
"227","5b0564479649530001a3946c","rizate","pseudoword","0","0",1.116,1,0.109750863959119,23,78,23,17,64.5833333333333,NA
"228","5b0564479649530001a3946c","pelvis","two_way_cognate","1","0",1.117,0,0.110646520087064,23,78,23,17,64.5833333333333,1.785
"229","5b0564479649530001a3946c","pelvis","two_way_cognate","1","0",1.117,0,0.110646520087064,23,78,23,17,64.5833333333333,1.785
"230","5b0564479649530001a3946c","listo","non_cognate","1","1",0.672,1,-0.397496938458987,23,78,23,17,64.5833333333333,4.03
"231","5b0564479649530001a3946c","listo","non_cognate","1","1",0.672,1,-0.397496938458987,23,78,23,17,64.5833333333333,4.03
"232","5b0564479649530001a3946c","civil","two_way_cognate","1","1",0.785,1,-0.242071561199729,23,78,23,17,64.5833333333333,2.93
"233","5b0564479649530001a3946c","nocó","pseudoword","0","0",0.979,1,-0.0212236364516267,23,78,23,17,64.5833333333333,NA
"234","5b0564479649530001a3946c","aviso","non_cognate","1","1",2.144,1,0.762673243208556,23,78,23,17,64.5833333333333,3.049
"235","5b0564479649530001a3946c","puñal","non_cognate","1","0",1.196,0,0.17898265552844,23,78,23,17,64.5833333333333,1.756
"236","5b0564479649530001a3946c","editor","two_way_cognate","1","1",1.469,1,0.38458189719174,23,78,23,17,64.5833333333333,2.708
"237","5b0564479649530001a3946c","dogma","three_way_cognate","1","0",0.899,0,-0.106472244510517,23,78,23,17,64.5833333333333,1.38
"238","5b0564479649530001a3946c","rúo","pseudoword","0","0",0.976,1,-0.0242926925690446,23,78,23,17,64.5833333333333,NA
"239","5b0564479649530001a3946c","fomeó","pseudoword","0","0",0.983,1,-0.0171461588349705,23,78,23,17,64.5833333333333,NA
"240","5b0564479649530001a3946c","huenos","pseudoword","0","1",1.268,0,0.237440856015034,23,78,23,17,64.5833333333333,NA
"241","5b0564479649530001a3946c","morrá","pseudoword","0","0",1.895,1,0.63921883853439,23,78,23,17,64.5833333333333,NA
"242","5b0564479649530001a3946c","hotel","three_way_cognate","1","1",0.651,1,-0.429245636773568,23,78,23,17,64.5833333333333,3.66
"243","5b0564479649530001a3946c","martir","pseudoword","0","0",1.415,1,0.347129531095201,23,78,23,17,64.5833333333333,NA
"244","5b0564479649530001a3946c","vigor","two_way_cognate","1","0",2.391,0,0.871711688476188,23,78,23,17,64.5833333333333,1.785
"245","5b0564479649530001a3946c","vien","pseudoword","0","0",1.318,1,0.276115436080316,23,78,23,17,64.5833333333333,NA
"246","5b0564479649530001a3946c","vueras","pseudoword","0","1",0.728,0,-0.317454230785451,23,78,23,17,64.5833333333333,NA
"247","5b0564479649530001a3946c","grigir","pseudoword","0","0",0.91,1,-0.0943106794712413,23,78,23,17,64.5833333333333,NA
"248","5b0564479649530001a3946c","rendir","non_cognate","1","0",1.457,0,0.376379527213068,23,78,23,17,64.5833333333333,2.223
"249","5b0564479649530001a3946c","coyo","pseudoword","0","1",0.877,0,-0.131248286609954,23,78,23,17,64.5833333333333,NA
"250","5b0564479649530001a3946c","cricó","pseudoword","0","1",0.609,0,-0.49593701127224,23,78,23,17,64.5833333333333,NA
"251","5b0564479649530001a3946c","hueas","pseudoword","0","0",0.833,1,-0.182721636815294,23,78,23,17,64.5833333333333,NA
"252","5b0564479649530001a3946c","regalo","non_cognate","1","1",0.772,1,-0.258770728957361,23,78,23,17,64.5833333333333,3.597
"253","5b0564479649530001a3946c","harvé","pseudoword","0","0",0.983,1,-0.0171461588349705,23,78,23,17,64.5833333333333,NA
"254","5b0564479649530001a3946c","mortal","two_way_cognate","1","1",1.186,1,0.170586300575534,23,78,23,17,64.5833333333333,2.902
"255","5b0564479649530001a3946c","sacar","non_cognate","1","1",1.009,1,0.0089597413714718,23,78,23,17,64.5833333333333,3.536
"256","5b0564479649530001a3946c","laras","pseudoword","0","0",2.477,1,0.907048150507222,23,78,23,17,64.5833333333333,NA
"257","5b0564479649530001a3946c","rostro","non_cognate","1","0",0.89,0,-0.116533816255952,23,78,23,17,64.5833333333333,3.222
"258","5b0564479649530001a3946c","anfia","pseudoword","0","0",2.611,1,0.959733289716992,23,78,23,17,64.5833333333333,NA
"259","5b0564479649530001a3946c","épinas","pseudoword","0","0",1.51,1,0.412109650826833,23,78,23,17,64.5833333333333,NA
"260","5b0564479649530001a3946c","piano","two_way_cognate","1","1",0.658,1,-0.41855034765682,23,78,23,17,64.5833333333333,2.951
"261","5b0564479649530001a3946c","siglo","non_cognate","1","1",1.044,1,0.043059489460447,23,78,23,17,64.5833333333333,3.092
"262","5b0564479649530001a3946c","hurcos","pseudoword","0","0",1.097,1,0.0925791812930932,23,78,23,17,64.5833333333333,NA
"263","5b0564479649530001a3946c","mauja","pseudoword","0","0",0.793,1,-0.231932057347289,23,78,23,17,64.5833333333333,NA
"264","5b0564479649530001a3946c","test","three_way_cognate","1","1",0.511,1,-0.671385688778433,23,78,23,17,64.5833333333333,2.652
"265","5b0564479649530001a3946c","tumor","three_way_cognate","1","1",0.717,1,-0.332679438382517,23,78,23,17,64.5833333333333,2.767
"266","5b0564479649530001a3946c","bará","pseudoword","0","0",0.609,1,-0.49593701127224,23,78,23,17,64.5833333333333,NA
"267","5b0564479649530001a3946c","entodo","pseudoword","0","1",1.538,0,0.430482871083452,23,78,23,17,64.5833333333333,NA
"268","5b0564479649530001a3946c","honor","two_way_cognate","1","1",0.796,1,-0.228156093137754,23,78,23,17,64.5833333333333,3.515
"269","5b0564479649530001a3946c","frasis","pseudoword","0","0",0.874,1,-0.134674903326602,23,78,23,17,64.5833333333333,NA
"270","5b0564479649530001a3946c","gió","pseudoword","0","0",0.846,1,-0.167235919375914,23,78,23,17,64.5833333333333,NA
"271","5b0564479649530001a3946c","mango","three_way_cognate","1","1",0.878,1,-0.13010868534702,23,78,23,17,64.5833333333333,2.336
"272","5b0564479649530001a3946c","mafia","three_way_cognate","1","1",1.029,1,0.0285874568519125,23,78,23,17,64.5833333333333,2.732
"273","5b0564479649530001a3946c","gotro","pseudoword","0","0",1.747,1,0.55790003115192,23,78,23,17,64.5833333333333,NA
"274","5b0564479649530001a3946c","tradía","pseudoword","0","0",0.797,1,-0.226900600191922,23,78,23,17,64.5833333333333,NA
"275","5b0564479649530001a3946c","percha","non_cognate","1","0",0.854,0,-0.157824085193567,23,78,23,17,64.5833333333333,1.633
"276","5b0564479649530001a3946c","mibro","pseudoword","0","0",0.721,1,-0.327116141697188,23,78,23,17,64.5833333333333,NA
"277","5b0564479649530001a3946c","punta","non_cognate","1","1",0.651,1,-0.429245636773568,23,78,23,17,64.5833333333333,2.968
"278","5b0564479649530001a3946c","maldad","non_cognate","1","1",1.113,1,0.107059072293408,23,78,23,17,64.5833333333333,2.656
"279","5b0564479649530001a3946c","esís","pseudoword","0","0",1.013,1,0.0129162252665462,23,78,23,17,64.5833333333333,NA
"280","5b0564479649530001a3946c","densó","pseudoword","0","1",0.984,0,-0.0161293819298836,23,78,23,17,64.5833333333333,NA
"281","5b0564479649530001a3946c","arane","pseudoword","0","0",0.776,1,-0.253602758798918,23,78,23,17,64.5833333333333,NA
"282","5b0564479649530001a3946c","muñeca","non_cognate","1","0",1.127,0,0.119559235057639,23,78,23,17,64.5833333333333,3.093
"283","5b0564479649530001a3946c","moral","three_way_cognate","1","1",0.738,1,-0.303811454381665,23,78,23,17,64.5833333333333,2.901
"284","5b0564479649530001a3946c","trcia","pseudoword","0","0",0.68,1,-0.385662480811985,23,78,23,17,64.5833333333333,NA
"285","5b0564479649530001a3946c","plan","three_way_cognate","1","1",0.593,1,-0.522560879984412,23,78,23,17,64.5833333333333,3.848
"286","5b0564479649530001a3946c","pico","non_cognate","1","1",0.596,1,-0.517514611916787,23,78,23,17,64.5833333333333,2.76
"287","5b0564479649530001a3946c","aurora","two_way_cognate","1","1",0.785,1,-0.242071561199729,23,78,23,17,64.5833333333333,2.17
"288","5b0564479649530001a3946c","llzan","pseudoword","0","0",0.66,1,-0.415515443961666,23,78,23,17,64.5833333333333,NA
"289","5b0564479649530001a3946c","nomata","pseudoword","0","0",1.747,1,0.55790003115192,23,78,23,17,64.5833333333333,NA
"290","5b0564479649530001a3946c","plural","three_way_cognate","1","1",0.797,1,-0.226900600191922,23,78,23,17,64.5833333333333,1.881
"291","5b0564479649530001a3946c","plago","pseudoword","0","0",1.129,1,0.121332285167525,23,78,23,17,64.5833333333333,NA
"292","5b0564479649530001a3946c","tapa","non_cognate","1","1",0.653,1,-0.426178149705706,23,78,23,17,64.5833333333333,2.747
"293","5b0564479649530001a3946c","chocar","non_cognate","1","0",1.078,0,0.0751074724868055,23,78,23,17,64.5833333333333,2.299
"294","5b0564479649530001a3946c","pelí","pseudoword","0","0",0.719,1,-0.32989392126109,23,78,23,17,64.5833333333333,NA
"295","5b0564479649530001a3946c","casual","two_way_cognate","1","1",0.721,1,-0.327116141697188,23,78,23,17,64.5833333333333,2.272
"296","5b0564479649530001a3946c","horror","three_way_cognate","1","1",0.738,1,-0.303811454381665,23,78,23,17,64.5833333333333,2.658
"297","5b0564479649530001a3946c","equipo","non_cognate","1","1",0.817,1,-0.202116184122134,23,78,23,17,64.5833333333333,4.056
"298","5b0564479649530001a3946c","desaro","pseudoword","0","0",0.834,1,-0.18152187662339,23,78,23,17,64.5833333333333,NA
"299","5b0564479649530001a3946c","fiscal","two_way_cognate","1","0",1.383,0,0.324255052682621,23,78,23,17,64.5833333333333,3.2
"300","5b0564479649530001a3946c","cuenco","non_cognate","1","0",1.134,0,0.12575120530556,23,78,23,17,64.5833333333333,1.23
"301","5b0564479649530001a3946c","cuenco","non_cognate","1","0",1.134,0,0.12575120530556,23,78,23,17,64.5833333333333,1.23
"302","5b0564479649530001a3946c","rizado","non_cognate","1","0",1.182,0,0.167207918983906,23,78,23,17,64.5833333333333,1.69
"303","5b0564479649530001a3946c","ardor","two_way_cognate","1","0",0.867,0,-0.142716302201595,23,78,23,17,64.5833333333333,1.672
"304","5b0564479649530001a3946c","monue","pseudoword","0","1",0.544,0,-0.608806032126194,23,78,23,17,64.5833333333333,NA
"305","5b0564479649530001a3946c","llamar","non_cognate","1","1",0.67,1,-0.400477566597125,23,78,23,17,64.5833333333333,3.85
"306","5b0564479649530001a3946c","blando","non_cognate","1","0",1.085,0,0.0815799869924228,23,78,23,17,64.5833333333333,2.292
"307","5b0564479649530001a3946c","estulo","pseudoword","0","0",0.702,1,-0.353821874956326,23,78,23,17,64.5833333333333,NA
"308","5b0564479649530001a3946c","drama","three_way_cognate","1","1",1.015,1,0.0148886124937506,23,78,23,17,64.5833333333333,2.736
"309","5b0564479649530001a3946c","pitis","pseudoword","0","1",1.493,0,0.400787518557053,23,78,23,17,64.5833333333333,NA
"310","5b0564479649530001a3946c","inichó","pseudoword","0","0",0.716,1,-0.334075112021491,23,78,23,17,64.5833333333333,NA
"311","5b0564479649530001a3946c","suelo","non_cognate","1","0",0.991,0,-0.00904074465214907,23,78,23,17,64.5833333333333,3.503
"312","5b0564479649530001a3946c","lidena","pseudoword","0","0",1.281,1,0.247641022914597,23,78,23,17,64.5833333333333,NA
"313","5b0564479649530001a3946c","albino","three_way_cognate","1","1",0.882,1,-0.125563222975346,23,78,23,17,64.5833333333333,1.477
"314","5b0564479649530001a3946c","trauma","three_way_cognate","1","1",0.619,1,-0.479650006297541,23,78,23,17,64.5833333333333,2.59
"315","5b0564479649530001a3946c","ala","non_cognate","1","0",0.801,0,-0.221894331913778,23,78,23,17,64.5833333333333,2.796
"316","5b0564479649530001a3946c","bugor","pseudoword","0","0",0.703,1,-0.352398387171472,23,78,23,17,64.5833333333333,NA
"317","5b0564479649530001a3946c","brillo","non_cognate","1","0",1.095,0,0.0907543632684641,23,78,23,17,64.5833333333333,2.517
"318","5b0564479649530001a3946c","barbs","pseudoword","0","0",0.732,1,-0.311974765020825,23,78,23,17,64.5833333333333,NA
"319","5b0564479649530001a3946c","halo","two_way_cognate","1","0",0.895,0,-0.110931560707282,23,78,23,17,64.5833333333333,1.934
"320","5b0564479649530001a3946c","caro","non_cognate","1","1",0.783,1,-0.244622582991334,23,78,23,17,64.5833333333333,2.946
"321","5b0564479649530001a3946c","gravés","pseudoword","0","0",0.862,1,-0.148500008318444,23,78,23,17,64.5833333333333,NA
"322","5b0564479649530001a3946c","suave","non_cognate","1","1",1.179,1,0.164666621555234,23,78,23,17,64.5833333333333,3.031
"323","5b0564479649530001a3946c","tobre","pseudoword","0","1",1.277,0,0.244513577050402,23,78,23,17,64.5833333333333,NA
"324","5b0564479649530001a3946c","color","two_way_cognate","1","1",0.826,1,-0.191160505461159,23,78,23,17,64.5833333333333,3.442
"325","5b0564479649530001a3946c","panté","pseudoword","0","0",0.684,1,-0.379797361359587,23,78,23,17,64.5833333333333,NA
"326","5b0564479649530001a3946c","civas","pseudoword","0","0",1.056,1,0.0544881852840698,23,78,23,17,64.5833333333333,NA
"327","5b0564479649530001a3946c","llevar","non_cognate","1","1",0.637,1,-0.450985623409974,23,78,23,17,64.5833333333333,3.748
"328","5b0564479649530001a3946c","sasos","pseudoword","0","0",0.948,1,-0.0534007767271153,23,78,23,17,64.5833333333333,NA
"329","5b0564479649530001a3946c","tator","pseudoword","0","0",1.396,1,0.333611004340181,23,78,23,17,64.5833333333333,NA
"330","5b0564479649530001a3946c","tecia","pseudoword","0","0",0.812,1,-0.208254938820459,23,78,23,17,64.5833333333333,NA
"331","5b0564479649530001a3946c","vinzó","pseudoword","0","0",0.836,1,-0.179126665897435,23,78,23,17,64.5833333333333,NA
"332","5b0564479649530001a3946c","collar","two_way_cognate","1","1",1.134,1,0.12575120530556,23,78,23,17,64.5833333333333,2.869
"333","5b0564479649530001a3946c","hilo","non_cognate","1","0",2.374,0,0.864576296187476,23,78,23,17,64.5833333333333,2.589
"334","5b0564479649530001a3946c","diebro","pseudoword","0","0",0.747,1,-0.29169009384932,23,78,23,17,64.5833333333333,NA
"335","5b0564479649530001a3946c","ceme","pseudoword","0","0",1.205,1,0.186479566942618,23,78,23,17,64.5833333333333,NA
"336","5b0564479649530001a3946c","aljizo","pseudoword","0","0",0.93,1,-0.0725706928348354,23,78,23,17,64.5833333333333,NA
"337","5b0564479649530001a3946c","flora","three_way_cognate","1","1",0.511,1,-0.671385688778433,23,78,23,17,64.5833333333333,2.09
"338","5b0564479649530001a3946c","patada","non_cognate","1","0",1.815,0,0.596085467716814,23,78,23,17,64.5833333333333,2.715
"339","5b0564479649530001a3946c","trugo","pseudoword","0","0",0.922,1,-0.0812100554255432,23,78,23,17,64.5833333333333,NA
"340","5b0564479649530001a3946c","aleta","non_cognate","1","1",0.756,1,-0.279713902802604,23,78,23,17,64.5833333333333,1.699
"341","5b0564479649530001a3946c","golla","pseudoword","0","1",0.533,0,-0.629233854816292,23,78,23,17,64.5833333333333,NA
"342","5b0564479649530001a3946c","dogue","pseudoword","0","0",0.667,1,-0.404965233066513,23,78,23,17,64.5833333333333,NA
"343","5b0564479649530001a3946c","peniz","pseudoword","0","0",1.643,1,0.496523839055131,23,78,23,17,64.5833333333333,NA
"344","5b0564479649530001a3946c","gino","pseudoword","0","0",0.805,1,-0.216913001563574,23,78,23,17,64.5833333333333,NA
"345","5b0564479649530001a3946c","animal","two_way_cognate","1","1",0.539,1,-0.61803970807314,23,78,23,17,64.5833333333333,3.271
"346","5b0564479649530001a3946c","extra","three_way_cognate","1","1",1.465,1,0.381855242469031,23,78,23,17,64.5833333333333,3.248
"347","5b0564479649530001a3946c","kugis","pseudoword","0","0",0.616,1,-0.484508315448617,23,78,23,17,64.5833333333333,NA
"348","5b0564479649530001a3946c","golf","three_way_cognate","1","1",0.632,1,-0.45886588483528,23,78,23,17,64.5833333333333,3.129
"349","5b0564479649530001a3946c","cengo","pseudoword","0","0",0.996,1,-0.00400802139753882,23,78,23,17,64.5833333333333,NA
"350","5b0564479649530001a3946c","losco","pseudoword","0","0",0.814,1,-0.205794912979597,23,78,23,17,64.5833333333333,NA
"351","5b0564479649530001a3946c","kilo","three_way_cognate","1","1",1.293,1,0.25696509978972,23,78,23,17,64.5833333333333,2.49
"352","5b0564479649530001a3946c","prave","pseudoword","0","0",1.217,1,0.19638881400539,23,78,23,17,64.5833333333333,NA
"353","5b0564479649530001a3946c","chorde","pseudoword","0","0",0.813,1,-0.207024169434327,23,78,23,17,64.5833333333333,NA
"354","5b0564479649530001a3946c","babrá","pseudoword","0","0",0.844,1,-0.16960278438618,23,78,23,17,64.5833333333333,NA
"355","5b0564479649530001a3946c","boñaz","pseudoword","0","0",0.798,1,-0.225646681532328,23,78,23,17,64.5833333333333,NA
"356","5b0564479649530001a3946c","amplir","pseudoword","0","0",2.141,1,0.761273009607546,23,78,23,17,64.5833333333333,NA
"357","5b0564479649530001a3946c","aduana","non_cognate","1","0",0.898,0,-0.107585210679937,23,78,23,17,64.5833333333333,2.23
"358","5b0564479649530001a3946c","flecha","non_cognate","1","1",0.871,1,-0.138113302129634,23,78,23,17,64.5833333333333,2.458
"359","5b0564479649530001a3946c","jauda","pseudoword","0","1",1.213,0,0.193096629961913,23,78,23,17,64.5833333333333,NA
"360","5b0564479649530001a3946c","pegar","non_cognate","1","0",0.859,0,-0.151986356997882,23,78,23,17,64.5833333333333,2.517
"361","5b0564479649530001a3946c","medium","pseudoword","0","1",1.241,0,0.21591750622247,23,78,23,17,64.5833333333333,NA
"362","5b0564479649530001a3946c","alla","pseudoword","0","1",1.321,0,0.278389025540188,23,78,23,17,64.5833333333333,NA
"363","5b0564479649530001a3946c","feo","non_cognate","1","0",0.647,0,-0.435408984481236,23,78,23,17,64.5833333333333,3.16
"364","5b0564479649530001a3946c","conso","pseudoword","0","0",1.47,1,0.385262400790645,23,78,23,17,64.5833333333333,NA
"365","5b0564479649530001a3946c","pelvis","two_way_cognate","1","0",1.974,0,0.68006194101129,23,78,23,17,64.5833333333333,1.785
"366","5b0564479649530001a3946c","pelvis","two_way_cognate","1","0",1.974,0,0.68006194101129,23,78,23,17,64.5833333333333,1.785
"367","5b0564479649530001a3946c","colcha","non_cognate","1","0",0.712,0,-0.339677367570161,23,78,23,17,64.5833333333333,1.556
"368","5b0564479649530001a3946c","emén","pseudoword","0","0",2.885,1,1.05952489996006,23,78,23,17,64.5833333333333,NA
"369","5b0564479649530001a3946c","chote","pseudoword","0","0",0.7,1,-0.356674943938732,23,78,23,17,64.5833333333333,NA
"370","5b0564479649530001a3946c","pabea","pseudoword","0","0",0.79,1,-0.23572233352107,23,78,23,17,64.5833333333333,NA
"371","5b0564479649530001a3946c","gripar","pseudoword","0","1",0.987,0,-0.0130852395486555,23,78,23,17,64.5833333333333,NA
"372","5b0564479649530001a3946c","parre","pseudoword","0","1",0.596,0,-0.517514611916787,23,78,23,17,64.5833333333333,NA
"373","5b0564479649530001a3946c","rumor","two_way_cognate","1","1",0.82,1,-0.198450938723838,23,78,23,17,64.5833333333333,2.751
"374","5b0564479649530001a3946c","diroco","pseudoword","0","0",0.813,1,-0.207024169434327,23,78,23,17,64.5833333333333,NA
"375","5b0564479649530001a3946c","clan","three_way_cognate","1","1",0.863,1,-0.147340587898709,23,78,23,17,64.5833333333333,2.342
"376","5b0564479649530001a3946c","lobe","pseudoword","0","0",0.715,1,-0.335472736288129,23,78,23,17,64.5833333333333,NA
"377","5b0564479649530001a3946c","dibrea","pseudoword","0","1",0.915,0,-0.0888312137066157,23,78,23,17,64.5833333333333,NA
"378","5b0564479649530001a3946c","retina","three_way_cognate","1","1",0.797,1,-0.226900600191922,23,78,23,17,64.5833333333333,1.716
"379","5b0564479649530001a3946c","enorme","non_cognate","1","1",0.759,1,-0.275753501586507,23,78,23,17,64.5833333333333,3.375
"380","5b0564479649530001a3946c","nocita","pseudoword","0","1",1.066,0,0.0639133257436529,23,78,23,17,64.5833333333333,NA
"381","5b0564479649530001a3946c","samón","pseudoword","0","0",0.529,1,-0.636766847123838,23,78,23,17,64.5833333333333,NA
"382","5b0564479649530001a3946c","teñir","non_cognate","1","1",0.686,1,-0.376877651256252,23,78,23,17,64.5833333333333,1.146
"383","5b0564479649530001a3946c","muleta","non_cognate","1","0",1.264,0,0.234281295724666,23,78,23,17,64.5833333333333,1.699
"384","5b0564479649530001a3946c","clamor","two_way_cognate","1","0",1.131,0,0.123102197133983,23,78,23,17,64.5833333333333,1.38
"385","5b0564479649530001a3946c","forro","non_cognate","1","0",1.083,0,0.0797349680188535,23,78,23,17,64.5833333333333,1.886
"386","5b0564479649530001a3946c","enigma","two_way_cognate","1","1",1.163,1,0.151002873536527,23,78,23,17,64.5833333333333,2.114
"387","5b0564479649530001a3946c","tiza","non_cognate","1","0",0.817,0,-0.202116184122134,23,78,23,17,64.5833333333333,2.158
"388","5b0564479649530001a3946c","chat","three_way_cognate","1","1",1.202,1,0.183986836113016,23,78,23,17,64.5833333333333,1.845
"389","5b0564479649530001a3946c","venado","non_cognate","1","1",0.962,1,-0.0387408283164306,23,78,23,17,64.5833333333333,2.127
"390","5b0564479649530001a3946c","nasce","pseudoword","0","0",0.748,1,-0.29035230100766,23,78,23,17,64.5833333333333,NA
"391","5b0564479649530001a3946c","tapón","non_cognate","1","0",0.885,0,-0.122167633974208,23,78,23,17,64.5833333333333,1.785
"392","5b0564479649530001a3946c","torso","two_way_cognate","1","1",0.717,1,-0.332679438382517,23,78,23,17,64.5833333333333,2.025
"393","5b0564479649530001a3946c","diabo","pseudoword","0","0",1.129,1,0.121332285167525,23,78,23,17,64.5833333333333,NA
"394","5b0564479649530001a3946c","portal","three_way_cognate","1","1",0.63,1,-0.462035459596559,23,78,23,17,64.5833333333333,2.657
"395","5b0564479649530001a3946c","disco","three_way_cognate","1","1",0.616,1,-0.484508315448617,23,78,23,17,64.5833333333333,3.282
"396","5b0564479649530001a3946c","pasta","two_way_cognate","1","1",0.577,1,-0.549913012474038,23,78,23,17,64.5833333333333,2.763
"397","5b8eab705206680001da3583","tecia","pseudoword","0","0",0.8317,1,-0.184283480107495,22,85,22,19,67.1875,NA
"398","5b8eab705206680001da3583","torta","non_cognate","1","1",0.8949,1,-0.111043298793325,22,85,22,19,67.1875,2.851
"399","5b8eab705206680001da3583","viable","two_way_cognate","1","1",0.9868,1,-0.0132878943269354,22,85,22,19,67.1875,2.079
"400","5b8eab705206680001da3583","laras","pseudoword","0","0",0.9032,1,-0.101811266146685,22,85,22,19,67.1875,NA
"401","5b8eab705206680001da3583","piano","two_way_cognate","1","1",0.6096,1,-0.4949522746097,22,85,22,19,67.1875,2.951
"402","5b8eab705206680001da3583","samón","pseudoword","0","0",0.8536,1,-0.158292578994593,22,85,22,19,67.1875,NA
"403","5b8eab705206680001da3583","cobén","pseudoword","0","0",0.7422,1,-0.29813653035564,22,85,22,19,67.1875,NA
"404","5b8eab705206680001da3583","morrá","pseudoword","0","0",0.6446,1,-0.4391253096008,22,85,22,19,67.1875,NA
"405","5b8eab705206680001da3583","virios","pseudoword","0","0",0.7909,1,-0.234583741456765,22,85,22,19,67.1875,NA
"406","5b8eab705206680001da3583","diabo","pseudoword","0","1",0.5502,0,-0.597473430491663,22,85,22,19,67.1875,NA
"407","5b8eab705206680001da3583","altar","three_way_cognate","1","1",0.5344,1,-0.626610656759701,22,85,22,19,67.1875,2.529
"408","5b8eab705206680001da3583","ardor","two_way_cognate","1","1",0.8629,1,-0.147456469467875,22,85,22,19,67.1875,1.672
"409","5b8eab705206680001da3583","chorde","pseudoword","0","0",0.655,1,-0.423120043346885,22,85,22,19,67.1875,NA
"410","5b8eab705206680001da3583","vueras","pseudoword","0","1",0.8141,0,-0.205672070402205,22,85,22,19,67.1875,NA
"411","5b8eab705206680001da3583","patada","non_cognate","1","0",0.8208,0,-0.197475804565632,22,85,22,19,67.1875,2.715
"412","5b8eab705206680001da3583","pegar","non_cognate","1","1",1.0426,1,0.0417175933518685,22,85,22,19,67.1875,2.517
"413","5b8eab705206680001da3583","asumie","pseudoword","0","0",0.7086,1,-0.344464086550765,22,85,22,19,67.1875,NA
"414","5b8eab705206680001da3583","dobbo","pseudoword","0","0",0.7068,1,-0.347007538536596,22,85,22,19,67.1875,NA
"415","5b8eab705206680001da3583","hotel","three_way_cognate","1","1",0.6232,1,-0.472887784425599,22,85,22,19,67.1875,3.66
"416","5b8eab705206680001da3583","puñal","non_cognate","1","0",0.9251,0,-0.0778534392048641,22,85,22,19,67.1875,1.756
"417","5b8eab705206680001da3583","nocó","pseudoword","0","0",0.8806,1,-0.127151785660484,22,85,22,19,67.1875,NA
"418","5b8eab705206680001da3583","pabea","pseudoword","0","0",1.5238,1,0.421207215056772,22,85,22,19,67.1875,NA
"419","5b8eab705206680001da3583","próces","pseudoword","0","1",0.8983,0,-0.107251190746976,22,85,22,19,67.1875,NA
"420","5b8eab705206680001da3583","venado","non_cognate","1","0",0.6347,0,-0.454602832669713,22,85,22,19,67.1875,2.127
"421","5b8eab705206680001da3583","civil","two_way_cognate","1","1",0.5704,1,-0.561417409882051,22,85,22,19,67.1875,2.93
"422","5b8eab705206680001da3583","inichó","pseudoword","0","0",0.846,1,-0.167235919375914,22,85,22,19,67.1875,NA
"423","5b8eab705206680001da3583","animal","two_way_cognate","1","1",0.5391,1,-0.617854196524514,22,85,22,19,67.1875,3.271
"424","5b8eab705206680001da3583","bará","pseudoword","0","0",0.5988,1,-0.512827626436664,22,85,22,19,67.1875,NA
"425","5b8eab705206680001da3583","mafia","three_way_cognate","1","1",0.6749,1,-0.393190747232776,22,85,22,19,67.1875,2.732
"426","5b8eab705206680001da3583","estulo","pseudoword","0","0",0.7524,1,-0.284487181555262,22,85,22,19,67.1875,NA
"427","5b8eab705206680001da3583","drama","three_way_cognate","1","1",0.6663,1,-0.406015259413646,22,85,22,19,67.1875,2.736
"428","5b8eab705206680001da3583","emén","pseudoword","0","0",0.4776,1,-0.738981716903745,22,85,22,19,67.1875,NA
"429","5b8eab705206680001da3583","total","two_way_cognate","1","1",1.1129,1,0.106969220997242,22,85,22,19,67.1875,3.311
"430","5b8eab705206680001da3583","lobe","pseudoword","0","0",1.0336,1,0.0330478540462004,22,85,22,19,67.1875,NA
"431","5b8eab705206680001da3583","pico","non_cognate","1","0",0.5408,0,-0.614705754253383,22,85,22,19,67.1875,2.76
"432","5b8eab705206680001da3583","pelvis","two_way_cognate","1","0",0.555,0,-0.588787165235702,22,85,22,19,67.1875,1.785
"433","5b8eab705206680001da3583","pelvis","two_way_cognate","1","0",0.555,0,-0.588787165235702,22,85,22,19,67.1875,1.785
"434","5b8eab705206680001da3583","llevar","non_cognate","1","1",0.756,1,-0.279713902802604,22,85,22,19,67.1875,3.748
"435","5b8eab705206680001da3583","portal","three_way_cognate","1","1",0.8538,1,-0.158058304658275,22,85,22,19,67.1875,2.657
"436","5b8eab705206680001da3583","dogue","pseudoword","0","0",0.5894,1,-0.528650208678543,22,85,22,19,67.1875,NA
"437","5b8eab705206680001da3583","trcia","pseudoword","0","0",0.8124,1,-0.207762449275907,22,85,22,19,67.1875,NA
"438","5b8eab705206680001da3583","esís","pseudoword","0","0",0.6337,1,-0.456179622652666,22,85,22,19,67.1875,NA
"439","5b8eab705206680001da3583","enigma","two_way_cognate","1","1",0.9317,1,-0.0707444045257578,22,85,22,19,67.1875,2.114
"440","5b8eab705206680001da3583","regalo","non_cognate","1","1",0.6676,1,-0.404066087194457,22,85,22,19,67.1875,3.597
"441","5b8eab705206680001da3583","muñeca","non_cognate","1","0",0.6749,0,-0.393190747232776,22,85,22,19,67.1875,3.093
"442","5b8eab705206680001da3583","monue","pseudoword","0","0",0.8137,1,-0.206163531279525,22,85,22,19,67.1875,NA
"443","5b8eab705206680001da3583","extra","three_way_cognate","1","1",0.6444,1,-0.439435627679318,22,85,22,19,67.1875,3.248
"444","5b8eab705206680001da3583","siglo","non_cognate","1","0",0.5411,0,-0.614151174333447,22,85,22,19,67.1875,3.092
"445","5b8eab705206680001da3583","maldad","non_cognate","1","0",0.8867,0,-0.120248572596176,22,85,22,19,67.1875,2.656
"446","5b8eab705206680001da3583","suave","non_cognate","1","1",0.7333,1,-0.310200383882383,22,85,22,19,67.1875,3.031
"447","5b8eab705206680001da3583","golf","three_way_cognate","1","1",0.6576,1,-0.419158435240167,22,85,22,19,67.1875,3.129
"448","5b8eab705206680001da3583","clamor","two_way_cognate","1","0",0.7047,0,-0.34998309864916,22,85,22,19,67.1875,1.38
"449","5b8eab705206680001da3583","guerra","non_cognate","1","1",0.6239,1,-0.471765179865396,22,85,22,19,67.1875,3.948
"450","5b8eab705206680001da3583","peniz","pseudoword","0","0",0.8575,1,-0.153734099942042,22,85,22,19,67.1875,NA
"451","5b8eab705206680001da3583","flora","three_way_cognate","1","1",0.632,1,-0.45886588483528,22,85,22,19,67.1875,2.09
"452","5b8eab705206680001da3583","mortal","two_way_cognate","1","1",1.035,1,0.0344014267173323,22,85,22,19,67.1875,2.902
"453","5b8eab705206680001da3583","gino","pseudoword","0","0",0.5077,1,-0.677864557028788,22,85,22,19,67.1875,NA
"454","5b8eab705206680001da3583","halo","two_way_cognate","1","1",0.7514,1,-0.285817145842269,22,85,22,19,67.1875,1.934
"455","5b8eab705206680001da3583","nocita","pseudoword","0","0",0.7015,1,-0.354534379439621,22,85,22,19,67.1875,NA
"456","5b8eab705206680001da3583","frasis","pseudoword","0","0",0.7469,1,-0.291823971619116,22,85,22,19,67.1875,NA
"457","5b8eab705206680001da3583","sierra","non_cognate","1","1",0.7018,1,-0.354106815833022,22,85,22,19,67.1875,2.658
"458","5b8eab705206680001da3583","aduana","non_cognate","1","0",0.6913,0,-0.369181396030918,22,85,22,19,67.1875,2.23
"459","5b8eab705206680001da3583","listo","non_cognate","1","1",0.5692,1,-0.56352341276644,22,85,22,19,67.1875,4.03
"460","5b8eab705206680001da3583","listo","non_cognate","1","1",0.5692,1,-0.56352341276644,22,85,22,19,67.1875,4.03
"461","5b8eab705206680001da3583","percha","non_cognate","1","0",0.6585,0,-0.417790757798801,22,85,22,19,67.1875,1.633
"462","5b8eab705206680001da3583","prías","pseudoword","0","0",0.6214,1,-0.47578028202319,22,85,22,19,67.1875,NA
"463","5b8eab705206680001da3583","edioso","pseudoword","0","0",0.6868,1,-0.375712149958817,22,85,22,19,67.1875,NA
"464","5b8eab705206680001da3583","forro","non_cognate","1","0",0.5612,0,-0.577677930753831,22,85,22,19,67.1875,1.886
"465","5b8eab705206680001da3583","pelí","pseudoword","0","0",0.6007,1,-0.509659637126021,22,85,22,19,67.1875,NA
"466","5b8eab705206680001da3583","vien","pseudoword","0","1",0.5871,0,-0.532560115911997,22,85,22,19,67.1875,NA
"467","5b8eab705206680001da3583","casual","two_way_cognate","1","1",0.5914,1,-0.52526267156376,22,85,22,19,67.1875,2.272
"468","5b8eab705206680001da3583","gió","pseudoword","0","0",0.6675,1,-0.404215888707733,22,85,22,19,67.1875,NA
"469","5b8eab705206680001da3583","tumor","three_way_cognate","1","1",0.6494,1,-0.431706419313391,22,85,22,19,67.1875,2.767
"470","5b8eab705206680001da3583","brillo","non_cognate","1","0",0.6772,0,-0.389788628723157,22,85,22,19,67.1875,2.517
"471","5b8eab705206680001da3583","equipo","non_cognate","1","1",0.5729,1,-0.557044097567605,22,85,22,19,67.1875,4.056
"472","5b8eab705206680001da3583","golla","pseudoword","0","0",0.6198,1,-0.478358433628489,22,85,22,19,67.1875,NA
"473","5b8eab705206680001da3583","losco","pseudoword","0","0",0.5648,1,-0.571283592803105,22,85,22,19,67.1875,NA
"474","5b8eab705206680001da3583","desaro","pseudoword","0","0",0.6188,1,-0.479973160283226,22,85,22,19,67.1875,NA
"475","5b8eab705206680001da3583","llzan","pseudoword","0","0",0.5737,1,-0.555648667374312,22,85,22,19,67.1875,NA
"476","5b8eab705206680001da3583","gotro","pseudoword","0","0",0.5678,1,-0.565986034943266,22,85,22,19,67.1875,NA
"477","5b8eab705206680001da3583","blando","non_cognate","1","0",0.6873,0,-0.374984400854578,22,85,22,19,67.1875,2.292
"478","5b8eab705206680001da3583","listo","non_cognate","1","1",0.5467,1,-0.603855073081184,22,85,22,19,67.1875,4.03
"479","5b8eab705206680001da3583","listo","non_cognate","1","1",0.5467,1,-0.603855073081184,22,85,22,19,67.1875,4.03
"480","5b8eab705206680001da3583","rendir","non_cognate","1","0",0.7243,0,-0.322549607780857,22,85,22,19,67.1875,2.223
"481","5b8eab705206680001da3583","flecha","non_cognate","1","1",0.673,1,-0.396009949337409,22,85,22,19,67.1875,2.458
"482","5b8eab705206680001da3583","mango","three_way_cognate","1","1",0.5555,1,-0.587886669902452,22,85,22,19,67.1875,2.336
"483","5b8eab705206680001da3583","sacar","non_cognate","1","1",0.6899,1,-0.371208619430074,22,85,22,19,67.1875,3.536
"484","5b8eab705206680001da3583","seled","pseudoword","0","0",0.6946,1,-0.364419138672163,22,85,22,19,67.1875,NA
"485","5b8eab705206680001da3583","huenos","pseudoword","0","0",0.7173,1,-0.332261115849748,22,85,22,19,67.1875,NA
"486","5b8eab705206680001da3583","fomeó","pseudoword","0","0",0.6787,1,-0.387576075272424,22,85,22,19,67.1875,NA
"487","5b8eab705206680001da3583","editor","two_way_cognate","1","1",0.5375,1,-0.620826518980319,22,85,22,19,67.1875,2.708
"488","5b8eab705206680001da3583","rumor","two_way_cognate","1","0",0.8315,0,-0.184523980349155,22,85,22,19,67.1875,2.751
"489","5b8eab705206680001da3583","rizado","non_cognate","1","0",0.5676,0,-0.566338333696249,22,85,22,19,67.1875,1.69
"490","5b8eab705206680001da3583","hurcos","pseudoword","0","0",0.6449,1,-0.438660012965805,22,85,22,19,67.1875,NA
"491","5b8eab705206680001da3583","nasce","pseudoword","0","0",0.6728,1,-0.396307170323399,22,85,22,19,67.1875,NA
"492","5b8eab705206680001da3583","martir","pseudoword","0","0",1.005,1,0.00498754151103897,22,85,22,19,67.1875,NA
"493","5b8eab705206680001da3583","bugor","pseudoword","0","0",0.7516,1,-0.285551011442827,22,85,22,19,67.1875,NA
"494","5b8eab705206680001da3583","grigir","pseudoword","0","0",0.735,1,-0.3078847797693,22,85,22,19,67.1875,NA
"495","5b8eab705206680001da3583","colcha","non_cognate","1","0",0.6743,0,-0.394080163241601,22,85,22,19,67.1875,1.556
"496","5b8eab705206680001da3583","vinzó","pseudoword","0","0",0.7038,1,-0.351261054094652,22,85,22,19,67.1875,NA
"497","5b8eab705206680001da3583","disco","three_way_cognate","1","1",0.5507,1,-0.596565082713701,22,85,22,19,67.1875,3.282
"498","5b8eab705206680001da3583","kilo","three_way_cognate","1","1",0.5159,1,-0.661842330731533,22,85,22,19,67.1875,2.49
"499","5b8eab705206680001da3583","muleta","non_cognate","1","0",0.6864,0,-0.376294730808384,22,85,22,19,67.1875,1.699
"500","5b8eab705206680001da3583","entodo","pseudoword","0","1",0.7987,0,-0.224769873058794,22,85,22,19,67.1875,NA
"501","5b8eab705206680001da3583","ánimo","non_cognate","1","1",0.6662,1,-0.406165353222558,22,85,22,19,67.1875,2.777
"502","5b8eab705206680001da3583","medium","pseudoword","0","1",0.6184,0,-0.480619781708925,22,85,22,19,67.1875,NA
"503","5b8eab705206680001da3583","densó","pseudoword","0","1",0.6471,0,-0.435254436918917,22,85,22,19,67.1875,NA
"504","5b8eab705206680001da3583","anfia","pseudoword","0","0",0.6143,1,-0.487271870812255,22,85,22,19,67.1875,NA
"505","5b8eab705206680001da3583","babrá","pseudoword","0","0",0.595,1,-0.519193873436507,22,85,22,19,67.1875,NA
"506","5b8eab705206680001da3583","llamar","non_cognate","1","1",0.549,1,-0.599656837472606,22,85,22,19,67.1875,3.85
"507","5b8eab705206680001da3583","actor","two_way_cognate","1","1",0.582,1,-0.541284831250699,22,85,22,19,67.1875,3.091
"508","5b8eab705206680001da3583","tradía","pseudoword","0","0",0.9112,1,-0.0929928668491647,22,85,22,19,67.1875,NA
"509","5b8eab705206680001da3583","fiscal","two_way_cognate","1","0",0.7133,0,-0.337853189698145,22,85,22,19,67.1875,3.2
"510","5b8eab705206680001da3583","panté","pseudoword","0","0",0.7085,1,-0.344605219851402,22,85,22,19,67.1875,NA
"511","5b8eab705206680001da3583","sasos","pseudoword","0","0",0.721,1,-0.327116141697188,22,85,22,19,67.1875,NA
"512","5b8eab705206680001da3583","lidena","pseudoword","0","0",0.6769,1,-0.390231727467575,22,85,22,19,67.1875,NA
"513","5b8eab705206680001da3583","fuar","pseudoword","0","0",0.7512,1,-0.286083351088084,22,85,22,19,67.1875,NA
"514","5b8eab705206680001da3583","feo","non_cognate","1","1",0.6193,1,-0.479165471038122,22,85,22,19,67.1875,3.16
"515","5b8eab705206680001da3583","plago","pseudoword","0","0",0.8826,1,-0.12488318214669,22,85,22,19,67.1875,NA
"516","5b8eab705206680001da3583","tator","pseudoword","0","0",0.6464,1,-0.436336771775251,22,85,22,19,67.1875,NA
"517","5b8eab705206680001da3583","parre","pseudoword","0","0",0.6732,1,-0.395712816665486,22,85,22,19,67.1875,NA
"518","5b8eab705206680001da3583","arane","pseudoword","0","0",0.6724,1,-0.396901877447677,22,85,22,19,67.1875,NA
"519","5b8eab705206680001da3583","enorme","non_cognate","1","1",0.5904,1,-0.526955005695874,22,85,22,19,67.1875,3.375
"520","5b8eab705206680001da3583","dubo","pseudoword","0","0",0.5773,1,-0.549393216915249,22,85,22,19,67.1875,NA
"521","5b8eab705206680001da3583","boñaz","pseudoword","0","0",0.5837,1,-0.538368126772392,22,85,22,19,67.1875,NA
"522","5b8eab705206680001da3583","tiza","non_cognate","1","0",0.6103,0,-0.493804639431688,22,85,22,19,67.1875,2.158
"523","5b8eab705206680001da3583","aurora","two_way_cognate","1","1",0.6636,1,-0.410075720665848,22,85,22,19,67.1875,2.17
"524","5b8eab705206680001da3583","moral","three_way_cognate","1","1",0.5335,1,-0.628296208240329,22,85,22,19,67.1875,2.901
"525","5b8eab705206680001da3583","rostro","non_cognate","1","0",0.5649,0,-0.571106554650921,22,85,22,19,67.1875,3.222
"526","5b8eab705206680001da3583","albino","three_way_cognate","1","1",0.69,1,-0.371063681390832,22,85,22,19,67.1875,1.477
"527","5b8eab705206680001da3583","trugo","pseudoword","0","0",0.5714,1,-0.559665789185464,22,85,22,19,67.1875,NA
"528","5b8eab705206680001da3583","harvé","pseudoword","0","0",0.6273,1,-0.46633038387944,22,85,22,19,67.1875,NA
"529","5b8eab705206680001da3583","ala","non_cognate","1","1",0.7702,1,-0.261105057601329,22,85,22,19,67.1875,2.796
"530","5b8eab705206680001da3583","gripar","pseudoword","0","1",0.6291,0,-0.463465052406153,22,85,22,19,67.1875,NA
"531","5b8eab705206680001da3583","pelvis","two_way_cognate","1","1",0.8093,1,-0.211585602480481,22,85,22,19,67.1875,1.785
"532","5b8eab705206680001da3583","pelvis","two_way_cognate","1","1",0.8093,1,-0.211585602480481,22,85,22,19,67.1875,1.785
"533","5b8eab705206680001da3583","aljizo","pseudoword","0","0",0.596,1,-0.517514611916787,22,85,22,19,67.1875,NA
"534","5b8eab705206680001da3583","dogma","three_way_cognate","1","1",0.776,1,-0.253602758798918,22,85,22,19,67.1875,1.38
"535","5b8eab705206680001da3583","diroco","pseudoword","0","0",0.5687,1,-0.564402224669383,22,85,22,19,67.1875,NA
"536","5b8eab705206680001da3583","barbs","pseudoword","0","0",0.732,1,-0.311974765020825,22,85,22,19,67.1875,NA
"537","5b8eab705206680001da3583","hueas","pseudoword","0","0",0.724,1,-0.322963886596421,22,85,22,19,67.1875,NA
"538","5b8eab705206680001da3583","conso","pseudoword","0","0",0.6447,1,-0.438970186665563,22,85,22,19,67.1875,NA
"539","5b8eab705206680001da3583","horror","three_way_cognate","1","1",0.5816,1,-0.541972352762827,22,85,22,19,67.1875,2.658
"540","5b8eab705206680001da3583","collar","two_way_cognate","1","1",0.8626,1,-0.147804194768394,22,85,22,19,67.1875,2.869
"541","5b8eab705206680001da3583","color","two_way_cognate","1","1",0.667,1,-0.404965233066513,22,85,22,19,67.1875,3.442
"542","5b8eab705206680001da3583","pupica","pseudoword","0","0",0.6774,1,-0.389493338598466,22,85,22,19,67.1875,NA
"543","5b8eab705206680001da3583","dibrea","pseudoword","0","0",0.6347,1,-0.454602832669713,22,85,22,19,67.1875,NA
"544","5b8eab705206680001da3583","aleta","non_cognate","1","0",0.6391,0,-0.447694342325901,22,85,22,19,67.1875,1.699
"545","5b8eab705206680001da3583","épinas","pseudoword","0","0",0.6607,1,-0.414455399946297,22,85,22,19,67.1875,NA
"546","5b8eab705206680001da3583","hálito","non_cognate","1","0",0.6005,0,-0.509992637462099,22,85,22,19,67.1875,0.903
"547","5b8eab705206680001da3583","ceme","pseudoword","0","0",0.9097,1,-0.0946404041541209,22,85,22,19,67.1875,NA
"548","5b8eab705206680001da3583","chote","pseudoword","0","0",0.7075,1,-0.346017649464744,22,85,22,19,67.1875,NA
"549","5b8eab705206680001da3583","caro","non_cognate","1","1",0.6741,1,-0.394376811122744,22,85,22,19,67.1875,2.946
"550","5b8eab705206680001da3583","chat","three_way_cognate","1","1",0.6108,1,-0.49298570563766,22,85,22,19,67.1875,1.845
"551","5b8eab705206680001da3583","retina","three_way_cognate","1","1",0.8405,1,-0.173758326133467,22,85,22,19,67.1875,1.716
"552","5b8eab705206680001da3583","test","three_way_cognate","1","0",0.9323,0,-0.0701006276794891,22,85,22,19,67.1875,2.652
"553","5b8eab705206680001da3583","nomata","pseudoword","0","0",0.6471,1,-0.435254436918917,22,85,22,19,67.1875,NA
"554","5b8eab705206680001da3583","torso","two_way_cognate","1","0",0.8155,0,-0.203953856921068,22,85,22,19,67.1875,2.025
"555","5b8eab705206680001da3583","pitis","pseudoword","0","0",0.8354,1,-0.179844626919062,22,85,22,19,67.1875,NA
"556","5b8eab705206680001da3583","honor","two_way_cognate","1","1",0.7107,1,-0.341504879149288,22,85,22,19,67.1875,3.515
"557","5b8eab705206680001da3583","kugis","pseudoword","0","0",0.549,1,-0.599656837472606,22,85,22,19,67.1875,NA
"558","5b8eab705206680001da3583","amplir","pseudoword","0","0",0.5807,1,-0.543521006604133,22,85,22,19,67.1875,NA
"559","5b8eab705206680001da3583","cuenco","non_cognate","1","0",0.5754,0,-0.552689827864689,22,85,22,19,67.1875,1.23
"560","5b8eab705206680001da3583","cuenco","non_cognate","1","0",0.5754,0,-0.552689827864689,22,85,22,19,67.1875,1.23
"561","5b8eab705206680001da3583","aviso","non_cognate","1","0",0.5219,0,-0.650279280332769,22,85,22,19,67.1875,3.049
"562","5b8eab705206680001da3583","civas","pseudoword","0","0",0.7216,1,-0.326284310233723,22,85,22,19,67.1875,NA
"563","5b8eab705206680001da3583","chocar","non_cognate","1","0",0.686,0,-0.376877651256252,22,85,22,19,67.1875,2.299
"564","5b8eab705206680001da3583","hilo","non_cognate","1","1",0.5684,1,-0.564929882759191,22,85,22,19,67.1875,2.589
"565","5b8eab705206680001da3583","vigor","two_way_cognate","1","1",0.5521,1,-0.594026089692138,22,85,22,19,67.1875,1.785
"566","5b8eab705206680001da3583","punta","non_cognate","1","1",0.6289,1,-0.463783017432679,22,85,22,19,67.1875,2.968
"567","5b8eab705206680001da3583","rizate","pseudoword","0","0",0.7414,1,-0.299214988265505,22,85,22,19,67.1875,NA
"568","5b8eab705206680001da3583","plural","three_way_cognate","1","1",0.5684,1,-0.564929882759191,22,85,22,19,67.1875,1.881
"569","5b8eab705206680001da3583","jauda","pseudoword","0","0",0.5667,1,-0.567925215806564,22,85,22,19,67.1875,NA
"570","5b8eab705206680001da3583","tapón","non_cognate","1","0",0.5891,0,-0.529159330454495,22,85,22,19,67.1875,1.785
"571","5b8eab705206680001da3583","aura","three_way_cognate","1","1",0.5919,1,-0.524417577285458,22,85,22,19,67.1875,2.009
"572","5b8eab705206680001da3583","cricó","pseudoword","0","0",0.5683,1,-0.565105830679061,22,85,22,19,67.1875,NA
"573","5b8eab705206680001da3583","mauja","pseudoword","0","0",0.6302,1,-0.461718049658963,22,85,22,19,67.1875,NA
"574","5b8eab705206680001da3583","trauma","three_way_cognate","1","1",0.6657,1,-0.406916160375479,22,85,22,19,67.1875,2.59
"575","5b8eab705206680001da3583","coyo","pseudoword","0","0",0.6239,1,-0.471765179865396,22,85,22,19,67.1875,NA
"576","5b8eab705206680001da3583","tobre","pseudoword","0","0",0.6287,1,-0.464101083593122,22,85,22,19,67.1875,NA
"577","5b8eab705206680001da3583","molor","pseudoword","0","0",0.6672,1,-0.4046654279376,22,85,22,19,67.1875,NA
"578","5b8eab705206680001da3583","teñir","non_cognate","1","0",0.6242,0,-0.471284449145458,22,85,22,19,67.1875,1.146
"579","5b8eab705206680001da3583","gravés","pseudoword","0","1",0.6397,0,-0.446755962526045,22,85,22,19,67.1875,NA
"580","5b8eab705206680001da3583","suelet","pseudoword","0","0",0.5488,1,-0.600021202570462,22,85,22,19,67.1875,NA
"581","5b8eab705206680001da3583","rúo","pseudoword","0","0",0.5434,1,-0.60990958198989,22,85,22,19,67.1875,NA
"582","5b8eab705206680001da3583","prave","pseudoword","0","0",0.5624,1,-0.575541938485682,22,85,22,19,67.1875,NA
"583","5b8eab705206680001da3583","suelo","non_cognate","1","1",0.6492,1,-0.432014443341701,22,85,22,19,67.1875,3.503
"584","5b8eab705206680001da3583","clan","three_way_cognate","1","0",0.5831,0,-0.539396580754027,22,85,22,19,67.1875,2.342
"585","5b8eab705206680001da3583","tapa","non_cognate","1","1",0.6091,1,-0.495772821139698,22,85,22,19,67.1875,2.747
"586","5b8eab705206680001da3583","cuenco","non_cognate","1","0",0.5824,0,-0.540597782099661,22,85,22,19,67.1875,1.23
"587","5b8eab705206680001da3583","cuenco","non_cognate","1","0",0.5824,0,-0.540597782099661,22,85,22,19,67.1875,1.23
"588","5b8eab705206680001da3583","cengo","pseudoword","0","0",0.7352,1,-0.30761270794066,22,85,22,19,67.1875,NA
"589","5b8eab705206680001da3583","diebro","pseudoword","0","0",0.5914,1,-0.52526267156376,22,85,22,19,67.1875,NA
"590","5b8eab705206680001da3583","alla","pseudoword","0","1",0.5475,0,-0.602392817291481,22,85,22,19,67.1875,NA
"591","5b8eab705206680001da3583","plan","three_way_cognate","1","1",0.6942,1,-0.364995175554451,22,85,22,19,67.1875,3.848
"592","5b8eab705206680001da3583","mibro","pseudoword","0","0",0.5917,1,-0.524755529299489,22,85,22,19,67.1875,NA
"593","5b8eab705206680001da3583","ozoso","pseudoword","0","1",0.6271,0,-0.466649261433162,22,85,22,19,67.1875,NA
"594","5b8eab705206680001da3583","pasta","two_way_cognate","1","1",0.6244,1,-0.47096409034086,22,85,22,19,67.1875,2.763
"595","5bbbdca68f3bd70001e713ef","vien","pseudoword","0","0",1.0534,1,0.0520230280671518,29,55,5,6,58.8541666666667,NA
"596","5bbbdca68f3bd70001e713ef","chocar","non_cognate","1","0",1.4199,0,0.350586446598175,29,55,5,6,58.8541666666667,2.299
"597","5bbbdca68f3bd70001e713ef","tator","pseudoword","0","1",1.455,0,0.375005900623456,29,55,5,6,58.8541666666667,NA
"598","5bbbdca68f3bd70001e713ef","rendir","non_cognate","1","0",0.9368,0,-0.0652854666986295,29,55,5,6,58.8541666666667,2.223
"599","5bbbdca68f3bd70001e713ef","trcia","pseudoword","0","1",1.2032,0,0.184984674213438,29,55,5,6,58.8541666666667,NA
"600","5bbbdca68f3bd70001e713ef","moral","three_way_cognate","1","1",1.515,1,0.415415438961332,29,55,5,6,58.8541666666667,2.901
"601","5bbbdca68f3bd70001e713ef","diabo","pseudoword","0","1",1.323,0,0.279901885132819,29,55,5,6,58.8541666666667,NA
"602","5bbbdca68f3bd70001e713ef","gino","pseudoword","0","0",1.4033,1,0.338826605774953,29,55,5,6,58.8541666666667,NA
"603","5bbbdca68f3bd70001e713ef","estulo","pseudoword","0","1",1.6067,0,0.474182386067152,29,55,5,6,58.8541666666667,NA
"604","5bbbdca68f3bd70001e713ef","muleta","non_cognate","1","1",1.7878,1,0.580985813671615,29,55,5,6,58.8541666666667,1.699
"605","5bbbdca68f3bd70001e713ef","torta","non_cognate","1","1",0.7543,1,-0.281965112122552,29,55,5,6,58.8541666666667,2.851
"606","5bbbdca68f3bd70001e713ef","morrá","pseudoword","0","1",1.0515,0,0.0502177161606175,29,55,5,6,58.8541666666667,NA
"607","5bbbdca68f3bd70001e713ef","albino","three_way_cognate","1","0",0.9367,0,-0.0653922187670522,29,55,5,6,58.8541666666667,1.477
"608","5bbbdca68f3bd70001e713ef","nomata","pseudoword","0","1",1.5265,0,0.422977533192795,29,55,5,6,58.8541666666667,NA
"609","5bbbdca68f3bd70001e713ef","pico","non_cognate","1","1",1.2755,1,0.243338258599729,29,55,5,6,58.8541666666667,2.76
"610","5bbbdca68f3bd70001e713ef","animal","two_way_cognate","1","0",1.5524,0,0.439802120512614,29,55,5,6,58.8541666666667,3.271
"611","5bbbdca68f3bd70001e713ef","esís","pseudoword","0","1",1.7504,0,0.559844333245525,29,55,5,6,58.8541666666667,NA
"612","5bbbdca68f3bd70001e713ef","ánimo","non_cognate","1","0",1.6859,0,0.522299545839618,29,55,5,6,58.8541666666667,2.777
"613","5bbbdca68f3bd70001e713ef","hilo","non_cognate","1","0",1.2679,0,0.237361988551765,29,55,5,6,58.8541666666667,2.589
"614","5bbbdca68f3bd70001e713ef","civil","two_way_cognate","1","1",1.1701,1,0.157089215242775,29,55,5,6,58.8541666666667,2.93
"615","5bbbdca68f3bd70001e713ef","rizate","pseudoword","0","0",1.0199,1,0.0197045832743354,29,55,5,6,58.8541666666667,NA
"616","5bbbdca68f3bd70001e713ef","plan","three_way_cognate","1","0",1.5339,0,0.427813511771926,29,55,5,6,58.8541666666667,3.848
"617","5bbbdca68f3bd70001e713ef","huenos","pseudoword","0","1",1.3367,0,0.29020388999529,29,55,5,6,58.8541666666667,NA
"618","5bbbdca68f3bd70001e713ef","aviso","non_cognate","1","0",1.8877,0,0.635359156792551,29,55,5,6,58.8541666666667,3.049
"619","5bbbdca68f3bd70001e713ef","gió","pseudoword","0","0",0.8093,1,-0.211585602480481,29,55,5,6,58.8541666666667,NA
"620","5bbbdca68f3bd70001e713ef","seled","pseudoword","0","0",1.3203,1,0.277858983503018,29,55,5,6,58.8541666666667,NA
"621","5bbbdca68f3bd70001e713ef","extra","three_way_cognate","1","0",1.5006,0,0.405865028129491,29,55,5,6,58.8541666666667,3.248
"622","5bbbdca68f3bd70001e713ef","tapa","non_cognate","1","1",0.856,1,-0.155484902840395,29,55,5,6,58.8541666666667,2.747
"623","5bbbdca68f3bd70001e713ef","dogma","three_way_cognate","1","0",1.2864,0,0.251847619442565,29,55,5,6,58.8541666666667,1.38
"624","5bbbdca68f3bd70001e713ef","golla","pseudoword","0","0",1.4007,1,0.336972111662864,29,55,5,6,58.8541666666667,NA
"625","5bbbdca68f3bd70001e713ef","horror","three_way_cognate","1","0",1.1198,0,0.113150097932656,29,55,5,6,58.8541666666667,2.658
"626","5bbbdca68f3bd70001e713ef","collar","two_way_cognate","1","0",1.2529,0,0.22546086426937,29,55,5,6,58.8541666666667,2.869
"627","5bbbdca68f3bd70001e713ef","pitis","pseudoword","0","0",0.9226,1,-0.0805595078584169,29,55,5,6,58.8541666666667,NA
"628","5bbbdca68f3bd70001e713ef","aljizo","pseudoword","0","0",1.1881,1,0.172355392482105,29,55,5,6,58.8541666666667,NA
"629","5bbbdca68f3bd70001e713ef","cuenco","non_cognate","1","1",0.8708,1,-0.138342949621745,29,55,5,6,58.8541666666667,1.23
"630","5bbbdca68f3bd70001e713ef","cuenco","non_cognate","1","1",0.8708,1,-0.138342949621745,29,55,5,6,58.8541666666667,1.23
"631","5bbbdca68f3bd70001e713ef","viable","two_way_cognate","1","0",1.1416,0,0.13243078718049,29,55,5,6,58.8541666666667,2.079
"632","5bbbdca68f3bd70001e713ef","color","two_way_cognate","1","0",0.9882,0,-0.0118701725704874,29,55,5,6,58.8541666666667,3.442
"633","5bbbdca68f3bd70001e713ef","chat","three_way_cognate","1","0",1.7187,0,0.541568191100505,29,55,5,6,58.8541666666667,1.845
"634","5bbbdca68f3bd70001e713ef","regalo","non_cognate","1","1",0.8203,1,-0.198085151973433,29,55,5,6,58.8541666666667,3.597
"635","5bbbdca68f3bd70001e713ef","plago","pseudoword","0","1",0.9572,0,-0.0437429229479187,29,55,5,6,58.8541666666667,NA
"636","5bbbdca68f3bd70001e713ef","conso","pseudoword","0","0",1.303,1,0.264669298142708,29,55,5,6,58.8541666666667,NA
"637","5bbbdca68f3bd70001e713ef","total","two_way_cognate","1","1",1.0869,1,0.0833296075870042,29,55,5,6,58.8541666666667,3.311
"638","5bbbdca68f3bd70001e713ef","laras","pseudoword","0","0",1.3891,1,0.328656055421207,29,55,5,6,58.8541666666667,NA
"639","5bbbdca68f3bd70001e713ef","altar","three_way_cognate","1","1",0.9578,1,-0.0431162910736281,29,55,5,6,58.8541666666667,2.529
"640","5bbbdca68f3bd70001e713ef","portal","three_way_cognate","1","0",1.8848,0,0.633821714475131,29,55,5,6,58.8541666666667,2.657
"641","5bbbdca68f3bd70001e713ef","arane","pseudoword","0","0",1.0908,1,0.0869113719892964,29,55,5,6,58.8541666666667,NA
"642","5bbbdca68f3bd70001e713ef","plural","three_way_cognate","1","1",2.1509,1,0.76588635920025,29,55,5,6,58.8541666666667,1.881
"643","5bbbdca68f3bd70001e713ef","losco","pseudoword","0","1",1.2015,0,0.183570776194387,29,55,5,6,58.8541666666667,NA
"644","5bbbdca68f3bd70001e713ef","casual","two_way_cognate","1","0",0.9691,0,-0.0313874732416327,29,55,5,6,58.8541666666667,2.272
"645","5bbbdca68f3bd70001e713ef","vinzó","pseudoword","0","0",1.4719,1,0.386554083216404,29,55,5,6,58.8541666666667,NA
"646","5bbbdca68f3bd70001e713ef","listo","non_cognate","1","1",1.9854,1,0.685820405173484,29,55,5,6,58.8541666666667,4.03
"647","5bbbdca68f3bd70001e713ef","listo","non_cognate","1","1",1.9854,1,0.685820405173484,29,55,5,6,58.8541666666667,4.03
"648","5bbbdca68f3bd70001e713ef","trauma","three_way_cognate","1","1",2.2037,1,0.790137765873574,29,55,5,6,58.8541666666667,2.59
"649","5bbbdca68f3bd70001e713ef","ceme","pseudoword","0","0",0.8511,1,-0.161225648499222,29,55,5,6,58.8541666666667,NA
"650","5bbbdca68f3bd70001e713ef","lobe","pseudoword","0","0",1.1642,1,0.152034155855498,29,55,5,6,58.8541666666667,NA
"651","5bbbdca68f3bd70001e713ef","feo","non_cognate","1","1",1.0722,1,0.0697126124113003,29,55,5,6,58.8541666666667,3.16
"652","5bbbdca68f3bd70001e713ef","aleta","non_cognate","1","1",1.1481,1,0.138108402117629,29,55,5,6,58.8541666666667,1.699
"653","5bbbdca68f3bd70001e713ef","enigma","two_way_cognate","1","0",1.0979,0,0.0933992642585498,29,55,5,6,58.8541666666667,2.114
"654","5bbbdca68f3bd70001e713ef","ozoso","pseudoword","0","1",1.2025,0,0.184402722997779,29,55,5,6,58.8541666666667,NA
"655","5bbbdca68f3bd70001e713ef","prías","pseudoword","0","1",1.2141,0,0.194003061567792,29,55,5,6,58.8541666666667,NA
"656","5bbbdca68f3bd70001e713ef","rizado","non_cognate","1","0",0.9741,0,-0.0262413112052271,29,55,5,6,58.8541666666667,1.69
"657","5bbbdca68f3bd70001e713ef","tradía","pseudoword","0","1",2.0817,0,0.733184867591476,29,55,5,6,58.8541666666667,NA
"658","5bbbdca68f3bd70001e713ef","caro","non_cognate","1","1",1.0016,1,0.00159872136369707,29,55,5,6,58.8541666666667,2.946
"659","5bbbdca68f3bd70001e713ef","hálito","non_cognate","1","1",2.0227,1,0.704433252576913,29,55,5,6,58.8541666666667,0.903
"660","5bbbdca68f3bd70001e713ef","kilo","three_way_cognate","1","1",2.0221,1,0.704136575359547,29,55,5,6,58.8541666666667,2.49
"661","5bbbdca68f3bd70001e713ef","monue","pseudoword","0","0",0.8403,1,-0.173996308047964,29,55,5,6,58.8541666666667,NA
"662","5bbbdca68f3bd70001e713ef","punta","non_cognate","1","1",1.1168,1,0.110467453025971,29,55,5,6,58.8541666666667,2.968
"663","5bbbdca68f3bd70001e713ef","mafia","three_way_cognate","1","0",2.1653,0,0.772558919984107,29,55,5,6,58.8541666666667,2.732
"664","5bbbdca68f3bd70001e713ef","venado","non_cognate","1","0",1.5157,0,0.415877378455474,29,55,5,6,58.8541666666667,2.127
"665","5bbbdca68f3bd70001e713ef","grigir","pseudoword","0","0",0.9028,1,-0.102254234038756,29,55,5,6,58.8541666666667,NA
"666","5bbbdca68f3bd70001e713ef","suave","non_cognate","1","0",1.1335,0,0.125310190965447,29,55,5,6,58.8541666666667,3.031
"667","5bbbdca68f3bd70001e713ef","colcha","non_cognate","1","1",0.9698,1,-0.0306654143108852,29,55,5,6,58.8541666666667,1.556
"668","5bbbdca68f3bd70001e713ef","densó","pseudoword","0","1",1.1484,0,0.138369669264772,29,55,5,6,58.8541666666667,NA
"669","5bbbdca68f3bd70001e713ef","editor","two_way_cognate","1","0",0.7994,0,-0.223893832704914,29,55,5,6,58.8541666666667,2.708
"670","5bbbdca68f3bd70001e713ef","enorme","non_cognate","1","1",1.2984,1,0.261132737218244,29,55,5,6,58.8541666666667,3.375
"671","5bbbdca68f3bd70001e713ef","hueas","pseudoword","0","1",1.7505,0,0.559901461412583,29,55,5,6,58.8541666666667,NA
"672","5bbbdca68f3bd70001e713ef","torso","two_way_cognate","1","1",1.0166,1,0.016463726030665,29,55,5,6,58.8541666666667,2.025
"673","5bbbdca68f3bd70001e713ef","mango","three_way_cognate","1","0",1.4396,0,0.364365297222739,29,55,5,6,58.8541666666667,2.336
"674","5bbbdca68f3bd70001e713ef","clan","three_way_cognate","1","0",1.3464,0,0.297434363894459,29,55,5,6,58.8541666666667,2.342
"675","5bbbdca68f3bd70001e713ef","chote","pseudoword","0","0",1.1333,1,0.125133730756766,29,55,5,6,58.8541666666667,NA
"676","5bbbdca68f3bd70001e713ef","medium","pseudoword","0","0",1.1131,1,0.107148915517043,29,55,5,6,58.8541666666667,NA
"677","5bbbdca68f3bd70001e713ef","fuar","pseudoword","0","1",2.4898,0,0.912202385965548,29,55,5,6,58.8541666666667,NA
"678","5bbbdca68f3bd70001e713ef","mortal","two_way_cognate","1","1",1.6412,1,0.495427681585894,29,55,5,6,58.8541666666667,2.902
"679","5bbbdca68f3bd70001e713ef","llzan","pseudoword","0","0",0.7845,1,-0.24270870680905,29,55,5,6,58.8541666666667,NA
"680","5bbbdca68f3bd70001e713ef","peniz","pseudoword","0","0",1.2825,1,0.248811298062788,29,55,5,6,58.8541666666667,NA
"681","5bbbdca68f3bd70001e713ef","barbs","pseudoword","0","0",1.2351,1,0.211151938461832,29,55,5,6,58.8541666666667,NA
"682","5bbbdca68f3bd70001e713ef","hurcos","pseudoword","0","1",1.2319,0,0.208557692985791,29,55,5,6,58.8541666666667,NA
"683","5bbbdca68f3bd70001e713ef","golf","three_way_cognate","1","0",1.0021,0,0.00209779808214612,29,55,5,6,58.8541666666667,3.129
"684","5bbbdca68f3bd70001e713ef","civas","pseudoword","0","1",1.0378,0,0.0371030879515023,29,55,5,6,58.8541666666667,NA
"685","5bbbdca68f3bd70001e713ef","rumor","two_way_cognate","1","0",1.3392,0,0.292072420753074,29,55,5,6,58.8541666666667,2.751
"686","5bbbdca68f3bd70001e713ef","halo","two_way_cognate","1","0",2.3824,0,0.868108382947608,29,55,5,6,58.8541666666667,1.934
"687","5bbbdca68f3bd70001e713ef","trugo","pseudoword","0","1",0.9328,0,-0.0695644633859092,29,55,5,6,58.8541666666667,NA
"688","5bbbdca68f3bd70001e713ef","épinas","pseudoword","0","1",0.9711,0,-0.0293258293818287,29,55,5,6,58.8541666666667,NA
"689","5bbbdca68f3bd70001e713ef","retina","three_way_cognate","1","0",1.0152,0,0.015085637418041,29,55,5,6,58.8541666666667,1.716
"690","5bbbdca68f3bd70001e713ef","lidena","pseudoword","0","0",1.0498,1,0.0485996698360624,29,55,5,6,58.8541666666667,NA
"691","5bbbdca68f3bd70001e713ef","pelvis","two_way_cognate","1","0",0.7871,0,-0.239399973833733,29,55,5,6,58.8541666666667,1.785
"692","5bbbdca68f3bd70001e713ef","pelvis","two_way_cognate","1","0",0.7871,0,-0.239399973833733,29,55,5,6,58.8541666666667,1.785
"693","5bbbdca68f3bd70001e713ef","parre","pseudoword","0","0",0.8174,1,-0.20162670785196,29,55,5,6,58.8541666666667,NA
"694","5bbbdca68f3bd70001e713ef","llevar","non_cognate","1","1",0.8476,1,-0.165346452587993,29,55,5,6,58.8541666666667,3.748
"695","5bbbdca68f3bd70001e713ef","ala","non_cognate","1","0",1.0086,0,0.00856323066048781,29,55,5,6,58.8541666666667,2.796
"696","5bbbdca68f3bd70001e713ef","ardor","two_way_cognate","1","0",0.9498,0,-0.0515038428671156,29,55,5,6,58.8541666666667,1.672
"697","5bbbdca68f3bd70001e713ef","molor","pseudoword","0","0",0.8035,1,-0.21877809380457,29,55,5,6,58.8541666666667,NA
"698","5bbbdca68f3bd70001e713ef","forro","non_cognate","1","0",1.6516,0,0.501744515029798,29,55,5,6,58.8541666666667,1.886
"699","5bbbdca68f3bd70001e713ef","patada","non_cognate","1","1",0.9827,1,-0.0174513936137559,29,55,5,6,58.8541666666667,2.715
"700","5bbbdca68f3bd70001e713ef","pupica","pseudoword","0","1",1.4731,0,0.387369023838756,29,55,5,6,58.8541666666667,NA
"701","5bbbdca68f3bd70001e713ef","listo","non_cognate","1","1",0.8814,1,-0.12624372657425,29,55,5,6,58.8541666666667,4.03
"702","5bbbdca68f3bd70001e713ef","listo","non_cognate","1","1",0.8814,1,-0.12624372657425,29,55,5,6,58.8541666666667,4.03
"703","5bbbdca68f3bd70001e713ef","gripar","pseudoword","0","1",1.1649,0,0.152635246423594,29,55,5,6,58.8541666666667,NA
"704","5bbbdca68f3bd70001e713ef","clamor","two_way_cognate","1","0",1.0389,0,0.0381624610943489,29,55,5,6,58.8541666666667,1.38
"705","5bbbdca68f3bd70001e713ef","cengo","pseudoword","0","0",1.2814,1,0.247953230222784,29,55,5,6,58.8541666666667,NA
"706","5bbbdca68f3bd70001e713ef","equipo","non_cognate","1","1",2.6513,1,0.975050085747686,29,55,5,6,58.8541666666667,4.056
"707","5bbbdca68f3bd70001e713ef","aura","three_way_cognate","1","0",1.7554,0,0.56269675117588,29,55,5,6,58.8541666666667,2.009
"708","5bbbdca68f3bd70001e713ef","cricó","pseudoword","0","1",1.1715,0,0.158284978965713,29,55,5,6,58.8541666666667,NA
"709","5bbbdca68f3bd70001e713ef","panté","pseudoword","0","0",1.0725,1,0.069992371820035,29,55,5,6,58.8541666666667,NA
"710","5bbbdca68f3bd70001e713ef","nasce","pseudoword","0","0",0.8313,1,-0.184764538445095,29,55,5,6,58.8541666666667,NA
"711","5bbbdca68f3bd70001e713ef","tapón","non_cognate","1","0",1.2822,0,0.24857735257102,29,55,5,6,58.8541666666667,1.785
"712","5bbbdca68f3bd70001e713ef","llamar","non_cognate","1","1",0.9982,1,-0.00180162194662821,29,55,5,6,58.8541666666667,3.85
"713","5bbbdca68f3bd70001e713ef","mauja","pseudoword","0","0",1.0406,1,0.0397974698740661,29,55,5,6,58.8541666666667,NA
"714","5bbbdca68f3bd70001e713ef","hotel","three_way_cognate","1","0",1.7674,0,0.569509540101767,29,55,5,6,58.8541666666667,3.66
"715","5bbbdca68f3bd70001e713ef","jauda","pseudoword","0","0",0.9039,1,-0.101036544177772,29,55,5,6,58.8541666666667,NA
"716","5bbbdca68f3bd70001e713ef","honor","two_way_cognate","1","0",0.7984,0,-0.225145553984883,29,55,5,6,58.8541666666667,3.515
"717","5bbbdca68f3bd70001e713ef","tecia","pseudoword","0","1",0.7541,0,-0.282230293773536,29,55,5,6,58.8541666666667,NA
"718","5bbbdca68f3bd70001e713ef","fiscal","two_way_cognate","1","1",1.2313,1,0.208070521816689,29,55,5,6,58.8541666666667,3.2
"719","5bbbdca68f3bd70001e713ef","prave","pseudoword","0","0",2.3492,1,0.854074844666227,29,55,5,6,58.8541666666667,NA
"720","5bbbdca68f3bd70001e713ef","asumie","pseudoword","0","0",1.0447,1,0.0437297628613252,29,55,5,6,58.8541666666667,NA
"721","5bbbdca68f3bd70001e713ef","disco","three_way_cognate","1","0",2.0232,0,0.704680416373618,29,55,5,6,58.8541666666667,3.282
"722","5bbbdca68f3bd70001e713ef","babrá","pseudoword","0","1",1.0983,0,0.0937635298121632,29,55,5,6,58.8541666666667,NA
"723","5bbbdca68f3bd70001e713ef","suelo","non_cognate","1","1",1.0977,1,0.0932170817111337,29,55,5,6,58.8541666666667,3.503
"724","5bbbdca68f3bd70001e713ef","nocó","pseudoword","0","1",1.5698,0,0.450948222710576,29,55,5,6,58.8541666666667,NA
"725","5bbbdca68f3bd70001e713ef","virios","pseudoword","0","0",1.0811,1,0.0779790413165886,29,55,5,6,58.8541666666667,NA
"726","5bbbdca68f3bd70001e713ef","tobre","pseudoword","0","1",1.1651,0,0.152806920243758,29,55,5,6,58.8541666666667,NA
"727","5bbbdca68f3bd70001e713ef","maldad","non_cognate","1","0",1.2633,0,0.233727344853855,29,55,5,6,58.8541666666667,2.656
"728","5bbbdca68f3bd70001e713ef","flecha","non_cognate","1","0",1.583,0,0.459321780898875,29,55,5,6,58.8541666666667,2.458
"729","5bbbdca68f3bd70001e713ef","aurora","two_way_cognate","1","1",1.7488,1,0.558929838440137,29,55,5,6,58.8541666666667,2.17
"730","5bbbdca68f3bd70001e713ef","drama","three_way_cognate","1","0",1.3643,0,0.310641476586691,29,55,5,6,58.8541666666667,2.736
"731","5bbbdca68f3bd70001e713ef","gravés","pseudoword","0","1",0.9474,0,-0.0540338884924856,29,55,5,6,58.8541666666667,NA
"732","5bbbdca68f3bd70001e713ef","diroco","pseudoword","0","0",1.9658,1,0.675899287150392,29,55,5,6,58.8541666666667,NA
"733","5bbbdca68f3bd70001e713ef","edioso","pseudoword","0","1",1.7193,0,0.541917231243664,29,55,5,6,58.8541666666667,NA
"734","5bbbdca68f3bd70001e713ef","puñal","non_cognate","1","0",1.0404,0,0.0396052545923594,29,55,5,6,58.8541666666667,1.756
"735","5bbbdca68f3bd70001e713ef","cuenco","non_cognate","1","1",1.1907,1,0.174541369474992,29,55,5,6,58.8541666666667,1.23
"736","5bbbdca68f3bd70001e713ef","cuenco","non_cognate","1","1",1.1907,1,0.174541369474992,29,55,5,6,58.8541666666667,1.23
"737","5bbbdca68f3bd70001e713ef","piano","two_way_cognate","1","0",1.1571,0,0.145916874900155,29,55,5,6,58.8541666666667,2.951
"738","5bbbdca68f3bd70001e713ef","boñaz","pseudoword","0","0",1.3967,1,0.334112311329589,29,55,5,6,58.8541666666667,NA
"739","5bbbdca68f3bd70001e713ef","mibro","pseudoword","0","0",0.8489,1,-0.163813885238215,29,55,5,6,58.8541666666667,NA
"740","5bbbdca68f3bd70001e713ef","siglo","non_cognate","1","0",1.6151,0,0.47939687426233,29,55,5,6,58.8541666666667,3.092
"741","5bbbdca68f3bd70001e713ef","vigor","two_way_cognate","1","0",1.2508,0,0.223783346601549,29,55,5,6,58.8541666666667,1.785
"742","5bbbdca68f3bd70001e713ef","pelvis","two_way_cognate","1","0",0.7852,0,-0.241816816579831,29,55,5,6,58.8541666666667,1.785
"743","5bbbdca68f3bd70001e713ef","pelvis","two_way_cognate","1","0",0.7852,0,-0.241816816579831,29,55,5,6,58.8541666666667,1.785
"744","5bbbdca68f3bd70001e713ef","anfia","pseudoword","0","0",1.7505,1,0.559901461412583,29,55,5,6,58.8541666666667,NA
"745","5bbbdca68f3bd70001e713ef","dobbo","pseudoword","0","0",0.815,1,-0.204567165741274,29,55,5,6,58.8541666666667,NA
"746","5bbbdca68f3bd70001e713ef","rostro","non_cognate","1","0",1.1805,0,0.165938077543431,29,55,5,6,58.8541666666667,3.222
"747","5bbbdca68f3bd70001e713ef","aduana","non_cognate","1","1",0.9985,1,-0.00150112612626709,29,55,5,6,58.8541666666667,2.23
"748","5bbbdca68f3bd70001e713ef","martir","pseudoword","0","0",1.5499,1,0.438190412720868,29,55,5,6,58.8541666666667,NA
"749","5bbbdca68f3bd70001e713ef","pegar","non_cognate","1","1",1.0943,1,0.0901148894422603,29,55,5,6,58.8541666666667,2.517
"750","5bbbdca68f3bd70001e713ef","rúo","pseudoword","0","1",3.0504,0,1.11527272956122,29,55,5,6,58.8541666666667,NA
"751","5bbbdca68f3bd70001e713ef","dibrea","pseudoword","0","0",1.1143,1,0.108226405070871,29,55,5,6,58.8541666666667,NA
"752","5bbbdca68f3bd70001e713ef","chorde","pseudoword","0","0",1.2828,1,0.249045188836863,29,55,5,6,58.8541666666667,NA
"753","5bbbdca68f3bd70001e713ef","bugor","pseudoword","0","0",1.1647,1,0.152463543126469,29,55,5,6,58.8541666666667,NA
"754","5bbbdca68f3bd70001e713ef","brillo","non_cognate","1","1",0.9571,1,-0.0438473997802763,29,55,5,6,58.8541666666667,2.517
"755","5bbbdca68f3bd70001e713ef","sacar","non_cognate","1","1",1.0232,1,0.022934971282496,29,55,5,6,58.8541666666667,3.536
"756","5bbbdca68f3bd70001e713ef","actor","two_way_cognate","1","0",1.0973,0,0.0928526170146163,29,55,5,6,58.8541666666667,3.091
"757","5bbbdca68f3bd70001e713ef","próces","pseudoword","0","0",1.9315,1,0.658296903124199,29,55,5,6,58.8541666666667,NA
"758","5bbbdca68f3bd70001e713ef","sasos","pseudoword","0","1",1.2317,0,0.208395328965302,29,55,5,6,58.8541666666667,NA
"759","5bbbdca68f3bd70001e713ef","dogue","pseudoword","0","0",1.2026,1,0.184485879623331,29,55,5,6,58.8541666666667,NA
"760","5bbbdca68f3bd70001e713ef","entodo","pseudoword","0","0",1.7722,1,0.572221712631065,29,55,5,6,58.8541666666667,NA
"761","5bbbdca68f3bd70001e713ef","suelet","pseudoword","0","0",1.1151,1,0.108944086989179,29,55,5,6,58.8541666666667,NA
"762","5bbbdca68f3bd70001e713ef","cobén","pseudoword","0","0",0.9642,1,-0.0364565370106152,29,55,5,6,58.8541666666667,NA
"763","5bbbdca68f3bd70001e713ef","desaro","pseudoword","0","1",0.8833,0,-0.124090385231051,29,55,5,6,58.8541666666667,NA
"764","5bbbdca68f3bd70001e713ef","muñeca","non_cognate","1","1",1.1532,1,0.14254068678211,29,55,5,6,58.8541666666667,3.093
"765","5bbbdca68f3bd70001e713ef","sierra","non_cognate","1","1",0.8853,1,-0.121828708365134,29,55,5,6,58.8541666666667,2.658
"766","5bbbdca68f3bd70001e713ef","diebro","pseudoword","0","0",1.7646,1,0.567924035805867,29,55,5,6,58.8541666666667,NA
"767","5bbbdca68f3bd70001e713ef","amplir","pseudoword","0","1",0.8309,0,-0.185245828311201,29,55,5,6,58.8541666666667,NA
"768","5bbbdca68f3bd70001e713ef","dubo","pseudoword","0","0",0.8467,1,-0.166408838333906,29,55,5,6,58.8541666666667,NA
"769","5bbbdca68f3bd70001e713ef","pabea","pseudoword","0","0",1.1678,1,0.1551216368673,29,55,5,6,58.8541666666667,NA
"770","5bbbdca68f3bd70001e713ef","nocita","pseudoword","0","1",3.1994,0,1.16296329222536,29,55,5,6,58.8541666666667,NA
"771","5bbbdca68f3bd70001e713ef","kugis","pseudoword","0","0",0.7558,1,-0.279978488066748,29,55,5,6,58.8541666666667,NA
"772","5bbbdca68f3bd70001e713ef","flora","three_way_cognate","1","0",1.235,0,0.211070970079941,29,55,5,6,58.8541666666667,2.09
"773","5bbbdca68f3bd70001e713ef","teñir","non_cognate","1","0",0.8763,0,-0.132046780920332,29,55,5,6,58.8541666666667,1.146
"774","5bbbdca68f3bd70001e713ef","alla","pseudoword","0","1",1.2041,0,0.185732399916036,29,55,5,6,58.8541666666667,NA
"775","5bbbdca68f3bd70001e713ef","test","three_way_cognate","1","0",0.7478,0,-0.290619716439124,29,55,5,6,58.8541666666667,2.652
"776","5bbbdca68f3bd70001e713ef","gotro","pseudoword","0","0",1.9345,1,0.659848895158431,29,55,5,6,58.8541666666667,NA
"777","5bbbdca68f3bd70001e713ef","samón","pseudoword","0","1",1.7397,0,0.553712684568368,29,55,5,6,58.8541666666667,NA
"778","5bbbdca68f3bd70001e713ef","blando","non_cognate","1","1",1.0878,1,0.0841573080067234,29,55,5,6,58.8541666666667,2.292
"779","5bbbdca68f3bd70001e713ef","fomeó","pseudoword","0","1",0.7451,0,-0.294236841422455,29,55,5,6,58.8541666666667,NA
"780","5bbbdca68f3bd70001e713ef","percha","non_cognate","1","0",1.804,0,0.590006421640432,29,55,5,6,58.8541666666667,1.633
"781","5bbbdca68f3bd70001e713ef","inichó","pseudoword","0","1",1.4708,0,0.38580647044498,29,55,5,6,58.8541666666667,NA
"782","5bbbdca68f3bd70001e713ef","frasis","pseudoword","0","0",1.215,1,0.194744076792512,29,55,5,6,58.8541666666667,NA
"783","5bbbdca68f3bd70001e713ef","coyo","pseudoword","0","0",0.9521,1,-0.0490852076904914,29,55,5,6,58.8541666666667,NA
"784","5bbbdca68f3bd70001e713ef","pasta","two_way_cognate","1","0",0.9689,0,-0.0315938715911786,29,55,5,6,58.8541666666667,2.763
"785","5bbbdca68f3bd70001e713ef","vueras","pseudoword","0","1",0.8807,0,-0.127038233170723,29,55,5,6,58.8541666666667,NA
"786","5bbbdca68f3bd70001e713ef","bará","pseudoword","0","1",0.6368,0,-0.451299644451964,29,55,5,6,58.8541666666667,NA
"787","5bbbdca68f3bd70001e713ef","harvé","pseudoword","0","0",0.984,1,-0.0161293819298836,29,55,5,6,58.8541666666667,NA
"788","5bbbdca68f3bd70001e713ef","emén","pseudoword","0","0",0.9021,1,-0.103029900319544,29,55,5,6,58.8541666666667,NA
"789","5bbbdca68f3bd70001e713ef","tiza","non_cognate","1","0",1.5029,0,0.407396574957912,29,55,5,6,58.8541666666667,2.158
"790","5bbbdca68f3bd70001e713ef","guerra","non_cognate","1","1",1.6682,1,0.511745200825374,29,55,5,6,58.8541666666667,3.948
"791","5bbbdca68f3bd70001e713ef","pelí","pseudoword","0","1",1.9647,0,0.67533956190998,29,55,5,6,58.8541666666667,NA
"792","5bbbdca68f3bd70001e713ef","tumor","three_way_cognate","1","0",0.7534,0,-0.283158983724196,29,55,5,6,58.8541666666667,2.767
"793","5c39afacf179bd0001c8756a","trauma","three_way_cognate","1","1",3.1741,1,1.15502412759405,24,92,22,15,72.9166666666667,2.59
"794","5c39afacf179bd0001c8756a","llamar","non_cognate","1","1",1.1123,1,0.106429943615847,24,92,22,15,72.9166666666667,3.85
"795","5c39afacf179bd0001c8756a","panté","pseudoword","0","0",2.4196,1,0.883602237250622,24,92,22,15,72.9166666666667,NA
"796","5c39afacf179bd0001c8756a","torta","non_cognate","1","1",1.3371,1,0.290503089638483,24,92,22,15,72.9166666666667,2.851
"797","5c39afacf179bd0001c8756a","cobén","pseudoword","0","0",1.1137,1,0.107687805416917,24,92,22,15,72.9166666666667,NA
"798","5c39afacf179bd0001c8756a","vueras","pseudoword","0","0",1.6091,1,0.475675016482967,24,92,22,15,72.9166666666667,NA
"799","5c39afacf179bd0001c8756a","tumor","three_way_cognate","1","1",1.2254,1,0.203267321309417,24,92,22,15,72.9166666666667,2.767
"800","5c39afacf179bd0001c8756a","tobre","pseudoword","0","0",1.1619,1,0.150056596206679,24,92,22,15,72.9166666666667,NA
"801","5c39afacf179bd0001c8756a","losco","pseudoword","0","0",1.0761,1,0.0733433942242096,24,92,22,15,72.9166666666667,NA
"802","5c39afacf179bd0001c8756a","enigma","two_way_cognate","1","0",1.0486,0,0.0474559411562953,24,92,22,15,72.9166666666667,2.114
"803","5c39afacf179bd0001c8756a","dubo","pseudoword","0","0",0.6097,1,-0.494788246068367,24,92,22,15,72.9166666666667,NA
"804","5c39afacf179bd0001c8756a","jauda","pseudoword","0","0",0.9379,1,-0.0641119454672443,24,92,22,15,72.9166666666667,NA
"805","5c39afacf179bd0001c8756a","diebro","pseudoword","0","0",0.6241,1,-0.47144466704214,24,92,22,15,72.9166666666667,NA
"806","5c39afacf179bd0001c8756a","rizate","pseudoword","0","0",0.7295,1,-0.315395911019297,24,92,22,15,72.9166666666667,NA
"807","5c39afacf179bd0001c8756a","caro","non_cognate","1","1",0.7733,1,-0.257088207367147,24,92,22,15,72.9166666666667,2.946
"808","5c39afacf179bd0001c8756a","tradía","pseudoword","0","0",1.6044,1,0.472749854913761,24,92,22,15,72.9166666666667,NA
"809","5c39afacf179bd0001c8756a","teñir","non_cognate","1","0",0.8552,0,-0.156419919271302,24,92,22,15,72.9166666666667,1.146
"810","5c39afacf179bd0001c8756a","virios","pseudoword","0","0",0.8273,1,-0.189587892786,24,92,22,15,72.9166666666667,NA
"811","5c39afacf179bd0001c8756a","mafia","three_way_cognate","1","1",0.7534,1,-0.283158983724196,24,92,22,15,72.9166666666667,2.732
"812","5c39afacf179bd0001c8756a","arane","pseudoword","0","0",0.9748,1,-0.0255229572310859,24,92,22,15,72.9166666666667,NA
"813","5c39afacf179bd0001c8756a","aljizo","pseudoword","0","0",0.8054,1,-0.216416230564783,24,92,22,15,72.9166666666667,NA
"814","5c39afacf179bd0001c8756a","albino","three_way_cognate","1","1",1.4007,1,0.336972111662864,24,92,22,15,72.9166666666667,1.477
"815","5c39afacf179bd0001c8756a","hilo","non_cognate","1","0",0.8808,0,-0.126924693573667,24,92,22,15,72.9166666666667,2.589
"816","5c39afacf179bd0001c8756a","aurora","two_way_cognate","1","1",1.2163,1,0.195813463642254,24,92,22,15,72.9166666666667,2.17
"817","5c39afacf179bd0001c8756a","colcha","non_cognate","1","0",0.8711,0,-0.137998498157291,24,92,22,15,72.9166666666667,1.556
"818","5c39afacf179bd0001c8756a","morrá","pseudoword","0","0",0.6639,1,-0.409623743257023,24,92,22,15,72.9166666666667,NA
"819","5c39afacf179bd0001c8756a","cuenco","non_cognate","1","0",0.929,0,-0.0736465401682985,24,92,22,15,72.9166666666667,1.23
