"","participant","word","type","correct_reponse","key_resp_lextale_trial.keys","key_resp_lextale_trial.rt","group","is_correct","log_rt","non_cognate","pseudoword","ps_lextale_score"
"1","5a06ebf2c259f300017656ee","medium","pseudoword","0","1",1.888,"L3_group",0,0.635518067723309,32,21,44.2708333333333
"2","5a06ebf2c259f300017656ee","cuenco","non_cognate","1","1",1.535,"L3_group",1,0.42853038103916,32,21,44.2708333333333
"3","5a06ebf2c259f300017656ee","patada","non_cognate","1","1",1.223,"L3_group",1,0.201306856705035,32,21,44.2708333333333
"4","5a06ebf2c259f300017656ee","nomata","pseudoword","0","0",1.816,"L3_group",1,0.596636280179102,32,21,44.2708333333333
"5","5a06ebf2c259f300017656ee","tiza","non_cognate","1","1",0.832,"L3_group",1,-0.183922838160928,32,21,44.2708333333333
"6","5a06ebf2c259f300017656ee","bugor","pseudoword","0","0",0.668,"L3_group",1,-0.403467105445491,32,21,44.2708333333333
"7","5a06ebf2c259f300017656ee","entodo","pseudoword","0","1",0.527,"L3_group",0,-0.640554730440775,32,21,44.2708333333333
"8","5a06ebf2c259f300017656ee","kugis","pseudoword","0","1",0.651,"L3_group",0,-0.429245636773568,32,21,44.2708333333333
"9","5a06ebf2c259f300017656ee","altar","three_way_cognate","1","1",0.567,"L3_group",1,-0.567395975254385,32,21,44.2708333333333
"10","5a06ebf2c259f300017656ee","listo","non_cognate","1","1",0.624,"L3_group",1,-0.471604910612709,32,21,44.2708333333333
"11","5a06ebf2c259f300017656ee","torta","non_cognate","1","1",0.78,"L3_group",1,-0.2484613592985,32,21,44.2708333333333
"12","5a06ebf2c259f300017656ee","nasce","pseudoword","0","0",0.65,"L3_group",1,-0.430782916092454,32,21,44.2708333333333
"13","5a06ebf2c259f300017656ee","chat","three_way_cognate","1","0",0.663,"L3_group",0,-0.410980288796275,32,21,44.2708333333333
"14","5a06ebf2c259f300017656ee","vinzó","pseudoword","0","1",0.716,"L3_group",0,-0.334075112021491,32,21,44.2708333333333
"15","5a06ebf2c259f300017656ee","ánimo","non_cognate","1","1",0.632,"L3_group",1,-0.45886588483528,32,21,44.2708333333333
"16","5a06ebf2c259f300017656ee","tumor","three_way_cognate","1","1",0.644,"L3_group",1,-0.440056552877783,32,21,44.2708333333333
"17","5a06ebf2c259f300017656ee","suelo","non_cognate","1","0",0.62,"L3_group",0,-0.478035800943,32,21,44.2708333333333
"18","5a06ebf2c259f300017656ee","pabea","pseudoword","0","1",0.918,"L3_group",0,-0.0855578883616465,32,21,44.2708333333333
"19","5a06ebf2c259f300017656ee","retina","three_way_cognate","1","1",0.505,"L3_group",1,-0.683196849706777,32,21,44.2708333333333
"20","5a06ebf2c259f300017656ee","forro","non_cognate","1","1",0.709,"L3_group",1,-0.34389975245001,32,21,44.2708333333333
"21","5a06ebf2c259f300017656ee","rostro","non_cognate","1","1",1.234,"L3_group",1,0.210260925483196,32,21,44.2708333333333
"22","5a06ebf2c259f300017656ee","trcia","pseudoword","0","1",0.941,"L3_group",0,-0.0608121393967575,32,21,44.2708333333333
"23","5a06ebf2c259f300017656ee","golf","three_way_cognate","1","1",1.229,"L3_group",1,0.206200830583898,32,21,44.2708333333333
"24","5a06ebf2c259f300017656ee","arane","pseudoword","0","1",0.722,"L3_group",0,-0.325730140089311,32,21,44.2708333333333
"25","5a06ebf2c259f300017656ee","plan","three_way_cognate","1","1",1.381,"L3_group",1,0.322807874427155,32,21,44.2708333333333
"26","5a06ebf2c259f300017656ee","grigir","pseudoword","0","1",1.318,"L3_group",0,0.276115436080316,32,21,44.2708333333333
"27","5a06ebf2c259f300017656ee","vueras","pseudoword","0","1",1.211,"L3_group",0,0.191446464570955,32,21,44.2708333333333
"28","5a06ebf2c259f300017656ee","flora","three_way_cognate","1","0",0.886,"L3_group",0,-0.121038328377056,32,21,44.2708333333333
"29","5a06ebf2c259f300017656ee","gino","pseudoword","0","1",1.078,"L3_group",0,0.0751074724868055,32,21,44.2708333333333
"30","5a06ebf2c259f300017656ee","rizado","non_cognate","1","1",1.717,"L3_group",1,0.540578581915338,32,21,44.2708333333333
"31","5a06ebf2c259f300017656ee","trauma","three_way_cognate","1","1",0.855,"L3_group",1,-0.156653810045377,32,21,44.2708333333333
"32","5a06ebf2c259f300017656ee","samón","pseudoword","0","1",0.799,"L3_group",0,-0.224394333215862,32,21,44.2708333333333
"33","5a06ebf2c259f300017656ee","dibrea","pseudoword","0","0",0.831,"L3_group",1,-0.185125484126689,32,21,44.2708333333333
"34","5a06ebf2c259f300017656ee","fuar","pseudoword","0","1",1.505,"L3_group",0,0.408792898200839,32,21,44.2708333333333
"35","5a06ebf2c259f300017656ee","gripar","pseudoword","0","0",0.978,"L3_group",1,-0.0222456089473197,32,21,44.2708333333333
"36","5a06ebf2c259f300017656ee","caro","non_cognate","1","1",1.43,"L3_group",1,0.357674444271816,32,21,44.2708333333333
"37","5a06ebf2c259f300017656ee","esís","pseudoword","0","1",0.858,"L3_group",0,-0.153151179494175,32,21,44.2708333333333
"38","5a06ebf2c259f300017656ee","feo","non_cognate","1","1",0.825,"L3_group",1,-0.192371892647456,32,21,44.2708333333333
"39","5a06ebf2c259f300017656ee","parre","pseudoword","0","1",0.846,"L3_group",0,-0.167235919375914,32,21,44.2708333333333
"40","5a06ebf2c259f300017656ee","guerra","non_cognate","1","1",0.891,"L3_group",1,-0.115410851511328,32,21,44.2708333333333
"41","5a06ebf2c259f300017656ee","épinas","pseudoword","0","1",1.009,"L3_group",0,0.0089597413714718,32,21,44.2708333333333
"42","5a06ebf2c259f300017656ee","animal","two_way_cognate","1","1",0.933,"L3_group",1,-0.0693500781347932,32,21,44.2708333333333
"43","5a06ebf2c259f300017656ee","sierra","non_cognate","1","0",0.81,"L3_group",0,-0.210721031315653,32,21,44.2708333333333
"44","5a06ebf2c259f300017656ee","enorme","non_cognate","1","0",0.716,"L3_group",0,-0.334075112021491,32,21,44.2708333333333
"45","5a06ebf2c259f300017656ee","peniz","pseudoword","0","1",1.002,"L3_group",0,0.00199800266267306,32,21,44.2708333333333
"46","5a06ebf2c259f300017656ee","prave","pseudoword","0","1",0.938,"L3_group",0,-0.0640053299759124,32,21,44.2708333333333
"47","5a06ebf2c259f300017656ee","conso","pseudoword","0","1",0.641,"L3_group",0,-0.444725822061467,32,21,44.2708333333333
"48","5a06ebf2c259f300017656ee","rúo","pseudoword","0","0",0.863,"L3_group",1,-0.147340587898709,32,21,44.2708333333333
"49","5a06ebf2c259f300017656ee","puñal","non_cognate","1","1",1.678,"L3_group",1,0.517602608045014,32,21,44.2708333333333
"50","5a06ebf2c259f300017656ee","honor","two_way_cognate","1","1",1.01,"L3_group",1,0.00995033085316809,32,21,44.2708333333333
"51","5a06ebf2c259f300017656ee","fiscal","two_way_cognate","1","1",0.851,"L3_group",1,-0.161343150408763,32,21,44.2708333333333
"52","5a06ebf2c259f300017656ee","test","three_way_cognate","1","1",0.552,"L3_group",1,-0.594207232705042,32,21,44.2708333333333
"53","5a06ebf2c259f300017656ee","desaro","pseudoword","0","1",1.059,"L3_group",0,0.0573250666192694,32,21,44.2708333333333
"54","5a06ebf2c259f300017656ee","anfia","pseudoword","0","1",1.326,"L3_group",0,0.282166891763671,32,21,44.2708333333333
"55","5a06ebf2c259f300017656ee","vien","pseudoword","0","1",0.908,"L3_group",0,-0.0965109003808437,32,21,44.2708333333333
"56","5a06ebf2c259f300017656ee","harvé","pseudoword","0","1",0.946,"L3_group",0,-0.0555127099302588,32,21,44.2708333333333
"57","5a06ebf2c259f300017656ee","mibro","pseudoword","0","1",0.908,"L3_group",0,-0.0965109003808437,32,21,44.2708333333333
"58","5a06ebf2c259f300017656ee","mango","three_way_cognate","1","1",1.124,"L3_group",1,0.116893751471499,32,21,44.2708333333333
"59","5a06ebf2c259f300017656ee","cobén","pseudoword","0","0",0.65,"L3_group",1,-0.430782916092454,32,21,44.2708333333333
"60","5a06ebf2c259f300017656ee","equipo","non_cognate","1","0",0.862,"L3_group",0,-0.148500008318444,32,21,44.2708333333333
"61","5a06ebf2c259f300017656ee","mauja","pseudoword","0","0",1.209,"L3_group",1,0.189793571632656,32,21,44.2708333333333
"62","5a06ebf2c259f300017656ee","edioso","pseudoword","0","1",1.521,"L3_group",0,0.419368013277156,32,21,44.2708333333333
"63","5a06ebf2c259f300017656ee","torso","two_way_cognate","1","1",0.561,"L3_group",1,-0.578034373459441,32,21,44.2708333333333
"64","5a06ebf2c259f300017656ee","rumor","two_way_cognate","1","1",1.044,"L3_group",1,0.043059489460447,32,21,44.2708333333333
"65","5a06ebf2c259f300017656ee","losco","pseudoword","0","1",1.113,"L3_group",0,0.107059072293408,32,21,44.2708333333333
"66","5a06ebf2c259f300017656ee","rendir","non_cognate","1","1",0.978,"L3_group",1,-0.0222456089473197,32,21,44.2708333333333
"67","5a06ebf2c259f300017656ee","cuenco","non_cognate","1","1",0.975,"L3_group",1,-0.0253178079842899,32,21,44.2708333333333
"68","5a06ebf2c259f300017656ee","pelvis","two_way_cognate","1","0",1.327,"L3_group",0,0.28292075535007,32,21,44.2708333333333
"69","5a06ebf2c259f300017656ee","babrá","pseudoword","0","1",1.155,"L3_group",0,0.144100343973757,32,21,44.2708333333333
"70","5a06ebf2c259f300017656ee","hotel","three_way_cognate","1","1",0.931,"L3_group",1,-0.0714960017050699,32,21,44.2708333333333
"71","5a06ebf2c259f300017656ee","aduana","non_cognate","1","1",1.083,"L3_group",1,0.0797349680188535,32,21,44.2708333333333
"72","5a06ebf2c259f300017656ee","regalo","non_cognate","1","1",0.664,"L3_group",1,-0.409473129505703,32,21,44.2708333333333
"73","5a06ebf2c259f300017656ee","collar","two_way_cognate","1","1",1.549,"L3_group",1,0.437609561434732,32,21,44.2708333333333
"74","5a06ebf2c259f300017656ee","morrá","pseudoword","0","0",0.658,"L3_group",1,-0.41855034765682,32,21,44.2708333333333
"75","5a06ebf2c259f300017656ee","pelvis","two_way_cognate","1","1",0.859,"L3_group",1,-0.151986356997882,32,21,44.2708333333333
"76","5a06ebf2c259f300017656ee","pasta","two_way_cognate","1","1",0.824,"L3_group",1,-0.193584749072665,32,21,44.2708333333333
"77","5a06ebf2c259f300017656ee","pegar","non_cognate","1","1",0.839,"L3_group",1,-0.175544572514931,32,21,44.2708333333333
"78","5a06ebf2c259f300017656ee","lobe","pseudoword","0","1",0.664,"L3_group",0,-0.409473129505703,32,21,44.2708333333333
"79","5a06ebf2c259f300017656ee","vigor","two_way_cognate","1","0",0.823,"L3_group",0,-0.194799078305067,32,21,44.2708333333333
"80","5a06ebf2c259f300017656ee","aleta","non_cognate","1","1",0.673,"L3_group",1,-0.396009949337409,32,21,44.2708333333333
"81","5a06ebf2c259f300017656ee","extra","three_way_cognate","1","0",0.905,"L3_group",0,-0.0998203352822109,32,21,44.2708333333333
"82","5a06ebf2c259f300017656ee","teñir","non_cognate","1","0",0.823,"L3_group",0,-0.194799078305067,32,21,44.2708333333333
"83","5a06ebf2c259f300017656ee","halo","two_way_cognate","1","1",1.285,"L3_group",1,0.250758718347183,32,21,44.2708333333333
"84","5a06ebf2c259f300017656ee","enigma","two_way_cognate","1","1",0.697,"L3_group",1,-0.360969868221613,32,21,44.2708333333333
"85","5a06ebf2c259f300017656ee","barbs","pseudoword","0","1",1.196,"L3_group",0,0.17898265552844,32,21,44.2708333333333
"86","5a06ebf2c259f300017656ee","venado","non_cognate","1","0",0.986,"L3_group",0,-0.0140989243795016,32,21,44.2708333333333
"87","5a06ebf2c259f300017656ee","estulo","pseudoword","0","1",0.616,"L3_group",0,-0.484508315448617,32,21,44.2708333333333
"88","5a06ebf2c259f300017656ee","diroco","pseudoword","0","1",0.818,"L3_group",0,-0.20089294237939,32,21,44.2708333333333
"89","5a06ebf2c259f300017656ee","próces","pseudoword","0","1",1.075,"L3_group",0,0.0723206615796261,32,21,44.2708333333333
"90","5a06ebf2c259f300017656ee","civil","two_way_cognate","1","0",1.182,"L3_group",0,0.167207918983906,32,21,44.2708333333333
"91","5a06ebf2c259f300017656ee","llamar","non_cognate","1","1",1.014,"L3_group",1,0.0139029051689914,32,21,44.2708333333333
"92","5a06ebf2c259f300017656ee","mortal","two_way_cognate","1","0",0.836,"L3_group",0,-0.179126665897435,32,21,44.2708333333333
"93","5a06ebf2c259f300017656ee","colcha","non_cognate","1","1",1.244,"L3_group",1,0.218331994316988,32,21,44.2708333333333
"94","5a06ebf2c259f300017656ee","chote","pseudoword","0","1",0.97,"L3_group",0,-0.0304592074847086,32,21,44.2708333333333
"95","5a06ebf2c259f300017656ee","suelet","pseudoword","0","1",0.682,"L3_group",0,-0.382725621138675,32,21,44.2708333333333
"96","5a06ebf2c259f300017656ee","laras","pseudoword","0","0",0.976,"L3_group",1,-0.0242926925690446,32,21,44.2708333333333
"97","5a06ebf2c259f300017656ee","pupica","pseudoword","0","1",1.201,"L3_group",0,0.183154543097847,32,21,44.2708333333333
"98","5a06ebf2c259f300017656ee","nocita","pseudoword","0","1",1.143,"L3_group",0,0.133656384812674,32,21,44.2708333333333
"99","5a06ebf2c259f300017656ee","virios","pseudoword","0","1",0.83,"L3_group",0,-0.186329578191493,32,21,44.2708333333333
"100","5a06ebf2c259f300017656ee","seled","pseudoword","0","0",1.89,"L3_group",1,0.636576829071551,32,21,44.2708333333333
"101","5a06ebf2c259f300017656ee","clan","three_way_cognate","1","0",1.05,"L3_group",0,0.048790164169432,32,21,44.2708333333333
"102","5a06ebf2c259f300017656ee","muleta","non_cognate","1","1",1.317,"L3_group",1,0.275356422761144,32,21,44.2708333333333
"103","5a06ebf2c259f300017656ee","siglo","non_cognate","1","1",0.757,"L3_group",1,-0.278392025544688,32,21,44.2708333333333
"104","5a06ebf2c259f300017656ee","aurora","two_way_cognate","1","0",1.354,"L3_group",0,0.303063174490083,32,21,44.2708333333333
"105","5a06ebf2c259f300017656ee","cricó","pseudoword","0","0",1.464,"L3_group",1,0.38117241553912,32,21,44.2708333333333
"106","5a06ebf2c259f300017656ee","suave","non_cognate","1","0",1.925,"L3_group",0,0.654925967739748,32,21,44.2708333333333
"107","5a06ebf2c259f300017656ee","tobre","pseudoword","0","0",1.396,"L3_group",1,0.333611004340181,32,21,44.2708333333333
"108","5a06ebf2c259f300017656ee","panté","pseudoword","0","1",1.183,"L3_group",0,0.16805358499625,32,21,44.2708333333333
"109","5a06ebf2c259f300017656ee","gió","pseudoword","0","1",1.353,"L3_group",0,0.302324349188651,32,21,44.2708333333333
"110","5a06ebf2c259f300017656ee","hueas","pseudoword","0","1",1.257,"L3_group",0,0.22872792960811,32,21,44.2708333333333
"111","5a06ebf2c259f300017656ee","aura","three_way_cognate","1","1",1.048,"L3_group",1,0.0468835858988505,32,21,44.2708333333333
"112","5a06ebf2c259f300017656ee","albino","three_way_cognate","1","1",1.328,"L3_group",1,0.283674051054242,32,21,44.2708333333333
"113","5a06ebf2c259f300017656ee","emén","pseudoword","0","0",0.985,"L3_group",1,-0.0151136378100482,32,21,44.2708333333333
"114","5a06ebf2c259f300017656ee","llevar","non_cognate","1","1",0.701,"L3_group",1,-0.355247391947547,32,21,44.2708333333333
"115","5a06ebf2c259f300017656ee","martir","pseudoword","0","1",1.265,"L3_group",0,0.235072122179483,32,21,44.2708333333333
"116","5a06ebf2c259f300017656ee","dobbo","pseudoword","0","1",1.329,"L3_group",0,0.284426779731108,32,21,44.2708333333333
"117","5a06ebf2c259f300017656ee","jauda","pseudoword","0","1",0.892,"L3_group",0,-0.114289146402128,32,21,44.2708333333333
"118","5a06ebf2c259f300017656ee","viable","two_way_cognate","1","1",1.669,"L3_group",1,0.512224644679698,32,21,44.2708333333333
"119","5a06ebf2c259f300017656ee","inichó","pseudoword","0","1",1.892,"L3_group",0,0.637634470629686,32,21,44.2708333333333
"120","5a06ebf2c259f300017656ee","percha","non_cognate","1","0",0.968,"L3_group",0,-0.0325231917055601,32,21,44.2708333333333
"121","5a06ebf2c259f300017656ee","civas","pseudoword","0","1",0.801,"L3_group",0,-0.221894331913778,32,21,44.2708333333333
"122","5a06ebf2c259f300017656ee","diebro","pseudoword","0","1",0.972,"L3_group",0,-0.028399474521698,32,21,44.2708333333333
"123","5a06ebf2c259f300017656ee","listo","non_cognate","1","0",0.628,"L3_group",0,-0.465215112513938,32,21,44.2708333333333
"124","5a06ebf2c259f300017656ee","cengo","pseudoword","0","1",1.019,"L3_group",0,0.0188217542405877,32,21,44.2708333333333
"125","5a06ebf2c259f300017656ee","editor","two_way_cognate","1","0",0.86,"L3_group",0,-0.150822889734584,32,21,44.2708333333333
"126","5a06ebf2c259f300017656ee","molor","pseudoword","0","1",0.84,"L3_group",0,-0.174353387144778,32,21,44.2708333333333
"127","5a06ebf2c259f300017656ee","punta","non_cognate","1","0",0.885,"L3_group",0,-0.122167633974208,32,21,44.2708333333333
"128","5a06ebf2c259f300017656ee","huenos","pseudoword","0","1",1.026,"L3_group",0,0.0256677467485778,32,21,44.2708333333333
"129","5a06ebf2c259f300017656ee","asumie","pseudoword","0","1",0.866,"L3_group",0,-0.143870370419702,32,21,44.2708333333333
"130","5a06ebf2c259f300017656ee","sasos","pseudoword","0","1",0.973,"L3_group",0,-0.027371196796132,32,21,44.2708333333333
"131","5a06ebf2c259f300017656ee","ceme","pseudoword","0","1",1.497,"L3_group",0,0.403463105437491,32,21,44.2708333333333
"132","5a06ebf2c259f300017656ee","aviso","non_cognate","1","1",1.422,"L3_group",1,0.352064331381049,32,21,44.2708333333333
"133","5a06ebf2c259f300017656ee","ala","non_cognate","1","0",0.966,"L3_group",0,-0.0345914447696191,32,21,44.2708333333333
"134","5a06ebf2c259f300017656ee","hálito","non_cognate","1","1",1.117,"L3_group",1,0.110646520087064,32,21,44.2708333333333
"135","5a06ebf2c259f300017656ee","pico","non_cognate","1","0",0.956,"L3_group",0,-0.0449973659307358,32,21,44.2708333333333
"136","5a06ebf2c259f300017656ee","flecha","non_cognate","1","1",0.807,"L3_group",1,-0.214431610712188,32,21,44.2708333333333
"137","5a06ebf2c259f300017656ee","trugo","pseudoword","0","0",0.759,"L3_group",1,-0.275753501586507,32,21,44.2708333333333
"138","5a06ebf2c259f300017656ee","plago","pseudoword","0","1",1.117,"L3_group",0,0.110646520087064,32,21,44.2708333333333
"139","5a06ebf2c259f300017656ee","densó","pseudoword","0","1",0.841,"L3_group",0,-0.173163619009189,32,21,44.2708333333333
"140","5a06ebf2c259f300017656ee","fomeó","pseudoword","0","1",1.253,"L3_group",0,0.225540675913931,32,21,44.2708333333333
"141","5a06ebf2c259f300017656ee","brillo","non_cognate","1","1",1.232,"L3_group",1,0.208638865111328,32,21,44.2708333333333
"142","5a06ebf2c259f300017656ee","portal","three_way_cognate","1","1",0.838,"L3_group",1,-0.176737178500054,32,21,44.2708333333333
"143","5a06ebf2c259f300017656ee","hilo","non_cognate","1","1",1.012,"L3_group",1,0.0119285708652738,32,21,44.2708333333333
"144","5a06ebf2c259f300017656ee","piano","two_way_cognate","1","1",0.833,"L3_group",1,-0.182721636815294,32,21,44.2708333333333
"145","5a06ebf2c259f300017656ee","tecia","pseudoword","0","1",1.123,"L3_group",0,0.116003675756306,32,21,44.2708333333333
"146","5a06ebf2c259f300017656ee","kilo","three_way_cognate","1","1",0.725,"L3_group",1,-0.321583624127462,32,21,44.2708333333333
"147","5a06ebf2c259f300017656ee","gotro","pseudoword","0","1",1.198,"L3_group",0,0.180653499693258,32,21,44.2708333333333
"148","5a06ebf2c259f300017656ee","tapón","non_cognate","1","0",1.144,"L3_group",0,0.134530892957606,32,21,44.2708333333333
"149","5a06ebf2c259f300017656ee","moral","three_way_cognate","1","1",1.282,"L3_group",1,0.248421358498478,32,21,44.2708333333333
"150","5a06ebf2c259f300017656ee","dubo","pseudoword","0","1",1.229,"L3_group",0,0.206200830583898,32,21,44.2708333333333
"151","5a06ebf2c259f300017656ee","ozoso","pseudoword","0","1",0.931,"L3_group",0,-0.0714960017050699,32,21,44.2708333333333
"152","5a06ebf2c259f300017656ee","plural","three_way_cognate","1","1",0.907,"L3_group",1,-0.0976128288670004,32,21,44.2708333333333
"153","5a06ebf2c259f300017656ee","tapa","non_cognate","1","0",0.922,"L3_group",0,-0.0812100554255432,32,21,44.2708333333333
"154","5a06ebf2c259f300017656ee","ardor","two_way_cognate","1","1",0.905,"L3_group",1,-0.0998203352822109,32,21,44.2708333333333
"155","5a06ebf2c259f300017656ee","muñeca","non_cognate","1","1",0.966,"L3_group",1,-0.0345914447696191,32,21,44.2708333333333
"156","5a06ebf2c259f300017656ee","casual","two_way_cognate","1","1",1.077,"L3_group",1,0.0741793981742515,32,21,44.2708333333333
"157","5a06ebf2c259f300017656ee","llzan","pseudoword","0","1",0.952,"L3_group",0,-0.0491902441907718,32,21,44.2708333333333
"158","5a06ebf2c259f300017656ee","chocar","non_cognate","1","1",0.784,"L3_group",1,-0.243346258631729,32,21,44.2708333333333
"159","5a06ebf2c259f300017656ee","drama","three_way_cognate","1","1",1.033,"L3_group",1,0.0324671901375014,32,21,44.2708333333333
"160","5a06ebf2c259f300017656ee","mafia","three_way_cognate","1","1",0.716,"L3_group",1,-0.334075112021491,32,21,44.2708333333333
"161","5a06ebf2c259f300017656ee","prías","pseudoword","0","0",1.149,"L3_group",1,0.138891998866619,32,21,44.2708333333333
"162","5a06ebf2c259f300017656ee","tradía","pseudoword","0","1",0.634,"L3_group",0,-0.455706324544911,32,21,44.2708333333333
"163","5a06ebf2c259f300017656ee","disco","three_way_cognate","1","1",1.151,"L3_group",1,0.140631129739746,32,21,44.2708333333333
"164","5a06ebf2c259f300017656ee","pelí","pseudoword","0","1",1.252,"L3_group",0,0.224742272677907,32,21,44.2708333333333
"165","5a06ebf2c259f300017656ee","nocó","pseudoword","0","1",0.671,"L3_group",0,-0.398986142010455,32,21,44.2708333333333
"166","5a06ebf2c259f300017656ee","sacar","non_cognate","1","1",1,"L3_group",1,0,32,21,44.2708333333333
"167","5a06ebf2c259f300017656ee","maldad","non_cognate","1","0",1.189,"L3_group",0,0.173112617708645,32,21,44.2708333333333
"168","5a06ebf2c259f300017656ee","lidena","pseudoword","0","0",1.05,"L3_group",1,0.048790164169432,32,21,44.2708333333333
"169","5a06ebf2c259f300017656ee","rizate","pseudoword","0","1",0.832,"L3_group",0,-0.183922838160928,32,21,44.2708333333333
"170","5a06ebf2c259f300017656ee","chorde","pseudoword","0","1",0.765,"L3_group",0,-0.267879445155601,32,21,44.2708333333333
"171","5a06ebf2c259f300017656ee","blando","non_cognate","1","0",0.76,"L3_group",0,-0.27443684570176,32,21,44.2708333333333
"172","5a06ebf2c259f300017656ee","actor","two_way_cognate","1","1",0.978,"L3_group",1,-0.0222456089473197,32,21,44.2708333333333
"173","5a06ebf2c259f300017656ee","bará","pseudoword","0","1",0.802,"L3_group",0,-0.220646671115623,32,21,44.2708333333333
"174","5a06ebf2c259f300017656ee","aljizo","pseudoword","0","1",0.671,"L3_group",0,-0.398986142010455,32,21,44.2708333333333
"175","5a06ebf2c259f300017656ee","diabo","pseudoword","0","0",0.992,"L3_group",1,-0.00803217169726427,32,21,44.2708333333333
"176","5a06ebf2c259f300017656ee","amplir","pseudoword","0","1",0.76,"L3_group",0,-0.27443684570176,32,21,44.2708333333333
"177","5a06ebf2c259f300017656ee","coyo","pseudoword","0","1",1.326,"L3_group",0,0.282166891763671,32,21,44.2708333333333
"178","5a06ebf2c259f300017656ee","dogue","pseudoword","0","1",0.681,"L3_group",0,-0.384192972832625,32,21,44.2708333333333
"179","5a06ebf2c259f300017656ee","tator","pseudoword","0","0",0.869,"L3_group",1,-0.140412153716745,32,21,44.2708333333333
"180","5a06ebf2c259f300017656ee","dogma","three_way_cognate","1","1",0.957,"L3_group",1,-0.0439518875291828,32,21,44.2708333333333
"181","5a06ebf2c259f300017656ee","alla","pseudoword","0","1",0.753,"L3_group",0,-0.283690051182243,32,21,44.2708333333333
"182","5a06ebf2c259f300017656ee","clamor","two_way_cognate","1","1",1.042,"L3_group",1,0.0411419433311752,32,21,44.2708333333333
"183","5a06ebf2c259f300017656ee","monue","pseudoword","0","1",1.157,"L3_group",0,0.14583044821154,32,21,44.2708333333333
"184","5a06ebf2c259f300017656ee","horror","three_way_cognate","1","1",0.628,"L3_group",1,-0.465215112513938,32,21,44.2708333333333
"185","5b0564479649530001a3946c","edioso","pseudoword","0","1",1.593,"L3_group",0,0.465619030927911,23,78,64.5833333333333
"186","5b0564479649530001a3946c","cobén","pseudoword","0","0",1.412,"L3_group",1,0.34500713907105,23,78,64.5833333333333
"187","5b0564479649530001a3946c","dubo","pseudoword","0","0",1.033,"L3_group",1,0.0324671901375014,23,78,64.5833333333333
"188","5b0564479649530001a3946c","listo","non_cognate","1","1",0.886,"L3_group",1,-0.121038328377056,23,78,64.5833333333333
"189","5b0564479649530001a3946c","pupica","pseudoword","0","0",0.903,"L3_group",1,-0.102032725565152,23,78,64.5833333333333
"190","5b0564479649530001a3946c","seled","pseudoword","0","0",0.731,"L3_group",1,-0.313341819232359,23,78,64.5833333333333
"191","5b0564479649530001a3946c","fuar","pseudoword","0","0",0.803,"L3_group",1,-0.219400565035375,23,78,64.5833333333333
"192","5b0564479649530001a3946c","torta","non_cognate","1","1",0.807,"L3_group",1,-0.214431610712188,23,78,64.5833333333333
"193","5b0564479649530001a3946c","total","two_way_cognate","1","1",0.626,"L3_group",1,-0.468404907882039,23,78,64.5833333333333
"194","5b0564479649530001a3946c","guerra","non_cognate","1","1",1.261,"L3_group",1,0.231905056982782,23,78,64.5833333333333
"195","5b0564479649530001a3946c","virios","pseudoword","0","0",0.856,"L3_group",1,-0.155484902840395,23,78,64.5833333333333
"196","5b0564479649530001a3946c","prías","pseudoword","0","0",0.992,"L3_group",1,-0.00803217169726427,23,78,64.5833333333333
"197","5b0564479649530001a3946c","ánimo","non_cognate","1","0",1.018,"L3_group",0,0.017839918128331,23,78,64.5833333333333
"198","5b0564479649530001a3946c","próces","pseudoword","0","0",1.128,"L3_group",1,0.120446153075867,23,78,64.5833333333333
"199","5b0564479649530001a3946c","actor","two_way_cognate","1","1",0.547,"L3_group",1,-0.603306476560156,23,78,64.5833333333333
"200","5b0564479649530001a3946c","altar","three_way_cognate","1","1",1.321,"L3_group",1,0.278389025540188,23,78,64.5833333333333
"201","5b0564479649530001a3946c","aura","three_way_cognate","1","1",0.65,"L3_group",1,-0.430782916092454,23,78,64.5833333333333
"202","5b0564479649530001a3946c","sierra","non_cognate","1","1",0.767,"L3_group",1,-0.265268477614881,23,78,64.5833333333333
"203","5b0564479649530001a3946c","dobbo","pseudoword","0","0",0.647,"L3_group",1,-0.435408984481236,23,78,64.5833333333333
"204","5b0564479649530001a3946c","viable","two_way_cognate","1","1",1.602,"L3_group",1,0.471252848646168,23,78,64.5833333333333
"205","5b0564479649530001a3946c","suelet","pseudoword","0","0",0.974,"L3_group",1,-0.026343975339602,23,78,64.5833333333333
"206","5b0564479649530001a3946c","cuenco","non_cognate","1","0",1.151,"L3_group",0,0.140631129739746,23,78,64.5833333333333
"207","5b0564479649530001a3946c","molor","pseudoword","0","0",1.041,"L3_group",1,0.0401817896328318,23,78,64.5833333333333
"208","5b0564479649530001a3946c","ozoso","pseudoword","0","0",1.422,"L3_group",1,0.352064331381049,23,78,64.5833333333333
"209","5b0564479649530001a3946c","asumie","pseudoword","0","0",0.845,"L3_group",1,-0.168418651624963,23,78,64.5833333333333
"210","5b0564479649530001a3946c","hálito","non_cognate","1","0",1.016,"L3_group",0,0.0158733491562902,23,78,64.5833333333333
"211","5b0564479649530001a3946c","rizate","pseudoword","0","0",1.116,"L3_group",1,0.109750863959119,23,78,64.5833333333333
"212","5b0564479649530001a3946c","pelvis","two_way_cognate","1","0",1.117,"L3_group",0,0.110646520087064,23,78,64.5833333333333
"213","5b0564479649530001a3946c","listo","non_cognate","1","1",0.672,"L3_group",1,-0.397496938458987,23,78,64.5833333333333
"214","5b0564479649530001a3946c","civil","two_way_cognate","1","1",0.785,"L3_group",1,-0.242071561199729,23,78,64.5833333333333
"215","5b0564479649530001a3946c","nocó","pseudoword","0","0",0.979,"L3_group",1,-0.0212236364516267,23,78,64.5833333333333
"216","5b0564479649530001a3946c","puñal","non_cognate","1","0",1.196,"L3_group",0,0.17898265552844,23,78,64.5833333333333
"217","5b0564479649530001a3946c","editor","two_way_cognate","1","1",1.469,"L3_group",1,0.38458189719174,23,78,64.5833333333333
"218","5b0564479649530001a3946c","dogma","three_way_cognate","1","0",0.899,"L3_group",0,-0.106472244510517,23,78,64.5833333333333
"219","5b0564479649530001a3946c","rúo","pseudoword","0","0",0.976,"L3_group",1,-0.0242926925690446,23,78,64.5833333333333
"220","5b0564479649530001a3946c","fomeó","pseudoword","0","0",0.983,"L3_group",1,-0.0171461588349705,23,78,64.5833333333333
"221","5b0564479649530001a3946c","huenos","pseudoword","0","1",1.268,"L3_group",0,0.237440856015034,23,78,64.5833333333333
"222","5b0564479649530001a3946c","morrá","pseudoword","0","0",1.895,"L3_group",1,0.63921883853439,23,78,64.5833333333333
"223","5b0564479649530001a3946c","hotel","three_way_cognate","1","1",0.651,"L3_group",1,-0.429245636773568,23,78,64.5833333333333
"224","5b0564479649530001a3946c","martir","pseudoword","0","0",1.415,"L3_group",1,0.347129531095201,23,78,64.5833333333333
"225","5b0564479649530001a3946c","vien","pseudoword","0","0",1.318,"L3_group",1,0.276115436080316,23,78,64.5833333333333
"226","5b0564479649530001a3946c","vueras","pseudoword","0","1",0.728,"L3_group",0,-0.317454230785451,23,78,64.5833333333333
"227","5b0564479649530001a3946c","grigir","pseudoword","0","0",0.91,"L3_group",1,-0.0943106794712413,23,78,64.5833333333333
"228","5b0564479649530001a3946c","rendir","non_cognate","1","0",1.457,"L3_group",0,0.376379527213068,23,78,64.5833333333333
"229","5b0564479649530001a3946c","coyo","pseudoword","0","1",0.877,"L3_group",0,-0.131248286609954,23,78,64.5833333333333
"230","5b0564479649530001a3946c","cricó","pseudoword","0","1",0.609,"L3_group",0,-0.49593701127224,23,78,64.5833333333333
"231","5b0564479649530001a3946c","hueas","pseudoword","0","0",0.833,"L3_group",1,-0.182721636815294,23,78,64.5833333333333
"232","5b0564479649530001a3946c","regalo","non_cognate","1","1",0.772,"L3_group",1,-0.258770728957361,23,78,64.5833333333333
"233","5b0564479649530001a3946c","harvé","pseudoword","0","0",0.983,"L3_group",1,-0.0171461588349705,23,78,64.5833333333333
"234","5b0564479649530001a3946c","mortal","two_way_cognate","1","1",1.186,"L3_group",1,0.170586300575534,23,78,64.5833333333333
"235","5b0564479649530001a3946c","sacar","non_cognate","1","1",1.009,"L3_group",1,0.0089597413714718,23,78,64.5833333333333
"236","5b0564479649530001a3946c","rostro","non_cognate","1","0",0.89,"L3_group",0,-0.116533816255952,23,78,64.5833333333333
"237","5b0564479649530001a3946c","épinas","pseudoword","0","0",1.51,"L3_group",1,0.412109650826833,23,78,64.5833333333333
"238","5b0564479649530001a3946c","piano","two_way_cognate","1","1",0.658,"L3_group",1,-0.41855034765682,23,78,64.5833333333333
"239","5b0564479649530001a3946c","siglo","non_cognate","1","1",1.044,"L3_group",1,0.043059489460447,23,78,64.5833333333333
"240","5b0564479649530001a3946c","hurcos","pseudoword","0","0",1.097,"L3_group",1,0.0925791812930932,23,78,64.5833333333333
"241","5b0564479649530001a3946c","mauja","pseudoword","0","0",0.793,"L3_group",1,-0.231932057347289,23,78,64.5833333333333
"242","5b0564479649530001a3946c","test","three_way_cognate","1","1",0.511,"L3_group",1,-0.671385688778433,23,78,64.5833333333333
"243","5b0564479649530001a3946c","tumor","three_way_cognate","1","1",0.717,"L3_group",1,-0.332679438382517,23,78,64.5833333333333
"244","5b0564479649530001a3946c","bará","pseudoword","0","0",0.609,"L3_group",1,-0.49593701127224,23,78,64.5833333333333
"245","5b0564479649530001a3946c","entodo","pseudoword","0","1",1.538,"L3_group",0,0.430482871083452,23,78,64.5833333333333
"246","5b0564479649530001a3946c","honor","two_way_cognate","1","1",0.796,"L3_group",1,-0.228156093137754,23,78,64.5833333333333
"247","5b0564479649530001a3946c","frasis","pseudoword","0","0",0.874,"L3_group",1,-0.134674903326602,23,78,64.5833333333333
"248","5b0564479649530001a3946c","gió","pseudoword","0","0",0.846,"L3_group",1,-0.167235919375914,23,78,64.5833333333333
"249","5b0564479649530001a3946c","mango","three_way_cognate","1","1",0.878,"L3_group",1,-0.13010868534702,23,78,64.5833333333333
"250","5b0564479649530001a3946c","mafia","three_way_cognate","1","1",1.029,"L3_group",1,0.0285874568519125,23,78,64.5833333333333
"251","5b0564479649530001a3946c","gotro","pseudoword","0","0",1.747,"L3_group",1,0.55790003115192,23,78,64.5833333333333
"252","5b0564479649530001a3946c","tradía","pseudoword","0","0",0.797,"L3_group",1,-0.226900600191922,23,78,64.5833333333333
"253","5b0564479649530001a3946c","percha","non_cognate","1","0",0.854,"L3_group",0,-0.157824085193567,23,78,64.5833333333333
"254","5b0564479649530001a3946c","mibro","pseudoword","0","0",0.721,"L3_group",1,-0.327116141697188,23,78,64.5833333333333
"255","5b0564479649530001a3946c","punta","non_cognate","1","1",0.651,"L3_group",1,-0.429245636773568,23,78,64.5833333333333
"256","5b0564479649530001a3946c","maldad","non_cognate","1","1",1.113,"L3_group",1,0.107059072293408,23,78,64.5833333333333
"257","5b0564479649530001a3946c","esís","pseudoword","0","0",1.013,"L3_group",1,0.0129162252665462,23,78,64.5833333333333
"258","5b0564479649530001a3946c","densó","pseudoword","0","1",0.984,"L3_group",0,-0.0161293819298836,23,78,64.5833333333333
"259","5b0564479649530001a3946c","arane","pseudoword","0","0",0.776,"L3_group",1,-0.253602758798918,23,78,64.5833333333333
"260","5b0564479649530001a3946c","muñeca","non_cognate","1","0",1.127,"L3_group",0,0.119559235057639,23,78,64.5833333333333
"261","5b0564479649530001a3946c","moral","three_way_cognate","1","1",0.738,"L3_group",1,-0.303811454381665,23,78,64.5833333333333
"262","5b0564479649530001a3946c","trcia","pseudoword","0","0",0.68,"L3_group",1,-0.385662480811985,23,78,64.5833333333333
"263","5b0564479649530001a3946c","plan","three_way_cognate","1","1",0.593,"L3_group",1,-0.522560879984412,23,78,64.5833333333333
"264","5b0564479649530001a3946c","pico","non_cognate","1","1",0.596,"L3_group",1,-0.517514611916787,23,78,64.5833333333333
"265","5b0564479649530001a3946c","aurora","two_way_cognate","1","1",0.785,"L3_group",1,-0.242071561199729,23,78,64.5833333333333
"266","5b0564479649530001a3946c","llzan","pseudoword","0","0",0.66,"L3_group",1,-0.415515443961666,23,78,64.5833333333333
"267","5b0564479649530001a3946c","nomata","pseudoword","0","0",1.747,"L3_group",1,0.55790003115192,23,78,64.5833333333333
"268","5b0564479649530001a3946c","plural","three_way_cognate","1","1",0.797,"L3_group",1,-0.226900600191922,23,78,64.5833333333333
"269","5b0564479649530001a3946c","plago","pseudoword","0","0",1.129,"L3_group",1,0.121332285167525,23,78,64.5833333333333
"270","5b0564479649530001a3946c","tapa","non_cognate","1","1",0.653,"L3_group",1,-0.426178149705706,23,78,64.5833333333333
"271","5b0564479649530001a3946c","chocar","non_cognate","1","0",1.078,"L3_group",0,0.0751074724868055,23,78,64.5833333333333
"272","5b0564479649530001a3946c","pelí","pseudoword","0","0",0.719,"L3_group",1,-0.32989392126109,23,78,64.5833333333333
"273","5b0564479649530001a3946c","casual","two_way_cognate","1","1",0.721,"L3_group",1,-0.327116141697188,23,78,64.5833333333333
"274","5b0564479649530001a3946c","horror","three_way_cognate","1","1",0.738,"L3_group",1,-0.303811454381665,23,78,64.5833333333333
"275","5b0564479649530001a3946c","equipo","non_cognate","1","1",0.817,"L3_group",1,-0.202116184122134,23,78,64.5833333333333
"276","5b0564479649530001a3946c","desaro","pseudoword","0","0",0.834,"L3_group",1,-0.18152187662339,23,78,64.5833333333333
"277","5b0564479649530001a3946c","fiscal","two_way_cognate","1","0",1.383,"L3_group",0,0.324255052682621,23,78,64.5833333333333
"278","5b0564479649530001a3946c","cuenco","non_cognate","1","0",1.134,"L3_group",0,0.12575120530556,23,78,64.5833333333333
"279","5b0564479649530001a3946c","rizado","non_cognate","1","0",1.182,"L3_group",0,0.167207918983906,23,78,64.5833333333333
"280","5b0564479649530001a3946c","ardor","two_way_cognate","1","0",0.867,"L3_group",0,-0.142716302201595,23,78,64.5833333333333
"281","5b0564479649530001a3946c","monue","pseudoword","0","1",0.544,"L3_group",0,-0.608806032126194,23,78,64.5833333333333
"282","5b0564479649530001a3946c","llamar","non_cognate","1","1",0.67,"L3_group",1,-0.400477566597125,23,78,64.5833333333333
"283","5b0564479649530001a3946c","blando","non_cognate","1","0",1.085,"L3_group",0,0.0815799869924228,23,78,64.5833333333333
"284","5b0564479649530001a3946c","estulo","pseudoword","0","0",0.702,"L3_group",1,-0.353821874956326,23,78,64.5833333333333
"285","5b0564479649530001a3946c","drama","three_way_cognate","1","1",1.015,"L3_group",1,0.0148886124937506,23,78,64.5833333333333
"286","5b0564479649530001a3946c","pitis","pseudoword","0","1",1.493,"L3_group",0,0.400787518557053,23,78,64.5833333333333
"287","5b0564479649530001a3946c","inichó","pseudoword","0","0",0.716,"L3_group",1,-0.334075112021491,23,78,64.5833333333333
"288","5b0564479649530001a3946c","suelo","non_cognate","1","0",0.991,"L3_group",0,-0.00904074465214907,23,78,64.5833333333333
"289","5b0564479649530001a3946c","lidena","pseudoword","0","0",1.281,"L3_group",1,0.247641022914597,23,78,64.5833333333333
"290","5b0564479649530001a3946c","albino","three_way_cognate","1","1",0.882,"L3_group",1,-0.125563222975346,23,78,64.5833333333333
"291","5b0564479649530001a3946c","trauma","three_way_cognate","1","1",0.619,"L3_group",1,-0.479650006297541,23,78,64.5833333333333
"292","5b0564479649530001a3946c","ala","non_cognate","1","0",0.801,"L3_group",0,-0.221894331913778,23,78,64.5833333333333
"293","5b0564479649530001a3946c","bugor","pseudoword","0","0",0.703,"L3_group",1,-0.352398387171472,23,78,64.5833333333333
"294","5b0564479649530001a3946c","brillo","non_cognate","1","0",1.095,"L3_group",0,0.0907543632684641,23,78,64.5833333333333
"295","5b0564479649530001a3946c","barbs","pseudoword","0","0",0.732,"L3_group",1,-0.311974765020825,23,78,64.5833333333333
"296","5b0564479649530001a3946c","halo","two_way_cognate","1","0",0.895,"L3_group",0,-0.110931560707282,23,78,64.5833333333333
"297","5b0564479649530001a3946c","caro","non_cognate","1","1",0.783,"L3_group",1,-0.244622582991334,23,78,64.5833333333333
"298","5b0564479649530001a3946c","gravés","pseudoword","0","0",0.862,"L3_group",1,-0.148500008318444,23,78,64.5833333333333
"299","5b0564479649530001a3946c","suave","non_cognate","1","1",1.179,"L3_group",1,0.164666621555234,23,78,64.5833333333333
"300","5b0564479649530001a3946c","tobre","pseudoword","0","1",1.277,"L3_group",0,0.244513577050402,23,78,64.5833333333333
"301","5b0564479649530001a3946c","color","two_way_cognate","1","1",0.826,"L3_group",1,-0.191160505461159,23,78,64.5833333333333
"302","5b0564479649530001a3946c","panté","pseudoword","0","0",0.684,"L3_group",1,-0.379797361359587,23,78,64.5833333333333
"303","5b0564479649530001a3946c","civas","pseudoword","0","0",1.056,"L3_group",1,0.0544881852840698,23,78,64.5833333333333
"304","5b0564479649530001a3946c","llevar","non_cognate","1","1",0.637,"L3_group",1,-0.450985623409974,23,78,64.5833333333333
"305","5b0564479649530001a3946c","sasos","pseudoword","0","0",0.948,"L3_group",1,-0.0534007767271153,23,78,64.5833333333333
"306","5b0564479649530001a3946c","tator","pseudoword","0","0",1.396,"L3_group",1,0.333611004340181,23,78,64.5833333333333
"307","5b0564479649530001a3946c","tecia","pseudoword","0","0",0.812,"L3_group",1,-0.208254938820459,23,78,64.5833333333333
"308","5b0564479649530001a3946c","vinzó","pseudoword","0","0",0.836,"L3_group",1,-0.179126665897435,23,78,64.5833333333333
"309","5b0564479649530001a3946c","collar","two_way_cognate","1","1",1.134,"L3_group",1,0.12575120530556,23,78,64.5833333333333
"310","5b0564479649530001a3946c","diebro","pseudoword","0","0",0.747,"L3_group",1,-0.29169009384932,23,78,64.5833333333333
"311","5b0564479649530001a3946c","ceme","pseudoword","0","0",1.205,"L3_group",1,0.186479566942618,23,78,64.5833333333333
"312","5b0564479649530001a3946c","aljizo","pseudoword","0","0",0.93,"L3_group",1,-0.0725706928348354,23,78,64.5833333333333
"313","5b0564479649530001a3946c","flora","three_way_cognate","1","1",0.511,"L3_group",1,-0.671385688778433,23,78,64.5833333333333
"314","5b0564479649530001a3946c","patada","non_cognate","1","0",1.815,"L3_group",0,0.596085467716814,23,78,64.5833333333333
"315","5b0564479649530001a3946c","trugo","pseudoword","0","0",0.922,"L3_group",1,-0.0812100554255432,23,78,64.5833333333333
"316","5b0564479649530001a3946c","aleta","non_cognate","1","1",0.756,"L3_group",1,-0.279713902802604,23,78,64.5833333333333
"317","5b0564479649530001a3946c","golla","pseudoword","0","1",0.533,"L3_group",0,-0.629233854816292,23,78,64.5833333333333
"318","5b0564479649530001a3946c","dogue","pseudoword","0","0",0.667,"L3_group",1,-0.404965233066513,23,78,64.5833333333333
"319","5b0564479649530001a3946c","peniz","pseudoword","0","0",1.643,"L3_group",1,0.496523839055131,23,78,64.5833333333333
"320","5b0564479649530001a3946c","gino","pseudoword","0","0",0.805,"L3_group",1,-0.216913001563574,23,78,64.5833333333333
"321","5b0564479649530001a3946c","animal","two_way_cognate","1","1",0.539,"L3_group",1,-0.61803970807314,23,78,64.5833333333333
"322","5b0564479649530001a3946c","extra","three_way_cognate","1","1",1.465,"L3_group",1,0.381855242469031,23,78,64.5833333333333
"323","5b0564479649530001a3946c","kugis","pseudoword","0","0",0.616,"L3_group",1,-0.484508315448617,23,78,64.5833333333333
"324","5b0564479649530001a3946c","golf","three_way_cognate","1","1",0.632,"L3_group",1,-0.45886588483528,23,78,64.5833333333333
"325","5b0564479649530001a3946c","cengo","pseudoword","0","0",0.996,"L3_group",1,-0.00400802139753882,23,78,64.5833333333333
"326","5b0564479649530001a3946c","losco","pseudoword","0","0",0.814,"L3_group",1,-0.205794912979597,23,78,64.5833333333333
"327","5b0564479649530001a3946c","kilo","three_way_cognate","1","1",1.293,"L3_group",1,0.25696509978972,23,78,64.5833333333333
"328","5b0564479649530001a3946c","prave","pseudoword","0","0",1.217,"L3_group",1,0.19638881400539,23,78,64.5833333333333
"329","5b0564479649530001a3946c","chorde","pseudoword","0","0",0.813,"L3_group",1,-0.207024169434327,23,78,64.5833333333333
"330","5b0564479649530001a3946c","babrá","pseudoword","0","0",0.844,"L3_group",1,-0.16960278438618,23,78,64.5833333333333
"331","5b0564479649530001a3946c","boñaz","pseudoword","0","0",0.798,"L3_group",1,-0.225646681532328,23,78,64.5833333333333
"332","5b0564479649530001a3946c","aduana","non_cognate","1","0",0.898,"L3_group",0,-0.107585210679937,23,78,64.5833333333333
"333","5b0564479649530001a3946c","flecha","non_cognate","1","1",0.871,"L3_group",1,-0.138113302129634,23,78,64.5833333333333
"334","5b0564479649530001a3946c","jauda","pseudoword","0","1",1.213,"L3_group",0,0.193096629961913,23,78,64.5833333333333
"335","5b0564479649530001a3946c","pegar","non_cognate","1","0",0.859,"L3_group",0,-0.151986356997882,23,78,64.5833333333333
"336","5b0564479649530001a3946c","medium","pseudoword","0","1",1.241,"L3_group",0,0.21591750622247,23,78,64.5833333333333
"337","5b0564479649530001a3946c","alla","pseudoword","0","1",1.321,"L3_group",0,0.278389025540188,23,78,64.5833333333333
"338","5b0564479649530001a3946c","feo","non_cognate","1","0",0.647,"L3_group",0,-0.435408984481236,23,78,64.5833333333333
"339","5b0564479649530001a3946c","conso","pseudoword","0","0",1.47,"L3_group",1,0.385262400790645,23,78,64.5833333333333
"340","5b0564479649530001a3946c","pelvis","two_way_cognate","1","0",1.974,"L3_group",0,0.68006194101129,23,78,64.5833333333333
"341","5b0564479649530001a3946c","colcha","non_cognate","1","0",0.712,"L3_group",0,-0.339677367570161,23,78,64.5833333333333
"342","5b0564479649530001a3946c","chote","pseudoword","0","0",0.7,"L3_group",1,-0.356674943938732,23,78,64.5833333333333
"343","5b0564479649530001a3946c","pabea","pseudoword","0","0",0.79,"L3_group",1,-0.23572233352107,23,78,64.5833333333333
"344","5b0564479649530001a3946c","gripar","pseudoword","0","1",0.987,"L3_group",0,-0.0130852395486555,23,78,64.5833333333333
"345","5b0564479649530001a3946c","parre","pseudoword","0","1",0.596,"L3_group",0,-0.517514611916787,23,78,64.5833333333333
"346","5b0564479649530001a3946c","rumor","two_way_cognate","1","1",0.82,"L3_group",1,-0.198450938723838,23,78,64.5833333333333
"347","5b0564479649530001a3946c","diroco","pseudoword","0","0",0.813,"L3_group",1,-0.207024169434327,23,78,64.5833333333333
"348","5b0564479649530001a3946c","clan","three_way_cognate","1","1",0.863,"L3_group",1,-0.147340587898709,23,78,64.5833333333333
"349","5b0564479649530001a3946c","lobe","pseudoword","0","0",0.715,"L3_group",1,-0.335472736288129,23,78,64.5833333333333
"350","5b0564479649530001a3946c","dibrea","pseudoword","0","1",0.915,"L3_group",0,-0.0888312137066157,23,78,64.5833333333333
"351","5b0564479649530001a3946c","retina","three_way_cognate","1","1",0.797,"L3_group",1,-0.226900600191922,23,78,64.5833333333333
"352","5b0564479649530001a3946c","enorme","non_cognate","1","1",0.759,"L3_group",1,-0.275753501586507,23,78,64.5833333333333
"353","5b0564479649530001a3946c","nocita","pseudoword","0","1",1.066,"L3_group",0,0.0639133257436529,23,78,64.5833333333333
"354","5b0564479649530001a3946c","samón","pseudoword","0","0",0.529,"L3_group",1,-0.636766847123838,23,78,64.5833333333333
"355","5b0564479649530001a3946c","teñir","non_cognate","1","1",0.686,"L3_group",1,-0.376877651256252,23,78,64.5833333333333
"356","5b0564479649530001a3946c","muleta","non_cognate","1","0",1.264,"L3_group",0,0.234281295724666,23,78,64.5833333333333
"357","5b0564479649530001a3946c","clamor","two_way_cognate","1","0",1.131,"L3_group",0,0.123102197133983,23,78,64.5833333333333
"358","5b0564479649530001a3946c","forro","non_cognate","1","0",1.083,"L3_group",0,0.0797349680188535,23,78,64.5833333333333
"359","5b0564479649530001a3946c","enigma","two_way_cognate","1","1",1.163,"L3_group",1,0.151002873536527,23,78,64.5833333333333
"360","5b0564479649530001a3946c","tiza","non_cognate","1","0",0.817,"L3_group",0,-0.202116184122134,23,78,64.5833333333333
"361","5b0564479649530001a3946c","chat","three_way_cognate","1","1",1.202,"L3_group",1,0.183986836113016,23,78,64.5833333333333
"362","5b0564479649530001a3946c","venado","non_cognate","1","1",0.962,"L3_group",1,-0.0387408283164306,23,78,64.5833333333333
"363","5b0564479649530001a3946c","nasce","pseudoword","0","0",0.748,"L3_group",1,-0.29035230100766,23,78,64.5833333333333
"364","5b0564479649530001a3946c","tapón","non_cognate","1","0",0.885,"L3_group",0,-0.122167633974208,23,78,64.5833333333333
"365","5b0564479649530001a3946c","torso","two_way_cognate","1","1",0.717,"L3_group",1,-0.332679438382517,23,78,64.5833333333333
"366","5b0564479649530001a3946c","diabo","pseudoword","0","0",1.129,"L3_group",1,0.121332285167525,23,78,64.5833333333333
"367","5b0564479649530001a3946c","portal","three_way_cognate","1","1",0.63,"L3_group",1,-0.462035459596559,23,78,64.5833333333333
"368","5b0564479649530001a3946c","disco","three_way_cognate","1","1",0.616,"L3_group",1,-0.484508315448617,23,78,64.5833333333333
"369","5b0564479649530001a3946c","pasta","two_way_cognate","1","1",0.577,"L3_group",1,-0.549913012474038,23,78,64.5833333333333
"370","5b8eab705206680001da3583","tecia","pseudoword","0","0",0.8317,"L3_group",1,-0.184283480107495,22,85,67.1875
"371","5b8eab705206680001da3583","torta","non_cognate","1","1",0.8949,"L3_group",1,-0.111043298793325,22,85,67.1875
"372","5b8eab705206680001da3583","viable","two_way_cognate","1","1",0.9868,"L3_group",1,-0.0132878943269354,22,85,67.1875
"373","5b8eab705206680001da3583","laras","pseudoword","0","0",0.9032,"L3_group",1,-0.101811266146685,22,85,67.1875
"374","5b8eab705206680001da3583","piano","two_way_cognate","1","1",0.6096,"L3_group",1,-0.4949522746097,22,85,67.1875
"375","5b8eab705206680001da3583","samón","pseudoword","0","0",0.8536,"L3_group",1,-0.158292578994593,22,85,67.1875
"376","5b8eab705206680001da3583","cobén","pseudoword","0","0",0.7422,"L3_group",1,-0.29813653035564,22,85,67.1875
"377","5b8eab705206680001da3583","morrá","pseudoword","0","0",0.6446,"L3_group",1,-0.4391253096008,22,85,67.1875
"378","5b8eab705206680001da3583","virios","pseudoword","0","0",0.7909,"L3_group",1,-0.234583741456765,22,85,67.1875
"379","5b8eab705206680001da3583","diabo","pseudoword","0","1",0.5502,"L3_group",0,-0.597473430491663,22,85,67.1875
"380","5b8eab705206680001da3583","altar","three_way_cognate","1","1",0.5344,"L3_group",1,-0.626610656759701,22,85,67.1875
"381","5b8eab705206680001da3583","ardor","two_way_cognate","1","1",0.8629,"L3_group",1,-0.147456469467875,22,85,67.1875
"382","5b8eab705206680001da3583","chorde","pseudoword","0","0",0.655,"L3_group",1,-0.423120043346885,22,85,67.1875
"383","5b8eab705206680001da3583","vueras","pseudoword","0","1",0.8141,"L3_group",0,-0.205672070402205,22,85,67.1875
"384","5b8eab705206680001da3583","patada","non_cognate","1","0",0.8208,"L3_group",0,-0.197475804565632,22,85,67.1875
"385","5b8eab705206680001da3583","pegar","non_cognate","1","1",1.0426,"L3_group",1,0.0417175933518685,22,85,67.1875
"386","5b8eab705206680001da3583","asumie","pseudoword","0","0",0.7086,"L3_group",1,-0.344464086550765,22,85,67.1875
"387","5b8eab705206680001da3583","dobbo","pseudoword","0","0",0.7068,"L3_group",1,-0.347007538536596,22,85,67.1875
"388","5b8eab705206680001da3583","hotel","three_way_cognate","1","1",0.6232,"L3_group",1,-0.472887784425599,22,85,67.1875
"389","5b8eab705206680001da3583","puñal","non_cognate","1","0",0.9251,"L3_group",0,-0.0778534392048641,22,85,67.1875
"390","5b8eab705206680001da3583","nocó","pseudoword","0","0",0.8806,"L3_group",1,-0.127151785660484,22,85,67.1875
"391","5b8eab705206680001da3583","pabea","pseudoword","0","0",1.5238,"L3_group",1,0.421207215056772,22,85,67.1875
"392","5b8eab705206680001da3583","próces","pseudoword","0","1",0.8983,"L3_group",0,-0.107251190746976,22,85,67.1875
"393","5b8eab705206680001da3583","venado","non_cognate","1","0",0.6347,"L3_group",0,-0.454602832669713,22,85,67.1875
"394","5b8eab705206680001da3583","civil","two_way_cognate","1","1",0.5704,"L3_group",1,-0.561417409882051,22,85,67.1875
"395","5b8eab705206680001da3583","inichó","pseudoword","0","0",0.846,"L3_group",1,-0.167235919375914,22,85,67.1875
"396","5b8eab705206680001da3583","animal","two_way_cognate","1","1",0.5391,"L3_group",1,-0.617854196524514,22,85,67.1875
"397","5b8eab705206680001da3583","bará","pseudoword","0","0",0.5988,"L3_group",1,-0.512827626436664,22,85,67.1875
"398","5b8eab705206680001da3583","mafia","three_way_cognate","1","1",0.6749,"L3_group",1,-0.393190747232776,22,85,67.1875
"399","5b8eab705206680001da3583","estulo","pseudoword","0","0",0.7524,"L3_group",1,-0.284487181555262,22,85,67.1875
"400","5b8eab705206680001da3583","drama","three_way_cognate","1","1",0.6663,"L3_group",1,-0.406015259413646,22,85,67.1875
"401","5b8eab705206680001da3583","total","two_way_cognate","1","1",1.1129,"L3_group",1,0.106969220997242,22,85,67.1875
"402","5b8eab705206680001da3583","lobe","pseudoword","0","0",1.0336,"L3_group",1,0.0330478540462004,22,85,67.1875
"403","5b8eab705206680001da3583","pico","non_cognate","1","0",0.5408,"L3_group",0,-0.614705754253383,22,85,67.1875
"404","5b8eab705206680001da3583","pelvis","two_way_cognate","1","0",0.555,"L3_group",0,-0.588787165235702,22,85,67.1875
"405","5b8eab705206680001da3583","llevar","non_cognate","1","1",0.756,"L3_group",1,-0.279713902802604,22,85,67.1875
"406","5b8eab705206680001da3583","portal","three_way_cognate","1","1",0.8538,"L3_group",1,-0.158058304658275,22,85,67.1875
"407","5b8eab705206680001da3583","dogue","pseudoword","0","0",0.5894,"L3_group",1,-0.528650208678543,22,85,67.1875
"408","5b8eab705206680001da3583","trcia","pseudoword","0","0",0.8124,"L3_group",1,-0.207762449275907,22,85,67.1875
"409","5b8eab705206680001da3583","esís","pseudoword","0","0",0.6337,"L3_group",1,-0.456179622652666,22,85,67.1875
"410","5b8eab705206680001da3583","enigma","two_way_cognate","1","1",0.9317,"L3_group",1,-0.0707444045257578,22,85,67.1875
"411","5b8eab705206680001da3583","regalo","non_cognate","1","1",0.6676,"L3_group",1,-0.404066087194457,22,85,67.1875
"412","5b8eab705206680001da3583","muñeca","non_cognate","1","0",0.6749,"L3_group",0,-0.393190747232776,22,85,67.1875
"413","5b8eab705206680001da3583","monue","pseudoword","0","0",0.8137,"L3_group",1,-0.206163531279525,22,85,67.1875
"414","5b8eab705206680001da3583","extra","three_way_cognate","1","1",0.6444,"L3_group",1,-0.439435627679318,22,85,67.1875
"415","5b8eab705206680001da3583","siglo","non_cognate","1","0",0.5411,"L3_group",0,-0.614151174333447,22,85,67.1875
"416","5b8eab705206680001da3583","maldad","non_cognate","1","0",0.8867,"L3_group",0,-0.120248572596176,22,85,67.1875
"417","5b8eab705206680001da3583","suave","non_cognate","1","1",0.7333,"L3_group",1,-0.310200383882383,22,85,67.1875
"418","5b8eab705206680001da3583","golf","three_way_cognate","1","1",0.6576,"L3_group",1,-0.419158435240167,22,85,67.1875
"419","5b8eab705206680001da3583","clamor","two_way_cognate","1","0",0.7047,"L3_group",0,-0.34998309864916,22,85,67.1875
"420","5b8eab705206680001da3583","guerra","non_cognate","1","1",0.6239,"L3_group",1,-0.471765179865396,22,85,67.1875
"421","5b8eab705206680001da3583","peniz","pseudoword","0","0",0.8575,"L3_group",1,-0.153734099942042,22,85,67.1875
"422","5b8eab705206680001da3583","flora","three_way_cognate","1","1",0.632,"L3_group",1,-0.45886588483528,22,85,67.1875
"423","5b8eab705206680001da3583","mortal","two_way_cognate","1","1",1.035,"L3_group",1,0.0344014267173323,22,85,67.1875
"424","5b8eab705206680001da3583","gino","pseudoword","0","0",0.5077,"L3_group",1,-0.677864557028788,22,85,67.1875
"425","5b8eab705206680001da3583","halo","two_way_cognate","1","1",0.7514,"L3_group",1,-0.285817145842269,22,85,67.1875
"426","5b8eab705206680001da3583","nocita","pseudoword","0","0",0.7015,"L3_group",1,-0.354534379439621,22,85,67.1875
"427","5b8eab705206680001da3583","frasis","pseudoword","0","0",0.7469,"L3_group",1,-0.291823971619116,22,85,67.1875
"428","5b8eab705206680001da3583","sierra","non_cognate","1","1",0.7018,"L3_group",1,-0.354106815833022,22,85,67.1875
"429","5b8eab705206680001da3583","aduana","non_cognate","1","0",0.6913,"L3_group",0,-0.369181396030918,22,85,67.1875
"430","5b8eab705206680001da3583","listo","non_cognate","1","1",0.5692,"L3_group",1,-0.56352341276644,22,85,67.1875
"431","5b8eab705206680001da3583","percha","non_cognate","1","0",0.6585,"L3_group",0,-0.417790757798801,22,85,67.1875
"432","5b8eab705206680001da3583","prías","pseudoword","0","0",0.6214,"L3_group",1,-0.47578028202319,22,85,67.1875
"433","5b8eab705206680001da3583","edioso","pseudoword","0","0",0.6868,"L3_group",1,-0.375712149958817,22,85,67.1875
"434","5b8eab705206680001da3583","forro","non_cognate","1","0",0.5612,"L3_group",0,-0.577677930753831,22,85,67.1875
"435","5b8eab705206680001da3583","pelí","pseudoword","0","0",0.6007,"L3_group",1,-0.509659637126021,22,85,67.1875
"436","5b8eab705206680001da3583","vien","pseudoword","0","1",0.5871,"L3_group",0,-0.532560115911997,22,85,67.1875
"437","5b8eab705206680001da3583","casual","two_way_cognate","1","1",0.5914,"L3_group",1,-0.52526267156376,22,85,67.1875
"438","5b8eab705206680001da3583","gió","pseudoword","0","0",0.6675,"L3_group",1,-0.404215888707733,22,85,67.1875
"439","5b8eab705206680001da3583","tumor","three_way_cognate","1","1",0.6494,"L3_group",1,-0.431706419313391,22,85,67.1875
"440","5b8eab705206680001da3583","brillo","non_cognate","1","0",0.6772,"L3_group",0,-0.389788628723157,22,85,67.1875
"441","5b8eab705206680001da3583","equipo","non_cognate","1","1",0.5729,"L3_group",1,-0.557044097567605,22,85,67.1875
"442","5b8eab705206680001da3583","golla","pseudoword","0","0",0.6198,"L3_group",1,-0.478358433628489,22,85,67.1875
"443","5b8eab705206680001da3583","losco","pseudoword","0","0",0.5648,"L3_group",1,-0.571283592803105,22,85,67.1875
"444","5b8eab705206680001da3583","desaro","pseudoword","0","0",0.6188,"L3_group",1,-0.479973160283226,22,85,67.1875
"445","5b8eab705206680001da3583","llzan","pseudoword","0","0",0.5737,"L3_group",1,-0.555648667374312,22,85,67.1875
"446","5b8eab705206680001da3583","gotro","pseudoword","0","0",0.5678,"L3_group",1,-0.565986034943266,22,85,67.1875
"447","5b8eab705206680001da3583","blando","non_cognate","1","0",0.6873,"L3_group",0,-0.374984400854578,22,85,67.1875
"448","5b8eab705206680001da3583","listo","non_cognate","1","1",0.5467,"L3_group",1,-0.603855073081184,22,85,67.1875
"449","5b8eab705206680001da3583","rendir","non_cognate","1","0",0.7243,"L3_group",0,-0.322549607780857,22,85,67.1875
"450","5b8eab705206680001da3583","flecha","non_cognate","1","1",0.673,"L3_group",1,-0.396009949337409,22,85,67.1875
"451","5b8eab705206680001da3583","mango","three_way_cognate","1","1",0.5555,"L3_group",1,-0.587886669902452,22,85,67.1875
"452","5b8eab705206680001da3583","sacar","non_cognate","1","1",0.6899,"L3_group",1,-0.371208619430074,22,85,67.1875
"453","5b8eab705206680001da3583","seled","pseudoword","0","0",0.6946,"L3_group",1,-0.364419138672163,22,85,67.1875
"454","5b8eab705206680001da3583","huenos","pseudoword","0","0",0.7173,"L3_group",1,-0.332261115849748,22,85,67.1875
"455","5b8eab705206680001da3583","fomeó","pseudoword","0","0",0.6787,"L3_group",1,-0.387576075272424,22,85,67.1875
"456","5b8eab705206680001da3583","editor","two_way_cognate","1","1",0.5375,"L3_group",1,-0.620826518980319,22,85,67.1875
"457","5b8eab705206680001da3583","rumor","two_way_cognate","1","0",0.8315,"L3_group",0,-0.184523980349155,22,85,67.1875
"458","5b8eab705206680001da3583","rizado","non_cognate","1","0",0.5676,"L3_group",0,-0.566338333696249,22,85,67.1875
"459","5b8eab705206680001da3583","hurcos","pseudoword","0","0",0.6449,"L3_group",1,-0.438660012965805,22,85,67.1875
"460","5b8eab705206680001da3583","nasce","pseudoword","0","0",0.6728,"L3_group",1,-0.396307170323399,22,85,67.1875
"461","5b8eab705206680001da3583","martir","pseudoword","0","0",1.005,"L3_group",1,0.00498754151103897,22,85,67.1875
"462","5b8eab705206680001da3583","bugor","pseudoword","0","0",0.7516,"L3_group",1,-0.285551011442827,22,85,67.1875
"463","5b8eab705206680001da3583","grigir","pseudoword","0","0",0.735,"L3_group",1,-0.3078847797693,22,85,67.1875
"464","5b8eab705206680001da3583","colcha","non_cognate","1","0",0.6743,"L3_group",0,-0.394080163241601,22,85,67.1875
"465","5b8eab705206680001da3583","vinzó","pseudoword","0","0",0.7038,"L3_group",1,-0.351261054094652,22,85,67.1875
"466","5b8eab705206680001da3583","disco","three_way_cognate","1","1",0.5507,"L3_group",1,-0.596565082713701,22,85,67.1875
"467","5b8eab705206680001da3583","kilo","three_way_cognate","1","1",0.5159,"L3_group",1,-0.661842330731533,22,85,67.1875
"468","5b8eab705206680001da3583","muleta","non_cognate","1","0",0.6864,"L3_group",0,-0.376294730808384,22,85,67.1875
"469","5b8eab705206680001da3583","entodo","pseudoword","0","1",0.7987,"L3_group",0,-0.224769873058794,22,85,67.1875
"470","5b8eab705206680001da3583","ánimo","non_cognate","1","1",0.6662,"L3_group",1,-0.406165353222558,22,85,67.1875
"471","5b8eab705206680001da3583","medium","pseudoword","0","1",0.6184,"L3_group",0,-0.480619781708925,22,85,67.1875
"472","5b8eab705206680001da3583","densó","pseudoword","0","1",0.6471,"L3_group",0,-0.435254436918917,22,85,67.1875
"473","5b8eab705206680001da3583","anfia","pseudoword","0","0",0.6143,"L3_group",1,-0.487271870812255,22,85,67.1875
"474","5b8eab705206680001da3583","babrá","pseudoword","0","0",0.595,"L3_group",1,-0.519193873436507,22,85,67.1875
"475","5b8eab705206680001da3583","llamar","non_cognate","1","1",0.549,"L3_group",1,-0.599656837472606,22,85,67.1875
"476","5b8eab705206680001da3583","actor","two_way_cognate","1","1",0.582,"L3_group",1,-0.541284831250699,22,85,67.1875
"477","5b8eab705206680001da3583","tradía","pseudoword","0","0",0.9112,"L3_group",1,-0.0929928668491647,22,85,67.1875
"478","5b8eab705206680001da3583","fiscal","two_way_cognate","1","0",0.7133,"L3_group",0,-0.337853189698145,22,85,67.1875
"479","5b8eab705206680001da3583","panté","pseudoword","0","0",0.7085,"L3_group",1,-0.344605219851402,22,85,67.1875
"480","5b8eab705206680001da3583","sasos","pseudoword","0","0",0.721,"L3_group",1,-0.327116141697188,22,85,67.1875
"481","5b8eab705206680001da3583","lidena","pseudoword","0","0",0.6769,"L3_group",1,-0.390231727467575,22,85,67.1875
"482","5b8eab705206680001da3583","fuar","pseudoword","0","0",0.7512,"L3_group",1,-0.286083351088084,22,85,67.1875
"483","5b8eab705206680001da3583","feo","non_cognate","1","1",0.6193,"L3_group",1,-0.479165471038122,22,85,67.1875
"484","5b8eab705206680001da3583","plago","pseudoword","0","0",0.8826,"L3_group",1,-0.12488318214669,22,85,67.1875
"485","5b8eab705206680001da3583","tator","pseudoword","0","0",0.6464,"L3_group",1,-0.436336771775251,22,85,67.1875
"486","5b8eab705206680001da3583","parre","pseudoword","0","0",0.6732,"L3_group",1,-0.395712816665486,22,85,67.1875
"487","5b8eab705206680001da3583","arane","pseudoword","0","0",0.6724,"L3_group",1,-0.396901877447677,22,85,67.1875
"488","5b8eab705206680001da3583","enorme","non_cognate","1","1",0.5904,"L3_group",1,-0.526955005695874,22,85,67.1875
"489","5b8eab705206680001da3583","dubo","pseudoword","0","0",0.5773,"L3_group",1,-0.549393216915249,22,85,67.1875
"490","5b8eab705206680001da3583","boñaz","pseudoword","0","0",0.5837,"L3_group",1,-0.538368126772392,22,85,67.1875
"491","5b8eab705206680001da3583","tiza","non_cognate","1","0",0.6103,"L3_group",0,-0.493804639431688,22,85,67.1875
"492","5b8eab705206680001da3583","aurora","two_way_cognate","1","1",0.6636,"L3_group",1,-0.410075720665848,22,85,67.1875
"493","5b8eab705206680001da3583","moral","three_way_cognate","1","1",0.5335,"L3_group",1,-0.628296208240329,22,85,67.1875
"494","5b8eab705206680001da3583","rostro","non_cognate","1","0",0.5649,"L3_group",0,-0.571106554650921,22,85,67.1875
"495","5b8eab705206680001da3583","albino","three_way_cognate","1","1",0.69,"L3_group",1,-0.371063681390832,22,85,67.1875
"496","5b8eab705206680001da3583","trugo","pseudoword","0","0",0.5714,"L3_group",1,-0.559665789185464,22,85,67.1875
"497","5b8eab705206680001da3583","harvé","pseudoword","0","0",0.6273,"L3_group",1,-0.46633038387944,22,85,67.1875
"498","5b8eab705206680001da3583","ala","non_cognate","1","1",0.7702,"L3_group",1,-0.261105057601329,22,85,67.1875
"499","5b8eab705206680001da3583","gripar","pseudoword","0","1",0.6291,"L3_group",0,-0.463465052406153,22,85,67.1875
"500","5b8eab705206680001da3583","pelvis","two_way_cognate","1","1",0.8093,"L3_group",1,-0.211585602480481,22,85,67.1875
"501","5b8eab705206680001da3583","aljizo","pseudoword","0","0",0.596,"L3_group",1,-0.517514611916787,22,85,67.1875
"502","5b8eab705206680001da3583","dogma","three_way_cognate","1","1",0.776,"L3_group",1,-0.253602758798918,22,85,67.1875
"503","5b8eab705206680001da3583","diroco","pseudoword","0","0",0.5687,"L3_group",1,-0.564402224669383,22,85,67.1875
"504","5b8eab705206680001da3583","barbs","pseudoword","0","0",0.732,"L3_group",1,-0.311974765020825,22,85,67.1875
"505","5b8eab705206680001da3583","hueas","pseudoword","0","0",0.724,"L3_group",1,-0.322963886596421,22,85,67.1875
"506","5b8eab705206680001da3583","conso","pseudoword","0","0",0.6447,"L3_group",1,-0.438970186665563,22,85,67.1875
"507","5b8eab705206680001da3583","horror","three_way_cognate","1","1",0.5816,"L3_group",1,-0.541972352762827,22,85,67.1875
"508","5b8eab705206680001da3583","collar","two_way_cognate","1","1",0.8626,"L3_group",1,-0.147804194768394,22,85,67.1875
"509","5b8eab705206680001da3583","color","two_way_cognate","1","1",0.667,"L3_group",1,-0.404965233066513,22,85,67.1875
"510","5b8eab705206680001da3583","pupica","pseudoword","0","0",0.6774,"L3_group",1,-0.389493338598466,22,85,67.1875
"511","5b8eab705206680001da3583","dibrea","pseudoword","0","0",0.6347,"L3_group",1,-0.454602832669713,22,85,67.1875
"512","5b8eab705206680001da3583","aleta","non_cognate","1","0",0.6391,"L3_group",0,-0.447694342325901,22,85,67.1875
"513","5b8eab705206680001da3583","épinas","pseudoword","0","0",0.6607,"L3_group",1,-0.414455399946297,22,85,67.1875
"514","5b8eab705206680001da3583","hálito","non_cognate","1","0",0.6005,"L3_group",0,-0.509992637462099,22,85,67.1875
"515","5b8eab705206680001da3583","ceme","pseudoword","0","0",0.9097,"L3_group",1,-0.0946404041541209,22,85,67.1875
"516","5b8eab705206680001da3583","chote","pseudoword","0","0",0.7075,"L3_group",1,-0.346017649464744,22,85,67.1875
"517","5b8eab705206680001da3583","caro","non_cognate","1","1",0.6741,"L3_group",1,-0.394376811122744,22,85,67.1875
"518","5b8eab705206680001da3583","chat","three_way_cognate","1","1",0.6108,"L3_group",1,-0.49298570563766,22,85,67.1875
"519","5b8eab705206680001da3583","retina","three_way_cognate","1","1",0.8405,"L3_group",1,-0.173758326133467,22,85,67.1875
"520","5b8eab705206680001da3583","test","three_way_cognate","1","0",0.9323,"L3_group",0,-0.0701006276794891,22,85,67.1875
"521","5b8eab705206680001da3583","nomata","pseudoword","0","0",0.6471,"L3_group",1,-0.435254436918917,22,85,67.1875
"522","5b8eab705206680001da3583","torso","two_way_cognate","1","0",0.8155,"L3_group",0,-0.203953856921068,22,85,67.1875
"523","5b8eab705206680001da3583","pitis","pseudoword","0","0",0.8354,"L3_group",1,-0.179844626919062,22,85,67.1875
"524","5b8eab705206680001da3583","honor","two_way_cognate","1","1",0.7107,"L3_group",1,-0.341504879149288,22,85,67.1875
"525","5b8eab705206680001da3583","kugis","pseudoword","0","0",0.549,"L3_group",1,-0.599656837472606,22,85,67.1875
"526","5b8eab705206680001da3583","amplir","pseudoword","0","0",0.5807,"L3_group",1,-0.543521006604133,22,85,67.1875
"527","5b8eab705206680001da3583","cuenco","non_cognate","1","0",0.5754,"L3_group",0,-0.552689827864689,22,85,67.1875
"528","5b8eab705206680001da3583","aviso","non_cognate","1","0",0.5219,"L3_group",0,-0.650279280332769,22,85,67.1875
"529","5b8eab705206680001da3583","civas","pseudoword","0","0",0.7216,"L3_group",1,-0.326284310233723,22,85,67.1875
"530","5b8eab705206680001da3583","chocar","non_cognate","1","0",0.686,"L3_group",0,-0.376877651256252,22,85,67.1875
"531","5b8eab705206680001da3583","hilo","non_cognate","1","1",0.5684,"L3_group",1,-0.564929882759191,22,85,67.1875
"532","5b8eab705206680001da3583","vigor","two_way_cognate","1","1",0.5521,"L3_group",1,-0.594026089692138,22,85,67.1875
"533","5b8eab705206680001da3583","punta","non_cognate","1","1",0.6289,"L3_group",1,-0.463783017432679,22,85,67.1875
"534","5b8eab705206680001da3583","rizate","pseudoword","0","0",0.7414,"L3_group",1,-0.299214988265505,22,85,67.1875
"535","5b8eab705206680001da3583","plural","three_way_cognate","1","1",0.5684,"L3_group",1,-0.564929882759191,22,85,67.1875
"536","5b8eab705206680001da3583","jauda","pseudoword","0","0",0.5667,"L3_group",1,-0.567925215806564,22,85,67.1875
"537","5b8eab705206680001da3583","tapón","non_cognate","1","0",0.5891,"L3_group",0,-0.529159330454495,22,85,67.1875
"538","5b8eab705206680001da3583","aura","three_way_cognate","1","1",0.5919,"L3_group",1,-0.524417577285458,22,85,67.1875
"539","5b8eab705206680001da3583","cricó","pseudoword","0","0",0.5683,"L3_group",1,-0.565105830679061,22,85,67.1875
"540","5b8eab705206680001da3583","mauja","pseudoword","0","0",0.6302,"L3_group",1,-0.461718049658963,22,85,67.1875
"541","5b8eab705206680001da3583","trauma","three_way_cognate","1","1",0.6657,"L3_group",1,-0.406916160375479,22,85,67.1875
"542","5b8eab705206680001da3583","coyo","pseudoword","0","0",0.6239,"L3_group",1,-0.471765179865396,22,85,67.1875
"543","5b8eab705206680001da3583","tobre","pseudoword","0","0",0.6287,"L3_group",1,-0.464101083593122,22,85,67.1875
"544","5b8eab705206680001da3583","molor","pseudoword","0","0",0.6672,"L3_group",1,-0.4046654279376,22,85,67.1875
"545","5b8eab705206680001da3583","teñir","non_cognate","1","0",0.6242,"L3_group",0,-0.471284449145458,22,85,67.1875
"546","5b8eab705206680001da3583","gravés","pseudoword","0","1",0.6397,"L3_group",0,-0.446755962526045,22,85,67.1875
"547","5b8eab705206680001da3583","suelet","pseudoword","0","0",0.5488,"L3_group",1,-0.600021202570462,22,85,67.1875
"548","5b8eab705206680001da3583","rúo","pseudoword","0","0",0.5434,"L3_group",1,-0.60990958198989,22,85,67.1875
"549","5b8eab705206680001da3583","prave","pseudoword","0","0",0.5624,"L3_group",1,-0.575541938485682,22,85,67.1875
"550","5b8eab705206680001da3583","suelo","non_cognate","1","1",0.6492,"L3_group",1,-0.432014443341701,22,85,67.1875
"551","5b8eab705206680001da3583","clan","three_way_cognate","1","0",0.5831,"L3_group",0,-0.539396580754027,22,85,67.1875
"552","5b8eab705206680001da3583","tapa","non_cognate","1","1",0.6091,"L3_group",1,-0.495772821139698,22,85,67.1875
"553","5b8eab705206680001da3583","cuenco","non_cognate","1","0",0.5824,"L3_group",0,-0.540597782099661,22,85,67.1875
"554","5b8eab705206680001da3583","cengo","pseudoword","0","0",0.7352,"L3_group",1,-0.30761270794066,22,85,67.1875
"555","5b8eab705206680001da3583","diebro","pseudoword","0","0",0.5914,"L3_group",1,-0.52526267156376,22,85,67.1875
"556","5b8eab705206680001da3583","alla","pseudoword","0","1",0.5475,"L3_group",0,-0.602392817291481,22,85,67.1875
"557","5b8eab705206680001da3583","plan","three_way_cognate","1","1",0.6942,"L3_group",1,-0.364995175554451,22,85,67.1875
"558","5b8eab705206680001da3583","mibro","pseudoword","0","0",0.5917,"L3_group",1,-0.524755529299489,22,85,67.1875
"559","5b8eab705206680001da3583","ozoso","pseudoword","0","1",0.6271,"L3_group",0,-0.466649261433162,22,85,67.1875
"560","5b8eab705206680001da3583","pasta","two_way_cognate","1","1",0.6244,"L3_group",1,-0.47096409034086,22,85,67.1875
"561","5bbbdca68f3bd70001e713ef","vien","pseudoword","0","0",1.0534,"L3_group",1,0.0520230280671518,29,55,58.8541666666667
"562","5bbbdca68f3bd70001e713ef","chocar","non_cognate","1","0",1.4199,"L3_group",0,0.350586446598175,29,55,58.8541666666667
"563","5bbbdca68f3bd70001e713ef","tator","pseudoword","0","1",1.455,"L3_group",0,0.375005900623456,29,55,58.8541666666667
"564","5bbbdca68f3bd70001e713ef","rendir","non_cognate","1","0",0.9368,"L3_group",0,-0.0652854666986295,29,55,58.8541666666667
"565","5bbbdca68f3bd70001e713ef","trcia","pseudoword","0","1",1.2032,"L3_group",0,0.184984674213438,29,55,58.8541666666667
"566","5bbbdca68f3bd70001e713ef","moral","three_way_cognate","1","1",1.515,"L3_group",1,0.415415438961332,29,55,58.8541666666667
"567","5bbbdca68f3bd70001e713ef","diabo","pseudoword","0","1",1.323,"L3_group",0,0.279901885132819,29,55,58.8541666666667
"568","5bbbdca68f3bd70001e713ef","gino","pseudoword","0","0",1.4033,"L3_group",1,0.338826605774953,29,55,58.8541666666667
"569","5bbbdca68f3bd70001e713ef","estulo","pseudoword","0","1",1.6067,"L3_group",0,0.474182386067152,29,55,58.8541666666667
"570","5bbbdca68f3bd70001e713ef","muleta","non_cognate","1","1",1.7878,"L3_group",1,0.580985813671615,29,55,58.8541666666667
"571","5bbbdca68f3bd70001e713ef","torta","non_cognate","1","1",0.7543,"L3_group",1,-0.281965112122552,29,55,58.8541666666667
"572","5bbbdca68f3bd70001e713ef","morrá","pseudoword","0","1",1.0515,"L3_group",0,0.0502177161606175,29,55,58.8541666666667
"573","5bbbdca68f3bd70001e713ef","albino","three_way_cognate","1","0",0.9367,"L3_group",0,-0.0653922187670522,29,55,58.8541666666667
"574","5bbbdca68f3bd70001e713ef","nomata","pseudoword","0","1",1.5265,"L3_group",0,0.422977533192795,29,55,58.8541666666667
"575","5bbbdca68f3bd70001e713ef","pico","non_cognate","1","1",1.2755,"L3_group",1,0.243338258599729,29,55,58.8541666666667
"576","5bbbdca68f3bd70001e713ef","animal","two_way_cognate","1","0",1.5524,"L3_group",0,0.439802120512614,29,55,58.8541666666667
"577","5bbbdca68f3bd70001e713ef","esís","pseudoword","0","1",1.7504,"L3_group",0,0.559844333245525,29,55,58.8541666666667
"578","5bbbdca68f3bd70001e713ef","ánimo","non_cognate","1","0",1.6859,"L3_group",0,0.522299545839618,29,55,58.8541666666667
"579","5bbbdca68f3bd70001e713ef","hilo","non_cognate","1","0",1.2679,"L3_group",0,0.237361988551765,29,55,58.8541666666667
"580","5bbbdca68f3bd70001e713ef","civil","two_way_cognate","1","1",1.1701,"L3_group",1,0.157089215242775,29,55,58.8541666666667
"581","5bbbdca68f3bd70001e713ef","rizate","pseudoword","0","0",1.0199,"L3_group",1,0.0197045832743354,29,55,58.8541666666667
"582","5bbbdca68f3bd70001e713ef","plan","three_way_cognate","1","0",1.5339,"L3_group",0,0.427813511771926,29,55,58.8541666666667
"583","5bbbdca68f3bd70001e713ef","huenos","pseudoword","0","1",1.3367,"L3_group",0,0.29020388999529,29,55,58.8541666666667
"584","5bbbdca68f3bd70001e713ef","aviso","non_cognate","1","0",1.8877,"L3_group",0,0.635359156792551,29,55,58.8541666666667
"585","5bbbdca68f3bd70001e713ef","gió","pseudoword","0","0",0.8093,"L3_group",1,-0.211585602480481,29,55,58.8541666666667
"586","5bbbdca68f3bd70001e713ef","seled","pseudoword","0","0",1.3203,"L3_group",1,0.277858983503018,29,55,58.8541666666667
"587","5bbbdca68f3bd70001e713ef","extra","three_way_cognate","1","0",1.5006,"L3_group",0,0.405865028129491,29,55,58.8541666666667
"588","5bbbdca68f3bd70001e713ef","tapa","non_cognate","1","1",0.856,"L3_group",1,-0.155484902840395,29,55,58.8541666666667
"589","5bbbdca68f3bd70001e713ef","dogma","three_way_cognate","1","0",1.2864,"L3_group",0,0.251847619442565,29,55,58.8541666666667
"590","5bbbdca68f3bd70001e713ef","golla","pseudoword","0","0",1.4007,"L3_group",1,0.336972111662864,29,55,58.8541666666667
"591","5bbbdca68f3bd70001e713ef","horror","three_way_cognate","1","0",1.1198,"L3_group",0,0.113150097932656,29,55,58.8541666666667
"592","5bbbdca68f3bd70001e713ef","collar","two_way_cognate","1","0",1.2529,"L3_group",0,0.22546086426937,29,55,58.8541666666667
"593","5bbbdca68f3bd70001e713ef","pitis","pseudoword","0","0",0.9226,"L3_group",1,-0.0805595078584169,29,55,58.8541666666667
"594","5bbbdca68f3bd70001e713ef","aljizo","pseudoword","0","0",1.1881,"L3_group",1,0.172355392482105,29,55,58.8541666666667
"595","5bbbdca68f3bd70001e713ef","cuenco","non_cognate","1","1",0.8708,"L3_group",1,-0.138342949621745,29,55,58.8541666666667
"596","5bbbdca68f3bd70001e713ef","viable","two_way_cognate","1","0",1.1416,"L3_group",0,0.13243078718049,29,55,58.8541666666667
"597","5bbbdca68f3bd70001e713ef","color","two_way_cognate","1","0",0.9882,"L3_group",0,-0.0118701725704874,29,55,58.8541666666667
"598","5bbbdca68f3bd70001e713ef","chat","three_way_cognate","1","0",1.7187,"L3_group",0,0.541568191100505,29,55,58.8541666666667
"599","5bbbdca68f3bd70001e713ef","regalo","non_cognate","1","1",0.8203,"L3_group",1,-0.198085151973433,29,55,58.8541666666667
"600","5bbbdca68f3bd70001e713ef","plago","pseudoword","0","1",0.9572,"L3_group",0,-0.0437429229479187,29,55,58.8541666666667
"601","5bbbdca68f3bd70001e713ef","conso","pseudoword","0","0",1.303,"L3_group",1,0.264669298142708,29,55,58.8541666666667
"602","5bbbdca68f3bd70001e713ef","total","two_way_cognate","1","1",1.0869,"L3_group",1,0.0833296075870042,29,55,58.8541666666667
"603","5bbbdca68f3bd70001e713ef","laras","pseudoword","0","0",1.3891,"L3_group",1,0.328656055421207,29,55,58.8541666666667
"604","5bbbdca68f3bd70001e713ef","altar","three_way_cognate","1","1",0.9578,"L3_group",1,-0.0431162910736281,29,55,58.8541666666667
"605","5bbbdca68f3bd70001e713ef","portal","three_way_cognate","1","0",1.8848,"L3_group",0,0.633821714475131,29,55,58.8541666666667
"606","5bbbdca68f3bd70001e713ef","arane","pseudoword","0","0",1.0908,"L3_group",1,0.0869113719892964,29,55,58.8541666666667
"607","5bbbdca68f3bd70001e713ef","losco","pseudoword","0","1",1.2015,"L3_group",0,0.183570776194387,29,55,58.8541666666667
"608","5bbbdca68f3bd70001e713ef","casual","two_way_cognate","1","0",0.9691,"L3_group",0,-0.0313874732416327,29,55,58.8541666666667
"609","5bbbdca68f3bd70001e713ef","vinzó","pseudoword","0","0",1.4719,"L3_group",1,0.386554083216404,29,55,58.8541666666667
"610","5bbbdca68f3bd70001e713ef","listo","non_cognate","1","1",1.9854,"L3_group",1,0.685820405173484,29,55,58.8541666666667
"611","5bbbdca68f3bd70001e713ef","ceme","pseudoword","0","0",0.8511,"L3_group",1,-0.161225648499222,29,55,58.8541666666667
"612","5bbbdca68f3bd70001e713ef","lobe","pseudoword","0","0",1.1642,"L3_group",1,0.152034155855498,29,55,58.8541666666667
"613","5bbbdca68f3bd70001e713ef","feo","non_cognate","1","1",1.0722,"L3_group",1,0.0697126124113003,29,55,58.8541666666667
"614","5bbbdca68f3bd70001e713ef","aleta","non_cognate","1","1",1.1481,"L3_group",1,0.138108402117629,29,55,58.8541666666667
"615","5bbbdca68f3bd70001e713ef","enigma","two_way_cognate","1","0",1.0979,"L3_group",0,0.0933992642585498,29,55,58.8541666666667
"616","5bbbdca68f3bd70001e713ef","ozoso","pseudoword","0","1",1.2025,"L3_group",0,0.184402722997779,29,55,58.8541666666667
"617","5bbbdca68f3bd70001e713ef","prías","pseudoword","0","1",1.2141,"L3_group",0,0.194003061567792,29,55,58.8541666666667
"618","5bbbdca68f3bd70001e713ef","rizado","non_cognate","1","0",0.9741,"L3_group",0,-0.0262413112052271,29,55,58.8541666666667
"619","5bbbdca68f3bd70001e713ef","caro","non_cognate","1","1",1.0016,"L3_group",1,0.00159872136369707,29,55,58.8541666666667
"620","5bbbdca68f3bd70001e713ef","monue","pseudoword","0","0",0.8403,"L3_group",1,-0.173996308047964,29,55,58.8541666666667
"621","5bbbdca68f3bd70001e713ef","punta","non_cognate","1","1",1.1168,"L3_group",1,0.110467453025971,29,55,58.8541666666667
"622","5bbbdca68f3bd70001e713ef","venado","non_cognate","1","0",1.5157,"L3_group",0,0.415877378455474,29,55,58.8541666666667
"623","5bbbdca68f3bd70001e713ef","grigir","pseudoword","0","0",0.9028,"L3_group",1,-0.102254234038756,29,55,58.8541666666667
"624","5bbbdca68f3bd70001e713ef","suave","non_cognate","1","0",1.1335,"L3_group",0,0.125310190965447,29,55,58.8541666666667
"625","5bbbdca68f3bd70001e713ef","colcha","non_cognate","1","1",0.9698,"L3_group",1,-0.0306654143108852,29,55,58.8541666666667
"626","5bbbdca68f3bd70001e713ef","densó","pseudoword","0","1",1.1484,"L3_group",0,0.138369669264772,29,55,58.8541666666667
"627","5bbbdca68f3bd70001e713ef","editor","two_way_cognate","1","0",0.7994,"L3_group",0,-0.223893832704914,29,55,58.8541666666667
"628","5bbbdca68f3bd70001e713ef","enorme","non_cognate","1","1",1.2984,"L3_group",1,0.261132737218244,29,55,58.8541666666667
"629","5bbbdca68f3bd70001e713ef","hueas","pseudoword","0","1",1.7505,"L3_group",0,0.559901461412583,29,55,58.8541666666667
"630","5bbbdca68f3bd70001e713ef","torso","two_way_cognate","1","1",1.0166,"L3_group",1,0.016463726030665,29,55,58.8541666666667
"631","5bbbdca68f3bd70001e713ef","mango","three_way_cognate","1","0",1.4396,"L3_group",0,0.364365297222739,29,55,58.8541666666667
"632","5bbbdca68f3bd70001e713ef","clan","three_way_cognate","1","0",1.3464,"L3_group",0,0.297434363894459,29,55,58.8541666666667
"633","5bbbdca68f3bd70001e713ef","chote","pseudoword","0","0",1.1333,"L3_group",1,0.125133730756766,29,55,58.8541666666667
"634","5bbbdca68f3bd70001e713ef","medium","pseudoword","0","0",1.1131,"L3_group",1,0.107148915517043,29,55,58.8541666666667
"635","5bbbdca68f3bd70001e713ef","mortal","two_way_cognate","1","1",1.6412,"L3_group",1,0.495427681585894,29,55,58.8541666666667
"636","5bbbdca68f3bd70001e713ef","llzan","pseudoword","0","0",0.7845,"L3_group",1,-0.24270870680905,29,55,58.8541666666667
"637","5bbbdca68f3bd70001e713ef","peniz","pseudoword","0","0",1.2825,"L3_group",1,0.248811298062788,29,55,58.8541666666667
"638","5bbbdca68f3bd70001e713ef","barbs","pseudoword","0","0",1.2351,"L3_group",1,0.211151938461832,29,55,58.8541666666667
"639","5bbbdca68f3bd70001e713ef","hurcos","pseudoword","0","1",1.2319,"L3_group",0,0.208557692985791,29,55,58.8541666666667
"640","5bbbdca68f3bd70001e713ef","golf","three_way_cognate","1","0",1.0021,"L3_group",0,0.00209779808214612,29,55,58.8541666666667
"641","5bbbdca68f3bd70001e713ef","civas","pseudoword","0","1",1.0378,"L3_group",0,0.0371030879515023,29,55,58.8541666666667
"642","5bbbdca68f3bd70001e713ef","rumor","two_way_cognate","1","0",1.3392,"L3_group",0,0.292072420753074,29,55,58.8541666666667
"643","5bbbdca68f3bd70001e713ef","trugo","pseudoword","0","1",0.9328,"L3_group",0,-0.0695644633859092,29,55,58.8541666666667
"644","5bbbdca68f3bd70001e713ef","épinas","pseudoword","0","1",0.9711,"L3_group",0,-0.0293258293818287,29,55,58.8541666666667
"645","5bbbdca68f3bd70001e713ef","retina","three_way_cognate","1","0",1.0152,"L3_group",0,0.015085637418041,29,55,58.8541666666667
"646","5bbbdca68f3bd70001e713ef","lidena","pseudoword","0","0",1.0498,"L3_group",1,0.0485996698360624,29,55,58.8541666666667
"647","5bbbdca68f3bd70001e713ef","pelvis","two_way_cognate","1","0",0.7871,"L3_group",0,-0.239399973833733,29,55,58.8541666666667
"648","5bbbdca68f3bd70001e713ef","parre","pseudoword","0","0",0.8174,"L3_group",1,-0.20162670785196,29,55,58.8541666666667
"649","5bbbdca68f3bd70001e713ef","llevar","non_cognate","1","1",0.8476,"L3_group",1,-0.165346452587993,29,55,58.8541666666667
"650","5bbbdca68f3bd70001e713ef","ala","non_cognate","1","0",1.0086,"L3_group",0,0.00856323066048781,29,55,58.8541666666667
"651","5bbbdca68f3bd70001e713ef","ardor","two_way_cognate","1","0",0.9498,"L3_group",0,-0.0515038428671156,29,55,58.8541666666667
"652","5bbbdca68f3bd70001e713ef","molor","pseudoword","0","0",0.8035,"L3_group",1,-0.21877809380457,29,55,58.8541666666667
"653","5bbbdca68f3bd70001e713ef","forro","non_cognate","1","0",1.6516,"L3_group",0,0.501744515029798,29,55,58.8541666666667
"654","5bbbdca68f3bd70001e713ef","patada","non_cognate","1","1",0.9827,"L3_group",1,-0.0174513936137559,29,55,58.8541666666667
"655","5bbbdca68f3bd70001e713ef","pupica","pseudoword","0","1",1.4731,"L3_group",0,0.387369023838756,29,55,58.8541666666667
"656","5bbbdca68f3bd70001e713ef","listo","non_cognate","1","1",0.8814,"L3_group",1,-0.12624372657425,29,55,58.8541666666667
"657","5bbbdca68f3bd70001e713ef","gripar","pseudoword","0","1",1.1649,"L3_group",0,0.152635246423594,29,55,58.8541666666667
"658","5bbbdca68f3bd70001e713ef","clamor","two_way_cognate","1","0",1.0389,"L3_group",0,0.0381624610943489,29,55,58.8541666666667
"659","5bbbdca68f3bd70001e713ef","cengo","pseudoword","0","0",1.2814,"L3_group",1,0.247953230222784,29,55,58.8541666666667
"660","5bbbdca68f3bd70001e713ef","aura","three_way_cognate","1","0",1.7554,"L3_group",0,0.56269675117588,29,55,58.8541666666667
"661","5bbbdca68f3bd70001e713ef","cricó","pseudoword","0","1",1.1715,"L3_group",0,0.158284978965713,29,55,58.8541666666667
"662","5bbbdca68f3bd70001e713ef","panté","pseudoword","0","0",1.0725,"L3_group",1,0.069992371820035,29,55,58.8541666666667
"663","5bbbdca68f3bd70001e713ef","nasce","pseudoword","0","0",0.8313,"L3_group",1,-0.184764538445095,29,55,58.8541666666667
"664","5bbbdca68f3bd70001e713ef","tapón","non_cognate","1","0",1.2822,"L3_group",0,0.24857735257102,29,55,58.8541666666667
"665","5bbbdca68f3bd70001e713ef","llamar","non_cognate","1","1",0.9982,"L3_group",1,-0.00180162194662821,29,55,58.8541666666667
"666","5bbbdca68f3bd70001e713ef","mauja","pseudoword","0","0",1.0406,"L3_group",1,0.0397974698740661,29,55,58.8541666666667
"667","5bbbdca68f3bd70001e713ef","hotel","three_way_cognate","1","0",1.7674,"L3_group",0,0.569509540101767,29,55,58.8541666666667
"668","5bbbdca68f3bd70001e713ef","jauda","pseudoword","0","0",0.9039,"L3_group",1,-0.101036544177772,29,55,58.8541666666667
"669","5bbbdca68f3bd70001e713ef","honor","two_way_cognate","1","0",0.7984,"L3_group",0,-0.225145553984883,29,55,58.8541666666667
"670","5bbbdca68f3bd70001e713ef","tecia","pseudoword","0","1",0.7541,"L3_group",0,-0.282230293773536,29,55,58.8541666666667
"671","5bbbdca68f3bd70001e713ef","fiscal","two_way_cognate","1","1",1.2313,"L3_group",1,0.208070521816689,29,55,58.8541666666667
"672","5bbbdca68f3bd70001e713ef","asumie","pseudoword","0","0",1.0447,"L3_group",1,0.0437297628613252,29,55,58.8541666666667
"673","5bbbdca68f3bd70001e713ef","babrá","pseudoword","0","1",1.0983,"L3_group",0,0.0937635298121632,29,55,58.8541666666667
"674","5bbbdca68f3bd70001e713ef","suelo","non_cognate","1","1",1.0977,"L3_group",1,0.0932170817111337,29,55,58.8541666666667
"675","5bbbdca68f3bd70001e713ef","nocó","pseudoword","0","1",1.5698,"L3_group",0,0.450948222710576,29,55,58.8541666666667
"676","5bbbdca68f3bd70001e713ef","virios","pseudoword","0","0",1.0811,"L3_group",1,0.0779790413165886,29,55,58.8541666666667
"677","5bbbdca68f3bd70001e713ef","tobre","pseudoword","0","1",1.1651,"L3_group",0,0.152806920243758,29,55,58.8541666666667
"678","5bbbdca68f3bd70001e713ef","maldad","non_cognate","1","0",1.2633,"L3_group",0,0.233727344853855,29,55,58.8541666666667
"679","5bbbdca68f3bd70001e713ef","flecha","non_cognate","1","0",1.583,"L3_group",0,0.459321780898875,29,55,58.8541666666667
"680","5bbbdca68f3bd70001e713ef","aurora","two_way_cognate","1","1",1.7488,"L3_group",1,0.558929838440137,29,55,58.8541666666667
"681","5bbbdca68f3bd70001e713ef","drama","three_way_cognate","1","0",1.3643,"L3_group",0,0.310641476586691,29,55,58.8541666666667
"682","5bbbdca68f3bd70001e713ef","gravés","pseudoword","0","1",0.9474,"L3_group",0,-0.0540338884924856,29,55,58.8541666666667
"683","5bbbdca68f3bd70001e713ef","diroco","pseudoword","0","0",1.9658,"L3_group",1,0.675899287150392,29,55,58.8541666666667
"684","5bbbdca68f3bd70001e713ef","edioso","pseudoword","0","1",1.7193,"L3_group",0,0.541917231243664,29,55,58.8541666666667
"685","5bbbdca68f3bd70001e713ef","puñal","non_cognate","1","0",1.0404,"L3_group",0,0.0396052545923594,29,55,58.8541666666667
"686","5bbbdca68f3bd70001e713ef","cuenco","non_cognate","1","1",1.1907,"L3_group",1,0.174541369474992,29,55,58.8541666666667
"687","5bbbdca68f3bd70001e713ef","piano","two_way_cognate","1","0",1.1571,"L3_group",0,0.145916874900155,29,55,58.8541666666667
"688","5bbbdca68f3bd70001e713ef","boñaz","pseudoword","0","0",1.3967,"L3_group",1,0.334112311329589,29,55,58.8541666666667
"689","5bbbdca68f3bd70001e713ef","mibro","pseudoword","0","0",0.8489,"L3_group",1,-0.163813885238215,29,55,58.8541666666667
"690","5bbbdca68f3bd70001e713ef","siglo","non_cognate","1","0",1.6151,"L3_group",0,0.47939687426233,29,55,58.8541666666667
"691","5bbbdca68f3bd70001e713ef","vigor","two_way_cognate","1","0",1.2508,"L3_group",0,0.223783346601549,29,55,58.8541666666667
"692","5bbbdca68f3bd70001e713ef","pelvis","two_way_cognate","1","0",0.7852,"L3_group",0,-0.241816816579831,29,55,58.8541666666667
"693","5bbbdca68f3bd70001e713ef","anfia","pseudoword","0","0",1.7505,"L3_group",1,0.559901461412583,29,55,58.8541666666667
"694","5bbbdca68f3bd70001e713ef","dobbo","pseudoword","0","0",0.815,"L3_group",1,-0.204567165741274,29,55,58.8541666666667
"695","5bbbdca68f3bd70001e713ef","rostro","non_cognate","1","0",1.1805,"L3_group",0,0.165938077543431,29,55,58.8541666666667
"696","5bbbdca68f3bd70001e713ef","aduana","non_cognate","1","1",0.9985,"L3_group",1,-0.00150112612626709,29,55,58.8541666666667
"697","5bbbdca68f3bd70001e713ef","martir","pseudoword","0","0",1.5499,"L3_group",1,0.438190412720868,29,55,58.8541666666667
"698","5bbbdca68f3bd70001e713ef","pegar","non_cognate","1","1",1.0943,"L3_group",1,0.0901148894422603,29,55,58.8541666666667
"699","5bbbdca68f3bd70001e713ef","dibrea","pseudoword","0","0",1.1143,"L3_group",1,0.108226405070871,29,55,58.8541666666667
"700","5bbbdca68f3bd70001e713ef","chorde","pseudoword","0","0",1.2828,"L3_group",1,0.249045188836863,29,55,58.8541666666667
"701","5bbbdca68f3bd70001e713ef","bugor","pseudoword","0","0",1.1647,"L3_group",1,0.152463543126469,29,55,58.8541666666667
"702","5bbbdca68f3bd70001e713ef","brillo","non_cognate","1","1",0.9571,"L3_group",1,-0.0438473997802763,29,55,58.8541666666667
"703","5bbbdca68f3bd70001e713ef","sacar","non_cognate","1","1",1.0232,"L3_group",1,0.022934971282496,29,55,58.8541666666667
"704","5bbbdca68f3bd70001e713ef","actor","two_way_cognate","1","0",1.0973,"L3_group",0,0.0928526170146163,29,55,58.8541666666667
"705","5bbbdca68f3bd70001e713ef","próces","pseudoword","0","0",1.9315,"L3_group",1,0.658296903124199,29,55,58.8541666666667
"706","5bbbdca68f3bd70001e713ef","sasos","pseudoword","0","1",1.2317,"L3_group",0,0.208395328965302,29,55,58.8541666666667
"707","5bbbdca68f3bd70001e713ef","dogue","pseudoword","0","0",1.2026,"L3_group",1,0.184485879623331,29,55,58.8541666666667
"708","5bbbdca68f3bd70001e713ef","entodo","pseudoword","0","0",1.7722,"L3_group",1,0.572221712631065,29,55,58.8541666666667
"709","5bbbdca68f3bd70001e713ef","suelet","pseudoword","0","0",1.1151,"L3_group",1,0.108944086989179,29,55,58.8541666666667
"710","5bbbdca68f3bd70001e713ef","cobén","pseudoword","0","0",0.9642,"L3_group",1,-0.0364565370106152,29,55,58.8541666666667
"711","5bbbdca68f3bd70001e713ef","desaro","pseudoword","0","1",0.8833,"L3_group",0,-0.124090385231051,29,55,58.8541666666667
"712","5bbbdca68f3bd70001e713ef","muñeca","non_cognate","1","1",1.1532,"L3_group",1,0.14254068678211,29,55,58.8541666666667
"713","5bbbdca68f3bd70001e713ef","sierra","non_cognate","1","1",0.8853,"L3_group",1,-0.121828708365134,29,55,58.8541666666667
"714","5bbbdca68f3bd70001e713ef","diebro","pseudoword","0","0",1.7646,"L3_group",1,0.567924035805867,29,55,58.8541666666667
"715","5bbbdca68f3bd70001e713ef","amplir","pseudoword","0","1",0.8309,"L3_group",0,-0.185245828311201,29,55,58.8541666666667
"716","5bbbdca68f3bd70001e713ef","dubo","pseudoword","0","0",0.8467,"L3_group",1,-0.166408838333906,29,55,58.8541666666667
"717","5bbbdca68f3bd70001e713ef","pabea","pseudoword","0","0",1.1678,"L3_group",1,0.1551216368673,29,55,58.8541666666667
"718","5bbbdca68f3bd70001e713ef","kugis","pseudoword","0","0",0.7558,"L3_group",1,-0.279978488066748,29,55,58.8541666666667
"719","5bbbdca68f3bd70001e713ef","flora","three_way_cognate","1","0",1.235,"L3_group",0,0.211070970079941,29,55,58.8541666666667
"720","5bbbdca68f3bd70001e713ef","teñir","non_cognate","1","0",0.8763,"L3_group",0,-0.132046780920332,29,55,58.8541666666667
"721","5bbbdca68f3bd70001e713ef","alla","pseudoword","0","1",1.2041,"L3_group",0,0.185732399916036,29,55,58.8541666666667
"722","5bbbdca68f3bd70001e713ef","test","three_way_cognate","1","0",0.7478,"L3_group",0,-0.290619716439124,29,55,58.8541666666667
"723","5bbbdca68f3bd70001e713ef","gotro","pseudoword","0","0",1.9345,"L3_group",1,0.659848895158431,29,55,58.8541666666667
"724","5bbbdca68f3bd70001e713ef","samón","pseudoword","0","1",1.7397,"L3_group",0,0.553712684568368,29,55,58.8541666666667
"725","5bbbdca68f3bd70001e713ef","blando","non_cognate","1","1",1.0878,"L3_group",1,0.0841573080067234,29,55,58.8541666666667
"726","5bbbdca68f3bd70001e713ef","fomeó","pseudoword","0","1",0.7451,"L3_group",0,-0.294236841422455,29,55,58.8541666666667
"727","5bbbdca68f3bd70001e713ef","percha","non_cognate","1","0",1.804,"L3_group",0,0.590006421640432,29,55,58.8541666666667
"728","5bbbdca68f3bd70001e713ef","inichó","pseudoword","0","1",1.4708,"L3_group",0,0.38580647044498,29,55,58.8541666666667
"729","5bbbdca68f3bd70001e713ef","frasis","pseudoword","0","0",1.215,"L3_group",1,0.194744076792512,29,55,58.8541666666667
"730","5bbbdca68f3bd70001e713ef","coyo","pseudoword","0","0",0.9521,"L3_group",1,-0.0490852076904914,29,55,58.8541666666667
"731","5bbbdca68f3bd70001e713ef","pasta","two_way_cognate","1","0",0.9689,"L3_group",0,-0.0315938715911786,29,55,58.8541666666667
"732","5bbbdca68f3bd70001e713ef","vueras","pseudoword","0","1",0.8807,"L3_group",0,-0.127038233170723,29,55,58.8541666666667
"733","5bbbdca68f3bd70001e713ef","bará","pseudoword","0","1",0.6368,"L3_group",0,-0.451299644451964,29,55,58.8541666666667
"734","5bbbdca68f3bd70001e713ef","harvé","pseudoword","0","0",0.984,"L3_group",1,-0.0161293819298836,29,55,58.8541666666667
"735","5bbbdca68f3bd70001e713ef","emén","pseudoword","0","0",0.9021,"L3_group",1,-0.103029900319544,29,55,58.8541666666667
"736","5bbbdca68f3bd70001e713ef","tiza","non_cognate","1","0",1.5029,"L3_group",0,0.407396574957912,29,55,58.8541666666667
"737","5bbbdca68f3bd70001e713ef","guerra","non_cognate","1","1",1.6682,"L3_group",1,0.511745200825374,29,55,58.8541666666667
"738","5bbbdca68f3bd70001e713ef","pelí","pseudoword","0","1",1.9647,"L3_group",0,0.67533956190998,29,55,58.8541666666667
"739","5bbbdca68f3bd70001e713ef","tumor","three_way_cognate","1","0",0.7534,"L3_group",0,-0.283158983724196,29,55,58.8541666666667
"740","5c39afacf179bd0001c8756a","llamar","non_cognate","1","1",1.1123,"L3_group",1,0.106429943615847,24,92,72.9166666666667
"741","5c39afacf179bd0001c8756a","torta","non_cognate","1","1",1.3371,"L3_group",1,0.290503089638483,24,92,72.9166666666667
"742","5c39afacf179bd0001c8756a","cobén","pseudoword","0","0",1.1137,"L3_group",1,0.107687805416917,24,92,72.9166666666667
"743","5c39afacf179bd0001c8756a","vueras","pseudoword","0","0",1.6091,"L3_group",1,0.475675016482967,24,92,72.9166666666667
"744","5c39afacf179bd0001c8756a","tumor","three_way_cognate","1","1",1.2254,"L3_group",1,0.203267321309417,24,92,72.9166666666667
"745","5c39afacf179bd0001c8756a","tobre","pseudoword","0","0",1.1619,"L3_group",1,0.150056596206679,24,92,72.9166666666667
"746","5c39afacf179bd0001c8756a","losco","pseudoword","0","0",1.0761,"L3_group",1,0.0733433942242096,24,92,72.9166666666667
"747","5c39afacf179bd0001c8756a","enigma","two_way_cognate","1","0",1.0486,"L3_group",0,0.0474559411562953,24,92,72.9166666666667
"748","5c39afacf179bd0001c8756a","dubo","pseudoword","0","0",0.6097,"L3_group",1,-0.494788246068367,24,92,72.9166666666667
"749","5c39afacf179bd0001c8756a","jauda","pseudoword","0","0",0.9379,"L3_group",1,-0.0641119454672443,24,92,72.9166666666667
"750","5c39afacf179bd0001c8756a","diebro","pseudoword","0","0",0.6241,"L3_group",1,-0.47144466704214,24,92,72.9166666666667
"751","5c39afacf179bd0001c8756a","rizate","pseudoword","0","0",0.7295,"L3_group",1,-0.315395911019297,24,92,72.9166666666667
"752","5c39afacf179bd0001c8756a","caro","non_cognate","1","1",0.7733,"L3_group",1,-0.257088207367147,24,92,72.9166666666667
"753","5c39afacf179bd0001c8756a","tradía","pseudoword","0","0",1.6044,"L3_group",1,0.472749854913761,24,92,72.9166666666667
"754","5c39afacf179bd0001c8756a","teñir","non_cognate","1","0",0.8552,"L3_group",0,-0.156419919271302,24,92,72.9166666666667
"755","5c39afacf179bd0001c8756a","virios","pseudoword","0","0",0.8273,"L3_group",1,-0.189587892786,24,92,72.9166666666667
"756","5c39afacf179bd0001c8756a","mafia","three_way_cognate","1","1",0.7534,"L3_group",1,-0.283158983724196,24,92,72.9166666666667
"757","5c39afacf179bd0001c8756a","arane","pseudoword","0","0",0.9748,"L3_group",1,-0.0255229572310859,24,92,72.9166666666667
"758","5c39afacf179bd0001c8756a","aljizo","pseudoword","0","0",0.8054,"L3_group",1,-0.216416230564783,24,92,72.9166666666667
"759","5c39afacf179bd0001c8756a","albino","three_way_cognate","1","1",1.4007,"L3_group",1,0.336972111662864,24,92,72.9166666666667
"760","5c39afacf179bd0001c8756a","hilo","non_cognate","1","0",0.8808,"L3_group",0,-0.126924693573667,24,92,72.9166666666667
"761","5c39afacf179bd0001c8756a","aurora","two_way_cognate","1","1",1.2163,"L3_group",1,0.195813463642254,24,92,72.9166666666667
"762","5c39afacf179bd0001c8756a","colcha","non_cognate","1","0",0.8711,"L3_group",0,-0.137998498157291,24,92,72.9166666666667
"763","5c39afacf179bd0001c8756a","morrá","pseudoword","0","0",0.6639,"L3_group",1,-0.409623743257023,24,92,72.9166666666667
"764","5c39afacf179bd0001c8756a","cuenco","non_cognate","1","0",0.929,"L3_group",0,-0.0736465401682985,24,92,72.9166666666667
"765","5c39afacf179bd0001c8756a","viable","two_way_cognate","1","0",0.5844,"L3_group",0,-0.537169599105593,24,92,72.9166666666667
"766","5c39afacf179bd0001c8756a","conso","pseudoword","0","0",0.9211,"L3_group",1,-0.0821866709879471,24,92,72.9166666666667
"767","5c39afacf179bd0001c8756a","regalo","non_cognate","1","1",0.6397,"L3_group",1,-0.446755962526045,24,92,72.9166666666667
"768","5c39afacf179bd0001c8756a","nocó","pseudoword","0","0",0.6224,"L3_group",1,-0.474172306117955,24,92,72.9166666666667
"769","5c39afacf179bd0001c8756a","gripar","pseudoword","0","0",1.3439,"L3_group",1,0.295575834570881,24,92,72.9166666666667
"770","5c39afacf179bd0001c8756a","collar","two_way_cognate","1","1",0.7899,"L3_group",1,-0.235848923811764,24,92,72.9166666666667
"771","5c39afacf179bd0001c8756a","prave","pseudoword","0","0",0.8469,"L3_group",1,-0.166172655054584,24,92,72.9166666666667
"772","5c39afacf179bd0001c8756a","halo","two_way_cognate","1","0",0.892,"L3_group",0,-0.114289146402128,24,92,72.9166666666667
"773","5c39afacf179bd0001c8756a","asumie","pseudoword","0","0",0.9568,"L3_group",1,-0.0441608957857698,24,92,72.9166666666667
"774","5c39afacf179bd0001c8756a","esís","pseudoword","0","0",0.9097,"L3_group",1,-0.0946404041541209,24,92,72.9166666666667
"775","5c39afacf179bd0001c8756a","kilo","three_way_cognate","1","1",1.0306,"L3_group",1,0.0301411569119868,24,92,72.9166666666667
"776","5c39afacf179bd0001c8756a","extra","three_way_cognate","1","1",0.9824,"L3_group",1,-0.017756721589259,24,92,72.9166666666667
"777","5c39afacf179bd0001c8756a","rendir","non_cognate","1","1",0.7806,"L3_group",1,-0.247692424235623,24,92,72.9166666666667
"778","5c39afacf179bd0001c8756a","alla","pseudoword","0","1",1.0794,"L3_group",0,0.0764053312024053,24,92,72.9166666666667
"779","5c39afacf179bd0001c8756a","portal","three_way_cognate","1","1",1.0159,"L3_group",1,0.0157749191153622,24,92,72.9166666666667
"780","5c39afacf179bd0001c8756a","hotel","three_way_cognate","1","1",0.6142,"L3_group",1,-0.487434670975415,24,92,72.9166666666667
"781","5c39afacf179bd0001c8756a","monue","pseudoword","0","0",0.782,"L3_group",1,-0.245900538436826,24,92,72.9166666666667
"782","5c39afacf179bd0001c8756a","grigir","pseudoword","0","0",1.012,"L3_group",1,0.0119285708652738,24,92,72.9166666666667
"783","5c39afacf179bd0001c8756a","estulo","pseudoword","0","0",0.9642,"L3_group",1,-0.0364565370106152,24,92,72.9166666666667
"784","5c39afacf179bd0001c8756a","casual","two_way_cognate","1","1",0.7059,"L3_group",1,-0.348281694580711,24,92,72.9166666666667
"785","5c39afacf179bd0001c8756a","torso","two_way_cognate","1","1",0.9378,"L3_group",1,-0.0642185723266512,24,92,72.9166666666667
"786","5c39afacf179bd0001c8756a","mortal","two_way_cognate","1","1",0.8355,"L3_group",1,-0.179724930946689,24,92,72.9166666666667
"787","5c39afacf179bd0001c8756a","pico","non_cognate","1","1",0.8636,"L3_group",1,-0.146645580341485,24,92,72.9166666666667
"788","5c39afacf179bd0001c8756a","hálito","non_cognate","1","0",0.8187,"L3_group",0,-0.200037562599735,24,92,72.9166666666667
"789","5c39afacf179bd0001c8756a","aduana","non_cognate","1","0",0.7105,"L3_group",0,-0.341786331444982,24,92,72.9166666666667
"790","5c39afacf179bd0001c8756a","vinzó","pseudoword","0","0",0.7507,"L3_group",1,-0.28674917440318,24,92,72.9166666666667
"791","5c39afacf179bd0001c8756a","altar","three_way_cognate","1","1",1.1957,"L3_group",1,0.178731787943397,24,92,72.9166666666667
"792","5c39afacf179bd0001c8756a","suelo","non_cognate","1","1",1.0201,"L3_group",1,0.0199006617063362,24,92,72.9166666666667
"793","5c39afacf179bd0001c8756a","total","two_way_cognate","1","1",0.6529,"L3_group",1,-0.426331300789549,24,92,72.9166666666667
"794","5c39afacf179bd0001c8756a","clan","three_way_cognate","1","0",1.0599,"L3_group",0,0.0581745640510722,24,92,72.9166666666667
"795","5c39afacf179bd0001c8756a","sacar","non_cognate","1","1",0.5303,"L3_group",1,-0.634312394839053,24,92,72.9166666666667
"796","5c39afacf179bd0001c8756a","coyo","pseudoword","0","0",0.8807,"L3_group",1,-0.127038233170723,24,92,72.9166666666667
"797","5c39afacf179bd0001c8756a","chote","pseudoword","0","0",0.9248,"L3_group",1,-0.0781777810640241,24,92,72.9166666666667
"798","5c39afacf179bd0001c8756a","chorde","pseudoword","0","0",0.5683,"L3_group",1,-0.565105830679061,24,92,72.9166666666667
"799","5c39afacf179bd0001c8756a","dibrea","pseudoword","0","0",0.7936,"L3_group",1,-0.231175723011474,24,92,72.9166666666667
"800","5c39afacf179bd0001c8756a","seled","pseudoword","0","0",0.6585,"L3_group",1,-0.417790757798801,24,92,72.9166666666667
"801","5c39afacf179bd0001c8756a","listo","non_cognate","1","1",0.8114,"L3_group",1,-0.20899412820979,24,92,72.9166666666667
"802","5c39afacf179bd0001c8756a","samón","pseudoword","0","0",1.1369,"L3_group",1,0.128305260152924,24,92,72.9166666666667
"803","5c39afacf179bd0001c8756a","test","three_way_cognate","1","1",0.845,"L3_group",1,-0.168418651624963,24,92,72.9166666666667
"804","5c39afacf179bd0001c8756a","próces","pseudoword","0","0",0.6185,"L3_group",1,-0.480458087149594,24,92,72.9166666666667
"805","5c39afacf179bd0001c8756a","actor","two_way_cognate","1","1",0.744,"L3_group",1,-0.295714244149045,24,92,72.9166666666667
"806","5c39afacf179bd0001c8756a","laras","pseudoword","0","0",0.7932,"L3_group",1,-0.231679882336496,24,92,72.9166666666667
"807","5c39afacf179bd0001c8756a","suelet","pseudoword","0","0",0.775,"L3_group",1,-0.25489224962879,24,92,72.9166666666667
"808","5c39afacf179bd0001c8756a","aleta","non_cognate","1","0",0.8129,"L3_group",0,-0.20714717822961,24,92,72.9166666666667
"809","5c39afacf179bd0001c8756a","dogma","three_way_cognate","1","1",0.9809,"L3_group",1,-0.0192847614118671,24,92,72.9166666666667
"810","5c39afacf179bd0001c8756a","drama","three_way_cognate","1","1",0.7319,"L3_group",1,-0.312111386374956,24,92,72.9166666666667
"811","5c39afacf179bd0001c8756a","tapa","non_cognate","1","1",0.6461,"L3_group",1,-0.436800988418017,24,92,72.9166666666667
"812","5c39afacf179bd0001c8756a","hueas","pseudoword","0","0",0.937,"L3_group",1,-0.0650719967437148,24,92,72.9166666666667
