lextale_instructions.started,lextale_instructions.stopped,lextale_instructions_loop.thisRepN,lextale_instructions_loop.thisTrialN,lextale_instructions_loop.thisN,lextale_instructions_loop.thisIndex,lextale_instructions_loop.ran,instructions_text,continue_text,participant,session,date,expName,psychopyVersion,OS,frameRate,lextale_practice.started,lextale_practice.stopped,key_resp_lextale_practice.keys,key_resp_lextale_practice.corr,key_resp_lextale_practice.rt,key_resp_lextale_practice.duration,lextale_practice_feedback.started,lextale_practice_feedback.stopped,lextale_practice_trials.thisRepN,lextale_practice_trials.thisTrialN,lextale_practice_trials.thisN,lextale_practice_trials.thisIndex,lextale_practice_trials.ran,stim,word,correct_response,prac_button_real,prac_button_false,lextale_check.started,lextale_check.stopped,lextale_trial.started,lextale_trial.stopped,key_resp_lextale_trial.keys,key_resp_lextale_trial.corr,key_resp_lextale_trial.rt,key_resp_lextale_trial.duration,lextail_trials.thisRepN,lextail_trials.thisTrialN,lextail_trials.thisN,lextail_trials.thisIndex,lextail_trials.ran,type,correct_reponse,button_real,button_false
0.0045,46.593,0,0,0,0,1,"Este es un test de vocabulario en español. 
  
  A continuación vas a ver 90 secuencias de letras que parecen 'españolas'.
  
  Solo algunas de ellas son palabras de verdad.",(presiona la barra espaciadora para continuar),5dd6d370194e486498e13ab6,001,2024-06-02_08h24.52.709,empathy_intonation_perc,2024.1.4,MacIntel,60.60606061,,,,,,,,,,,,,,,,,,,,,,,,,,,,,,,,,,,
46.5935,56.9021,0,1,1,1,1,"Por favor, señala las palabras que tú conoces (aquellas que estás convencido que son palabras españolas, incluso aunque no seas capaz de dar el significado preciso).",(presiona la barra espaciadora para continuar),5dd6d370194e486498e13ab6,001,2024-06-02_08h24.52.709,empathy_intonation_perc,2024.1.4,MacIntel,60.60606061,,,,,,,,,,,,,,,,,,,,,,,,,,,,,,,,,,,
56.9114,65.9305,0,2,2,2,1,Pero cuidado: los errores se penalizan. Por eso no tiene sentido tratar de incrementar tu puntuación marcando como reales palabras que nunca has visto.,(presiona la barra espaciadora para continuar),5dd6d370194e486498e13ab6,001,2024-06-02_08h24.52.709,empathy_intonation_perc,2024.1.4,MacIntel,60.60606061,,,,,,,,,,,,,,,,,,,,,,,,,,,,,,,,,,,
65.9401,89.9069,0,3,3,3,1,"Presiona la tecla 1 si piensas que es una palabra real y la tecla 
  0 si piensas que es una palabra falsa. 
  
  Vamos a practicar un poco...",(presiona la barra espaciadora para continuar),5dd6d370194e486498e13ab6,001,2024-06-02_08h24.52.709,empathy_intonation_perc,2024.1.4,MacIntel,60.60606061,,,,,,,,,,,,,,,,,,,,,,,,,,,,,,,,,,,
,,,,,,,,,5dd6d370194e486498e13ab6,001,2024-06-02_08h24.52.709,empathy_intonation_perc,2024.1.4,MacIntel,60.60606061,89.9199,92.4019,1,0,1.9638,,92.4021,93.3994,0,0,0,0,1,0,depiste,0,REAL,FALSA,,,,,,,,,,,,,,,,,
,,,,,,,,,5dd6d370194e486498e13ab6,001,2024-06-02_08h24.52.709,empathy_intonation_perc,2024.1.4,MacIntel,60.60606061,93.3998,95.8766,1,1,1.9515,,95.8767,96.8744,0,1,1,1,1,0,sí,1,REAL,FALSA,,,,,,,,,,,,,,,,,
,,,,,,,,,5dd6d370194e486498e13ab6,001,2024-06-02_08h24.52.709,empathy_intonation_perc,2024.1.4,MacIntel,60.60606061,96.8837,99.4508,1,0,2.048,,99.4508,100.4492,0,2,2,2,1,0,coné,0,REAL,FALSA,,,,,,,,,,,,,,,,,
,,,,,,,,,5dd6d370194e486498e13ab6,001,2024-06-02_08h24.52.709,empathy_intonation_perc,2024.1.4,MacIntel,60.60606061,100.4585,102.6607,1,0,1.6784,,102.6607,103.6586,0,3,3,3,1,0,calpar,0,REAL,FALSA,,,,,,,,,,,,,,,,,
,,,,,,,,,5dd6d370194e486498e13ab6,001,2024-06-02_08h24.52.709,empathy_intonation_perc,2024.1.4,MacIntel,60.60606061,103.6589,108.2976,1,0,4.1078,,108.2977,109.2952,0,4,4,4,1,0,joten,0,REAL,FALSA,,,,,,,,,,,,,,,,,
,,,,,,,,,5dd6d370194e486498e13ab6,001,2024-06-02_08h24.52.709,empathy_intonation_perc,2024.1.4,MacIntel,60.60606061,109.3052,112.5042,0,0,2.6786,,112.5042,113.5019,0,5,5,5,1,0,sacapuntas,1,REAL,FALSA,,,,,,,,,,,,,,,,,
,,,,,,,,,5dd6d370194e486498e13ab6,001,2024-06-02_08h24.52.709,empathy_intonation_perc,2024.1.4,MacIntel,60.60606061,113.5112,116.8098,1,0,2.7804,,116.8098,117.808,0,6,6,6,1,0,priba,0,REAL,FALSA,,,,,,,,,,,,,,,,,
,,,,,,,,,5dd6d370194e486498e13ab6,001,2024-06-02_08h24.52.709,empathy_intonation_perc,2024.1.4,MacIntel,60.60606061,117.8173,120.7842,1,0,2.4439,,120.7842,121.7824,0,7,7,7,1,0,pelasula,0,REAL,FALSA,,,,,,,,,,,,,,,,,
,,,,,,,,,5dd6d370194e486498e13ab6,001,2024-06-02_08h24.52.709,empathy_intonation_perc,2024.1.4,MacIntel,60.60606061,121.7918,123.5117,1,1,1.1954,,123.5118,124.5093,0,8,8,8,1,0,bien,1,REAL,FALSA,,,,,,,,,,,,,,,,,
,,,,,,,,,5dd6d370194e486498e13ab6,001,2024-06-02_08h24.52.709,empathy_intonation_perc,2024.1.4,MacIntel,60.60606061,124.5189,125.9381,1,1,0.9034,,125.9381,126.936,0,9,9,9,1,0,casa,1,REAL,FALSA,,,,,,,,,,,,,,,,,
,,,,,,,,,5dd6d370194e486498e13ab6,001,2024-06-02_08h24.52.709,empathy_intonation_perc,2024.1.4,MacIntel,60.60606061,126.9362,128.6326,1,0,1.1627,,128.6326,129.6306,0,10,10,10,1,0,lejo,0,REAL,FALSA,,,,,,,,,,,,,,,,,
,,,,,,,,,5dd6d370194e486498e13ab6,001,2024-06-02_08h24.52.709,empathy_intonation_perc,2024.1.4,MacIntel,60.60606061,129.6308,131.7742,1,0,1.6204,,131.7743,132.7732,0,11,11,11,1,0,pretantas,0,REAL,FALSA,,,,,,,,,,,,,,,,,
,,,,,,,,,5dd6d370194e486498e13ab6,001,2024-06-02_08h24.52.709,empathy_intonation_perc,2024.1.4,MacIntel,60.60606061,,,,,,,,,,,,,,,,,,,132.7734,137.2296,,,,,,,,,,,,,,,
,,,,,,,,,5dd6d370194e486498e13ab6,001,2024-06-02_08h24.52.709,empathy_intonation_perc,2024.1.4,MacIntel,60.60606061,,,,,,,,,,,,,,51,tandir,,,,,,137.2441,142.1346,1,0,4.3723,,0,0,0,50,1,pseudoword,0,REAL,FALSA
,,,,,,,,,5dd6d370194e486498e13ab6,001,2024-06-02_08h24.52.709,empathy_intonation_perc,2024.1.4,MacIntel,60.60606061,,,,,,,,,,,,,,59,mandio,,,,,,142.1441,144.645,0,1,1.9747,,0,1,1,58,1,pseudoword,0,REAL,FALSA
,,,,,,,,,5dd6d370194e486498e13ab6,001,2024-06-02_08h24.52.709,empathy_intonation_perc,2024.1.4,MacIntel,60.60606061,,,,,,,,,,,,,,16,animal,,,,,,144.6453,147.7366,1,0,2.5591,,0,2,2,15,1,two_way_cognate,1,REAL,FALSA
,,,,,,,,,5dd6d370194e486498e13ab6,001,2024-06-02_08h24.52.709,empathy_intonation_perc,2024.1.4,MacIntel,60.60606061,,,,,,,,,,,,,,23,editor,,,,,,147.7369,150.2641,1,0,1.9924,,0,3,3,22,1,two_way_cognate,1,REAL,FALSA
,,,,,,,,,5dd6d370194e486498e13ab6,001,2024-06-02_08h24.52.709,empathy_intonation_perc,2024.1.4,MacIntel,60.60606061,,,,,,,,,,,,,,76,orida,,,,,,150.273,152.6096,1,0,1.8152,,0,4,4,75,1,pseudoword,0,REAL,FALSA
,,,,,,,,,5dd6d370194e486498e13ab6,001,2024-06-02_08h24.52.709,empathy_intonation_perc,2024.1.4,MacIntel,60.60606061,,,,,,,,,,,,,,95,aclaya,,,,,,152.6098,155.0875,1,0,1.9506,,0,5,5,94,1,pseudoword,0,REAL,FALSA
,,,,,,,,,5dd6d370194e486498e13ab6,001,2024-06-02_08h24.52.709,empathy_intonation_perc,2024.1.4,MacIntel,60.60606061,,,,,,,,,,,,,,85,tutaba,,,,,,155.0877,157.149,0,1,1.5368,,0,6,6,84,1,pseudoword,0,REAL,FALSA
,,,,,,,,,5dd6d370194e486498e13ab6,001,2024-06-02_08h24.52.709,empathy_intonation_perc,2024.1.4,MacIntel,60.60606061,,,,,,,,,,,,,,52,coriar,,,,,,157.1492,159.3106,1,0,1.628,,0,7,7,51,1,pseudoword,0,REAL,FALSA
,,,,,,,,,5dd6d370194e486498e13ab6,001,2024-06-02_08h24.52.709,empathy_intonation_perc,2024.1.4,MacIntel,60.60606061,,,,,,,,,,,,,,55,ropis,,,,,,159.3108,161.272,0,1,1.4255,,0,8,8,54,1,pseudoword,0,REAL,FALSA
,,,,,,,,,5dd6d370194e486498e13ab6,001,2024-06-02_08h24.52.709,empathy_intonation_perc,2024.1.4,MacIntel,60.60606061,,,,,,,,,,,,,,86,abamos,,,,,,161.2722,162.9011,1,0,1.1016,,0,9,9,85,1,pseudoword,0,REAL,FALSA
,,,,,,,,,5dd6d370194e486498e13ab6,001,2024-06-02_08h24.52.709,empathy_intonation_perc,2024.1.4,MacIntel,60.60606061,,,,,,,,,,,,,,44,llamar,,,,,,162.9014,164.4975,1,0,1.0687,,0,10,10,43,1,non_cognate,1,REAL,FALSA
,,,,,,,,,5dd6d370194e486498e13ab6,001,2024-06-02_08h24.52.709,empathy_intonation_perc,2024.1.4,MacIntel,60.60606061,,,,,,,,,,,,,,75,babrá,,,,,,164.4978,166.61,0,1,1.5812,,0,11,11,74,1,pseudoword,0,REAL,FALSA
,,,,,,,,,5dd6d370194e486498e13ab6,001,2024-06-02_08h24.52.709,empathy_intonation_perc,2024.1.4,MacIntel,60.60606061,,,,,,,,,,,,,,3,bingo,,,,,,166.6102,168.9373,0,1,1.8009,,0,12,12,2,1,three_way_cognate,1,REAL,FALSA
,,,,,,,,,5dd6d370194e486498e13ab6,001,2024-06-02_08h24.52.709,empathy_intonation_perc,2024.1.4,MacIntel,60.60606061,,,,,,,,,,,,,,54,barbo,,,,,,168.9375,171.183,0,1,1.7111,,0,13,13,53,1,pseudoword,0,REAL,FALSA
,,,,,,,,,5dd6d370194e486498e13ab6,001,2024-06-02_08h24.52.709,empathy_intonation_perc,2024.1.4,MacIntel,60.60606061,,,,,,,,,,,,,,4,chip,,,,,,171.1833,173.2612,0,1,1.5463,,0,14,14,3,1,three_way_cognate,1,REAL,FALSA
,,,,,,,,,5dd6d370194e486498e13ab6,001,2024-06-02_08h24.52.709,empathy_intonation_perc,2024.1.4,MacIntel,60.60606061,,,,,,,,,,,,,,35,pájaro,,,,,,173.2614,175.3063,1,0,1.5116,,0,15,15,34,1,non_cognate,1,REAL,FALSA
,,,,,,,,,5dd6d370194e486498e13ab6,001,2024-06-02_08h24.52.709,empathy_intonation_perc,2024.1.4,MacIntel,60.60606061,,,,,,,,,,,,,,15,actor,,,,,,175.3066,177.4345,1,0,1.5995,,0,16,16,14,1,two_way_cognate,1,REAL,FALSA
,,,,,,,,,5dd6d370194e486498e13ab6,001,2024-06-02_08h24.52.709,empathy_intonation_perc,2024.1.4,MacIntel,60.60606061,,,,,,,,,,,,,,13,aurora,,,,,,177.4347,179.1804,1,0,1.2119,,0,17,17,12,1,two_way_cognate,1,REAL,FALSA
,,,,,,,,,5dd6d370194e486498e13ab6,001,2024-06-02_08h24.52.709,empathy_intonation_perc,2024.1.4,MacIntel,60.60606061,,,,,,,,,,,,,,46,cumbre,,,,,,179.1808,181.0592,1,0,1.3505,,0,18,18,45,1,non_cognate,1,REAL,FALSA
,,,,,,,,,5dd6d370194e486498e13ab6,001,2024-06-02_08h24.52.709,empathy_intonation_perc,2024.1.4,MacIntel,60.60606061,,,,,,,,,,,,,,17,enigma,,,,,,181.0595,183.1046,0,1,1.5163,,0,19,19,16,1,two_way_cognate,1,REAL,FALSA
,,,,,,,,,5dd6d370194e486498e13ab6,001,2024-06-02_08h24.52.709,empathy_intonation_perc,2024.1.4,MacIntel,60.60606061,,,,,,,,,,,,,,60,debada,,,,,,183.1049,185.3487,0,1,1.7121,,0,20,20,59,1,pseudoword,0,REAL,FALSA
,,,,,,,,,5dd6d370194e486498e13ab6,001,2024-06-02_08h24.52.709,empathy_intonation_perc,2024.1.4,MacIntel,60.60606061,,,,,,,,,,,,,,71,rande,,,,,,185.349,187.061,0,1,1.1803,,0,21,21,70,1,pseudoword,0,REAL,FALSA
,,,,,,,,,5dd6d370194e486498e13ab6,001,2024-06-02_08h24.52.709,empathy_intonation_perc,2024.1.4,MacIntel,60.60606061,,,,,,,,,,,,,,78,alzán,,,,,,187.0612,188.5584,1,0,0.9684,,0,22,22,77,1,pseudoword,0,REAL,FALSA
,,,,,,,,,5dd6d370194e486498e13ab6,001,2024-06-02_08h24.52.709,empathy_intonation_perc,2024.1.4,MacIntel,60.60606061,,,,,,,,,,,,,,11,sauna,,,,,,188.5587,190.4361,1,0,1.354,,0,23,23,10,1,three_way_cognate,1,REAL,FALSA
,,,,,,,,,5dd6d370194e486498e13ab6,001,2024-06-02_08h24.52.709,empathy_intonation_perc,2024.1.4,MacIntel,60.60606061,,,,,,,,,,,,,,80,suelet,,,,,,190.4364,192.3163,0,1,1.3462,,0,24,24,79,1,pseudoword,0,REAL,FALSA
,,,,,,,,,5dd6d370194e486498e13ab6,001,2024-06-02_08h24.52.709,empathy_intonation_perc,2024.1.4,MacIntel,60.60606061,,,,,,,,,,,,,,41,salto,,,,,,192.3166,194.2946,0,1,1.4472,,0,25,25,40,1,non_cognate,1,REAL,FALSA
,,,,,,,,,5dd6d370194e486498e13ab6,001,2024-06-02_08h24.52.709,empathy_intonation_perc,2024.1.4,MacIntel,60.60606061,,,,,,,,,,,,,,43,huella,,,,,,194.2948,196.3725,1,0,1.5526,,0,26,26,42,1,non_cognate,1,REAL,FALSA
,,,,,,,,,5dd6d370194e486498e13ab6,001,2024-06-02_08h24.52.709,empathy_intonation_perc,2024.1.4,MacIntel,60.60606061,,,,,,,,,,,,,,73,meolar,,,,,,196.3728,198.8337,0,1,1.9258,,0,27,27,72,1,pseudoword,0,REAL,FALSA
,,,,,,,,,5dd6d370194e486498e13ab6,001,2024-06-02_08h24.52.709,empathy_intonation_perc,2024.1.4,MacIntel,60.60606061,,,,,,,,,,,,,,1,torso,,,,,,198.8339,200.5462,0,1,1.1798,,0,28,28,0,1,three_way_cognate,1,REAL,FALSA
,,,,,,,,,5dd6d370194e486498e13ab6,001,2024-06-02_08h24.52.709,empathy_intonation_perc,2024.1.4,MacIntel,60.60606061,,,,,,,,,,,,,,67,huzas,,,,,,200.5465,202.8247,1,0,1.7466,,0,29,29,66,1,pseudoword,0,REAL,FALSA
,,,,,,,,,5dd6d370194e486498e13ab6,001,2024-06-02_08h24.52.709,empathy_intonation_perc,2024.1.4,MacIntel,60.60606061,,,,,,,,,,,,,,70,hunten,,,,,,202.8249,204.9697,1,0,1.6156,,0,30,30,69,1,pseudoword,0,REAL,FALSA
,,,,,,,,,5dd6d370194e486498e13ab6,001,2024-06-02_08h24.52.709,empathy_intonation_perc,2024.1.4,MacIntel,60.60606061,,,,,,,,,,,,,,22,pasta,,,,,,204.97,207.1811,1,0,1.6764,,0,31,31,21,1,two_way_cognate,1,REAL,FALSA
,,,,,,,,,5dd6d370194e486498e13ab6,001,2024-06-02_08h24.52.709,empathy_intonation_perc,2024.1.4,MacIntel,60.60606061,,,,,,,,,,,,,,31,campo,,,,,,207.1813,208.9603,1,0,1.2531,,0,32,32,30,1,non_cognate,1,REAL,FALSA
,,,,,,,,,5dd6d370194e486498e13ab6,001,2024-06-02_08h24.52.709,empathy_intonation_perc,2024.1.4,MacIntel,60.60606061,,,,,,,,,,,,,,28,debido,,,,,,208.9606,210.5891,1,0,1.1024,,0,33,33,27,1,non_cognate,1,REAL,FALSA
,,,,,,,,,5dd6d370194e486498e13ab6,001,2024-06-02_08h24.52.709,empathy_intonation_perc,2024.1.4,MacIntel,60.60606061,,,,,,,,,,,,,,12,bar,,,,,,210.5894,212.1853,1,0,1.0621,,0,34,34,11,1,three_way_cognate,1,REAL,FALSA
,,,,,,,,,5dd6d370194e486498e13ab6,001,2024-06-02_08h24.52.709,empathy_intonation_perc,2024.1.4,MacIntel,60.60606061,,,,,,,,,,,,,,21,casual,,,,,,212.1856,214.014,0,1,1.3009,,0,35,35,20,1,two_way_cognate,1,REAL,FALSA
,,,,,,,,,5dd6d370194e486498e13ab6,001,2024-06-02_08h24.52.709,empathy_intonation_perc,2024.1.4,MacIntel,60.60606061,,,,,,,,,,,,,,81,rombar,,,,,,214.0143,215.6777,1,0,1.1291,,0,36,36,80,1,pseudoword,0,REAL,FALSA
,,,,,,,,,5dd6d370194e486498e13ab6,001,2024-06-02_08h24.52.709,empathy_intonation_perc,2024.1.4,MacIntel,60.60606061,,,,,,,,,,,,,,32,caro,,,,,,215.6779,217.0239,1,0,0.8212,,0,37,37,31,1,non_cognate,1,REAL,FALSA
,,,,,,,,,5dd6d370194e486498e13ab6,001,2024-06-02_08h24.52.709,empathy_intonation_perc,2024.1.4,MacIntel,60.60606061,,,,,,,,,,,,,,88,hento,,,,,,217.0242,218.4705,0,1,0.9183,,0,38,38,87,1,pseudoword,0,REAL,FALSA
,,,,,,,,,5dd6d370194e486498e13ab6,001,2024-06-02_08h24.52.709,empathy_intonation_perc,2024.1.4,MacIntel,60.60606061,,,,,,,,,,,,,,38,trenza,,,,,,218.4707,220.1172,0,1,1.1127,,0,39,39,37,1,non_cognate,1,REAL,FALSA
,,,,,,,,,5dd6d370194e486498e13ab6,001,2024-06-02_08h24.52.709,empathy_intonation_perc,2024.1.4,MacIntel,60.60606061,,,,,,,,,,,,,,57,calto,,,,,,220.1174,221.4139,1,0,0.7649,,0,40,40,56,1,pseudoword,0,REAL,FALSA
,,,,,,,,,5dd6d370194e486498e13ab6,001,2024-06-02_08h24.52.709,empathy_intonation_perc,2024.1.4,MacIntel,60.60606061,,,,,,,,,,,,,,27,pelado,,,,,,221.4142,222.7601,1,0,0.821,,0,41,41,26,1,non_cognate,1,REAL,FALSA
,,,,,,,,,5dd6d370194e486498e13ab6,001,2024-06-02_08h24.52.709,empathy_intonation_perc,2024.1.4,MacIntel,60.60606061,,,,,,,,,,,,,,53,samón,,,,,,222.7605,224.357,1,0,1.0699,,0,42,42,52,1,pseudoword,0,REAL,FALSA
,,,,,,,,,5dd6d370194e486498e13ab6,001,2024-06-02_08h24.52.709,empathy_intonation_perc,2024.1.4,MacIntel,60.60606061,,,,,,,,,,,,,,69,vemua,,,,,,224.3573,225.8197,0,1,0.9386,,0,43,43,68,1,pseudoword,0,REAL,FALSA
,,,,,,,,,5dd6d370194e486498e13ab6,001,2024-06-02_08h24.52.709,empathy_intonation_perc,2024.1.4,MacIntel,60.60606061,,,,,,,,,,,,,,47,alivio,,,,,,225.8199,227.2999,1,0,0.9484,,0,44,44,46,1,non_cognate,1,REAL,FALSA
,,,,,,,,,5dd6d370194e486498e13ab6,001,2024-06-02_08h24.52.709,empathy_intonation_perc,2024.1.4,MacIntel,60.60606061,,,,,,,,,,,,,,63,aljizo,,,,,,227.3002,228.7791,1,0,0.9511,,0,45,45,62,1,pseudoword,0,REAL,FALSA
,,,,,,,,,5dd6d370194e486498e13ab6,001,2024-06-02_08h24.52.709,empathy_intonation_perc,2024.1.4,MacIntel,60.60606061,,,,,,,,,,,,,,50,suaja,,,,,,228.7795,230.2933,1,0,0.9817,,0,46,46,49,1,pseudoword,0,REAL,FALSA
,,,,,,,,,5dd6d370194e486498e13ab6,001,2024-06-02_08h24.52.709,empathy_intonation_perc,2024.1.4,MacIntel,60.60606061,,,,,,,,,,,,,,83,monsos,,,,,,230.2936,231.7889,0,1,0.9642,,0,47,47,82,1,pseudoword,0,REAL,FALSA
,,,,,,,,,5dd6d370194e486498e13ab6,001,2024-06-02_08h24.52.709,empathy_intonation_perc,2024.1.4,MacIntel,60.60606061,,,,,,,,,,,,,,42,premio,,,,,,231.7891,233.2032,1,0,0.8822,,0,48,48,41,1,non_cognate,1,REAL,FALSA
,,,,,,,,,5dd6d370194e486498e13ab6,001,2024-06-02_08h24.52.709,empathy_intonation_perc,2024.1.4,MacIntel,60.60606061,,,,,,,,,,,,,,49,diebro,,,,,,233.2035,235.4146,1,0,1.6789,,0,49,49,48,1,pseudoword,0,REAL,FALSA
,,,,,,,,,5dd6d370194e486498e13ab6,001,2024-06-02_08h24.52.709,empathy_intonation_perc,2024.1.4,MacIntel,60.60606061,,,,,,,,,,,,,,39,pista,,,,,,235.415,237.144,1,0,1.1959,,0,50,50,38,1,non_cognate,1,REAL,FALSA
,,,,,,,,,5dd6d370194e486498e13ab6,001,2024-06-02_08h24.52.709,empathy_intonation_perc,2024.1.4,MacIntel,60.60606061,,,,,,,,,,,,,,61,trip,,,,,,237.1443,238.7567,0,1,1.0805,,0,51,51,60,1,pseudoword,0,REAL,FALSA
,,,,,,,,,5dd6d370194e486498e13ab6,001,2024-06-02_08h24.52.709,empathy_intonation_perc,2024.1.4,MacIntel,60.60606061,,,,,,,,,,,,,,56,qucrá,,,,,,238.7569,240.6022,0,1,1.3129,,0,52,52,55,1,pseudoword,0,REAL,FALSA
,,,,,,,,,5dd6d370194e486498e13ab6,001,2024-06-02_08h24.52.709,empathy_intonation_perc,2024.1.4,MacIntel,60.60606061,,,,,,,,,,,,,,90,duyo,,,,,,240.6025,242.1653,0,1,1.0305,,0,53,53,89,1,pseudoword,0,REAL,FALSA
,,,,,,,,,5dd6d370194e486498e13ab6,001,2024-06-02_08h24.52.709,empathy_intonation_perc,2024.1.4,MacIntel,60.60606061,,,,,,,,,,,,,,30,llamar,,,,,,242.1655,243.9271,1,0,1.2295,,0,54,54,29,1,non_cognate,1,REAL,FALSA
,,,,,,,,,5dd6d370194e486498e13ab6,001,2024-06-02_08h24.52.709,empathy_intonation_perc,2024.1.4,MacIntel,60.60606061,,,,,,,,,,,,,,37,delito,,,,,,243.9273,245.9065,1,0,1.4497,,0,55,55,36,1,non_cognate,1,REAL,FALSA
,,,,,,,,,5dd6d370194e486498e13ab6,001,2024-06-02_08h24.52.709,empathy_intonation_perc,2024.1.4,MacIntel,60.60606061,,,,,,,,,,,,,,66,clazas,,,,,,245.9067,247.2357,1,0,0.7986,,0,56,56,65,1,pseudoword,0,REAL,FALSA
,,,,,,,,,5dd6d370194e486498e13ab6,001,2024-06-02_08h24.52.709,empathy_intonation_perc,2024.1.4,MacIntel,60.60606061,,,,,,,,,,,,,,62,sujo,,,,,,247.2362,248.8496,0,1,1.0788,,0,57,57,61,1,pseudoword,0,REAL,FALSA
,,,,,,,,,5dd6d370194e486498e13ab6,001,2024-06-02_08h24.52.709,empathy_intonation_perc,2024.1.4,MacIntel,60.60606061,,,,,,,,,,,,,,72,diguán,,,,,,248.85,250.478,0,1,1.1049,,0,58,58,71,1,pseudoword,0,REAL,FALSA
,,,,,,,,,5dd6d370194e486498e13ab6,001,2024-06-02_08h24.52.709,empathy_intonation_perc,2024.1.4,MacIntel,60.60606061,,,,,,,,,,,,,,26,hilo,,,,,,250.4783,251.8912,1,0,0.8886,,0,59,59,25,1,non_cognate,1,REAL,FALSA
,,,,,,,,,5dd6d370194e486498e13ab6,001,2024-06-02_08h24.52.709,empathy_intonation_perc,2024.1.4,MacIntel,60.60606061,,,,,,,,,,,,,,79,filte,,,,,,251.8915,253.4554,0,1,1.0366,,0,60,60,78,1,pseudoword,0,REAL,FALSA
,,,,,,,,,5dd6d370194e486498e13ab6,001,2024-06-02_08h24.52.709,empathy_intonation_perc,2024.1.4,MacIntel,60.60606061,,,,,,,,,,,,,,18,honor,,,,,,253.4556,254.9509,1,0,0.9692,,0,61,61,17,1,two_way_cognate,1,REAL,FALSA
,,,,,,,,,5dd6d370194e486498e13ab6,001,2024-06-02_08h24.52.709,empathy_intonation_perc,2024.1.4,MacIntel,60.60606061,,,,,,,,,,,,,,40,cuento,,,,,,254.9511,256.3318,1,0,0.8516,,0,62,62,39,1,non_cognate,1,REAL,FALSA
,,,,,,,,,5dd6d370194e486498e13ab6,001,2024-06-02_08h24.52.709,empathy_intonation_perc,2024.1.4,MacIntel,60.60606061,,,,,,,,,,,,,,84,jomas,,,,,,256.3321,258.0935,0,1,1.2286,,0,63,63,83,1,pseudoword,0,REAL,FALSA
,,,,,,,,,5dd6d370194e486498e13ab6,001,2024-06-02_08h24.52.709,empathy_intonation_perc,2024.1.4,MacIntel,60.60606061,,,,,,,,,,,,,,77,toges,,,,,,258.0937,259.3736,0,1,0.7555,,0,64,64,76,1,pseudoword,0,REAL,FALSA
,,,,,,,,,5dd6d370194e486498e13ab6,001,2024-06-02_08h24.52.709,empathy_intonation_perc,2024.1.4,MacIntel,60.60606061,,,,,,,,,,,,,,10,tango,,,,,,259.3738,260.6717,1,0,0.7692,,0,65,65,9,1,three_way_cognate,1,REAL,FALSA
,,,,,,,,,5dd6d370194e486498e13ab6,001,2024-06-02_08h24.52.709,empathy_intonation_perc,2024.1.4,MacIntel,60.60606061,,,,,,,,,,,,,,92,nasce,,,,,,260.6719,262.085,0,1,0.8809,,0,66,66,91,1,pseudoword,0,REAL,FALSA
,,,,,,,,,5dd6d370194e486498e13ab6,001,2024-06-02_08h24.52.709,empathy_intonation_perc,2024.1.4,MacIntel,60.60606061,,,,,,,,,,,,,,58,abunal,,,,,,262.0852,263.88,1,0,1.2675,,0,67,67,57,1,pseudoword,0,REAL,FALSA
,,,,,,,,,5dd6d370194e486498e13ab6,001,2024-06-02_08h24.52.709,empathy_intonation_perc,2024.1.4,MacIntel,60.60606061,,,,,,,,,,,,,,19,pelvis,,,,,,263.8803,265.4097,0,1,1.0066,,0,68,68,18,1,two_way_cognate,1,REAL,FALSA
,,,,,,,,,5dd6d370194e486498e13ab6,001,2024-06-02_08h24.52.709,empathy_intonation_perc,2024.1.4,MacIntel,60.60606061,,,,,,,,,,,,,,25,exigir,,,,,,265.4099,266.8899,1,0,0.9502,,0,69,69,24,1,non_cognate,1,REAL,FALSA
,,,,,,,,,5dd6d370194e486498e13ab6,001,2024-06-02_08h24.52.709,empathy_intonation_perc,2024.1.4,MacIntel,60.60606061,,,,,,,,,,,,,,64,altimo,,,,,,266.8901,268.6518,1,0,1.2281,,0,70,70,63,1,pseudoword,0,REAL,FALSA
,,,,,,,,,5dd6d370194e486498e13ab6,001,2024-06-02_08h24.52.709,empathy_intonation_perc,2024.1.4,MacIntel,60.60606061,,,,,,,,,,,,,,94,bomos,,,,,,268.6521,270.0161,1,0,0.83,,0,71,71,93,1,pseudoword,0,REAL,FALSA
,,,,,,,,,5dd6d370194e486498e13ab6,001,2024-06-02_08h24.52.709,empathy_intonation_perc,2024.1.4,MacIntel,60.60606061,,,,,,,,,,,,,,91,chote,,,,,,270.0163,271.7124,1,0,1.1639,,0,72,72,90,1,pseudoword,0,REAL,FALSA
,,,,,,,,,5dd6d370194e486498e13ab6,001,2024-06-02_08h24.52.709,empathy_intonation_perc,2024.1.4,MacIntel,60.60606061,,,,,,,,,,,,,,96,brigan,,,,,,271.7126,273.1419,0,1,0.8967,,0,73,73,95,1,pseudoword,0,REAL,FALSA
,,,,,,,,,5dd6d370194e486498e13ab6,001,2024-06-02_08h24.52.709,empathy_intonation_perc,2024.1.4,MacIntel,60.60606061,,,,,,,,,,,,,,8,solar,,,,,,273.1421,274.7212,1,0,1.056,,0,74,74,7,1,three_way_cognate,1,REAL,FALSA
,,,,,,,,,5dd6d370194e486498e13ab6,001,2024-06-02_08h24.52.709,empathy_intonation_perc,2024.1.4,MacIntel,60.60606061,,,,,,,,,,,,,,6,horror,,,,,,274.7213,276.7671,1,0,1.5138,,0,75,75,5,1,three_way_cognate,1,REAL,FALSA
,,,,,,,,,5dd6d370194e486498e13ab6,001,2024-06-02_08h24.52.709,empathy_intonation_perc,2024.1.4,MacIntel,60.60606061,,,,,,,,,,,,,,74,mibro,,,,,,276.7673,278.1139,1,0,0.8173,,0,76,76,73,1,pseudoword,0,REAL,FALSA
,,,,,,,,,5dd6d370194e486498e13ab6,001,2024-06-02_08h24.52.709,empathy_intonation_perc,2024.1.4,MacIntel,60.60606061,,,,,,,,,,,,,,93,caemal,,,,,,278.1142,279.5761,0,1,0.929,,0,77,77,92,1,pseudoword,0,REAL,FALSA
,,,,,,,,,5dd6d370194e486498e13ab6,001,2024-06-02_08h24.52.709,empathy_intonation_perc,2024.1.4,MacIntel,60.60606061,,,,,,,,,,,,,,9,limbo,,,,,,279.5763,281.0561,0,1,0.954,,0,78,78,8,1,three_way_cognate,1,REAL,FALSA
,,,,,,,,,5dd6d370194e486498e13ab6,001,2024-06-02_08h24.52.709,empathy_intonation_perc,2024.1.4,MacIntel,60.60606061,,,,,,,,,,,,,,68,hurmo,,,,,,281.0563,282.4868,1,0,0.897,,0,79,79,67,1,pseudoword,0,REAL,FALSA
,,,,,,,,,5dd6d370194e486498e13ab6,001,2024-06-02_08h24.52.709,empathy_intonation_perc,2024.1.4,MacIntel,60.60606061,,,,,,,,,,,,,,24,civil,,,,,,282.4872,284.3328,0,1,1.3206,,0,80,80,23,1,two_way_cognate,1,REAL,FALSA
,,,,,,,,,5dd6d370194e486498e13ab6,001,2024-06-02_08h24.52.709,empathy_intonation_perc,2024.1.4,MacIntel,60.60606061,,,,,,,,,,,,,,89,barezo,,,,,,284.3331,285.7118,1,0,0.8458,,0,81,81,88,1,pseudoword,0,REAL,FALSA
,,,,,,,,,5dd6d370194e486498e13ab6,001,2024-06-02_08h24.52.709,empathy_intonation_perc,2024.1.4,MacIntel,60.60606061,,,,,,,,,,,,,,45,viga,,,,,,285.712,287.2923,1,0,1.0464,,0,82,82,44,1,non_cognate,1,REAL,FALSA
,,,,,,,,,5dd6d370194e486498e13ab6,001,2024-06-02_08h24.52.709,empathy_intonation_perc,2024.1.4,MacIntel,60.60606061,,,,,,,,,,,,,,29,cesta,,,,,,287.2926,288.7385,1,0,0.9181,,0,83,83,28,1,non_cognate,1,REAL,FALSA
,,,,,,,,,5dd6d370194e486498e13ab6,001,2024-06-02_08h24.52.709,empathy_intonation_perc,2024.1.4,MacIntel,60.60606061,,,,,,,,,,,,,,14,clamor,,,,,,288.7387,290.2344,0,1,0.9722,,0,84,84,13,1,two_way_cognate,1,REAL,FALSA
,,,,,,,,,5dd6d370194e486498e13ab6,001,2024-06-02_08h24.52.709,empathy_intonation_perc,2024.1.4,MacIntel,60.60606061,,,,,,,,,,,,,,7,retina,,,,,,290.2347,291.7643,0,1,0.9965,,0,85,85,6,1,three_way_cognate,1,REAL,FALSA
,,,,,,,,,5dd6d370194e486498e13ab6,001,2024-06-02_08h24.52.709,empathy_intonation_perc,2024.1.4,MacIntel,60.60606061,,,,,,,,,,,,,,65,edidé,,,,,,291.7645,293.5443,1,0,1.251,,0,86,86,64,1,pseudoword,0,REAL,FALSA
,,,,,,,,,5dd6d370194e486498e13ab6,001,2024-06-02_08h24.52.709,empathy_intonation_perc,2024.1.4,MacIntel,60.60606061,,,,,,,,,,,,,,36,visión,,,,,,293.5446,294.9077,1,0,0.834,,0,87,87,35,1,non_cognate,1,REAL,FALSA
,,,,,,,,,5dd6d370194e486498e13ab6,001,2024-06-02_08h24.52.709,empathy_intonation_perc,2024.1.4,MacIntel,60.60606061,,,,,,,,,,,,,,33,latón,,,,,,294.9079,295.8715,0,1,0.4309,,0,88,88,32,1,non_cognate,1,REAL,FALSA
,,,,,,,,,5dd6d370194e486498e13ab6,001,2024-06-02_08h24.52.709,empathy_intonation_perc,2024.1.4,MacIntel,60.60606061,,,,,,,,,,,,,,34,sermón,,,,,,295.8719,297.8009,1,0,1.3948,,0,89,89,33,1,non_cognate,1,REAL,FALSA
,,,,,,,,,5dd6d370194e486498e13ab6,001,2024-06-02_08h24.52.709,empathy_intonation_perc,2024.1.4,MacIntel,60.60606061,,,,,,,,,,,,,,87,racaer,,,,,,297.8012,299.5634,0,1,1.2302,,0,90,90,86,1,pseudoword,0,REAL,FALSA
,,,,,,,,,5dd6d370194e486498e13ab6,001,2024-06-02_08h24.52.709,empathy_intonation_perc,2024.1.4,MacIntel,60.60606061,,,,,,,,,,,,,,20,total,,,,,,299.5637,301.408,0,1,1.312,,0,91,91,19,1,two_way_cognate,1,REAL,FALSA
,,,,,,,,,5dd6d370194e486498e13ab6,001,2024-06-02_08h24.52.709,empathy_intonation_perc,2024.1.4,MacIntel,60.60606061,,,,,,,,,,,,,,82,alla,,,,,,301.4082,302.8389,1,0,0.9012,,0,92,92,81,1,pseudoword,0,REAL,FALSA
,,,,,,,,,5dd6d370194e486498e13ab6,001,2024-06-02_08h24.52.709,empathy_intonation_perc,2024.1.4,MacIntel,60.60606061,,,,,,,,,,,,,,48,taza,,,,,,302.8392,304.2524,1,0,0.884,,0,93,93,47,1,non_cognate,1,REAL,FALSA
,,,,,,,,,5dd6d370194e486498e13ab6,001,2024-06-02_08h24.52.709,empathy_intonation_perc,2024.1.4,MacIntel,60.60606061,,,,,,,,,,,,,,5,fauna,,,,,,304.2526,305.7484,1,0,0.9638,,0,94,94,4,1,three_way_cognate,1,REAL,FALSA
,,,,,,,,,5dd6d370194e486498e13ab6,001,2024-06-02_08h24.52.709,empathy_intonation_perc,2024.1.4,MacIntel,60.60606061,,,,,,,,,,,,,,2,clan,,,,,,305.7486,307.4274,0,1,1.1546,,0,95,95,1,1,three_way_cognate,1,REAL,FALSA
