lextale_instructions.started,lextale_instructions.stopped,lextale_instructions_loop.thisRepN,lextale_instructions_loop.thisTrialN,lextale_instructions_loop.thisN,lextale_instructions_loop.thisIndex,lextale_instructions_loop.ran,instructions_text,continue_text,participant,session,date,expName,psychopyVersion,OS,frameRate,lextale_practice.started,lextale_practice.stopped,key_resp_lextale_practice.keys,key_resp_lextale_practice.corr,key_resp_lextale_practice.rt,key_resp_lextale_practice.duration,lextale_practice_feedback.started,lextale_practice_feedback.stopped,lextale_practice_trials.thisRepN,lextale_practice_trials.thisTrialN,lextale_practice_trials.thisN,lextale_practice_trials.thisIndex,lextale_practice_trials.ran,stim,word,correct_response,prac_button_real,prac_button_false,lextale_check.started,lextale_check.stopped,lextale_trial.started,lextale_trial.stopped,key_resp_lextale_trial.keys,key_resp_lextale_trial.corr,key_resp_lextale_trial.rt,key_resp_lextale_trial.duration,lextail_trials.thisRepN,lextail_trials.thisTrialN,lextail_trials.thisN,lextail_trials.thisIndex,lextail_trials.ran,type,correct_reponse,button_real,button_false
0.0109,4.4495,0,0,0,0,1,"Este es un test de vocabulario en español. 
  
  A continuación vas a ver 90 secuencias de letras que parecen 'españolas'.
  
  Solo algunas de ellas son palabras de verdad.",(presiona la barra espaciadora para continuar),5fb16308dc5973607fa3041c,001,2024-06-07_07h33.44.669,empathy_intonation_perc,2024.1.4,Linux x86_64,59.88023952,,,,,,,,,,,,,,,,,,,,,,,,,,,,,,,,,,,
4.4503,5.5812,0,1,1,1,1,"Por favor, señala las palabras que tú conoces (aquellas que estás convencido que son palabras españolas, incluso aunque no seas capaz de dar el significado preciso).",(presiona la barra espaciadora para continuar),5fb16308dc5973607fa3041c,001,2024-06-07_07h33.44.669,empathy_intonation_perc,2024.1.4,Linux x86_64,59.88023952,,,,,,,,,,,,,,,,,,,,,,,,,,,,,,,,,,,
5.5817,6.1304,0,2,2,2,1,Pero cuidado: los errores se penalizan. Por eso no tiene sentido tratar de incrementar tu puntuación marcando como reales palabras que nunca has visto.,(presiona la barra espaciadora para continuar),5fb16308dc5973607fa3041c,001,2024-06-07_07h33.44.669,empathy_intonation_perc,2024.1.4,Linux x86_64,59.88023952,,,,,,,,,,,,,,,,,,,,,,,,,,,,,,,,,,,
6.1308,7.3638,0,3,3,3,1,"Presiona la tecla 1 si piensas que es una palabra real y la tecla 
  0 si piensas que es una palabra falsa. 
  
  Vamos a practicar un poco...",(presiona la barra espaciadora para continuar),5fb16308dc5973607fa3041c,001,2024-06-07_07h33.44.669,empathy_intonation_perc,2024.1.4,Linux x86_64,59.88023952,,,,,,,,,,,,,,,,,,,,,,,,,,,,,,,,,,,
,,,,,,,,,5fb16308dc5973607fa3041c,001,2024-06-07_07h33.44.669,empathy_intonation_perc,2024.1.4,Linux x86_64,59.88023952,7.3749,13.9479,1,0,6.0543,,13.9483,14.9464,0,0,0,0,1,0,depiste,0,REAL,FALSA,,,,,,,,,,,,,,,,,
,,,,,,,,,5fb16308dc5973607fa3041c,001,2024-06-07_07h33.44.669,empathy_intonation_perc,2024.1.4,Linux x86_64,59.88023952,14.9471,18.247,1,1,2.7657,,18.2474,19.2458,0,1,1,1,1,0,sí,1,REAL,FALSA,,,,,,,,,,,,,,,,,
,,,,,,,,,5fb16308dc5973607fa3041c,001,2024-06-07_07h33.44.669,empathy_intonation_perc,2024.1.4,Linux x86_64,59.88023952,19.2463,20.5957,1,0,0.8146,,20.5959,21.5952,0,2,2,2,1,0,coné,0,REAL,FALSA,,,,,,,,,,,,,,,,,
,,,,,,,,,5fb16308dc5973607fa3041c,001,2024-06-07_07h33.44.669,empathy_intonation_perc,2024.1.4,Linux x86_64,59.88023952,21.5957,25.5449,0,1,3.4365,,25.5449,26.5466,0,3,3,3,1,0,calpar,0,REAL,FALSA,,,,,,,,,,,,,,,,,
,,,,,,,,,5fb16308dc5973607fa3041c,001,2024-06-07_07h33.44.669,empathy_intonation_perc,2024.1.4,Linux x86_64,59.88023952,26.547,29.617,1,0,2.5438,,29.617,30.6112,0,4,4,4,1,0,joten,0,REAL,FALSA,,,,,,,,,,,,,,,,,
,,,,,,,,,5fb16308dc5973607fa3041c,001,2024-06-07_07h33.44.669,empathy_intonation_perc,2024.1.4,Linux x86_64,59.88023952,30.6116,33.4777,0,0,2.3303,,33.4779,34.4775,0,5,5,5,1,0,sacapuntas,1,REAL,FALSA,,,,,,,,,,,,,,,,,
,,,,,,,,,5fb16308dc5973607fa3041c,001,2024-06-07_07h33.44.669,empathy_intonation_perc,2024.1.4,Linux x86_64,59.88023952,34.4779,38.9772,1,0,3.9614,,38.9772,39.9772,0,6,6,6,1,0,priba,0,REAL,FALSA,,,,,,,,,,,,,,,,,
,,,,,,,,,5fb16308dc5973607fa3041c,001,2024-06-07_07h33.44.669,empathy_intonation_perc,2024.1.4,Linux x86_64,59.88023952,39.9778,42.2444,0,1,1.7474,,42.2444,43.2436,0,7,7,7,1,0,pelasula,0,REAL,FALSA,,,,,,,,,,,,,,,,,
,,,,,,,,,5fb16308dc5973607fa3041c,001,2024-06-07_07h33.44.669,empathy_intonation_perc,2024.1.4,Linux x86_64,59.88023952,43.2441,45.9273,0,0,2.152,,45.9273,46.9262,0,8,8,8,1,0,bien,1,REAL,FALSA,,,,,,,,,,,,,,,,,
,,,,,,,,,5fb16308dc5973607fa3041c,001,2024-06-07_07h33.44.669,empathy_intonation_perc,2024.1.4,Linux x86_64,59.88023952,46.9368,48.743,1,1,1.2814,,48.7431,49.7426,0,9,9,9,1,0,casa,1,REAL,FALSA,,,,,,,,,,,,,,,,,
,,,,,,,,,5fb16308dc5973607fa3041c,001,2024-06-07_07h33.44.669,empathy_intonation_perc,2024.1.4,Linux x86_64,59.88023952,49.7431,51.6922,0,1,1.4234,,51.6923,52.6847,0,10,10,10,1,0,lejo,0,REAL,FALSA,,,,,,,,,,,,,,,,,
,,,,,,,,,5fb16308dc5973607fa3041c,001,2024-06-07_07h33.44.669,empathy_intonation_perc,2024.1.4,Linux x86_64,59.88023952,52.699,57.825,0,1,4.5997,,57.8251,58.8248,0,11,11,11,1,0,pretantas,0,REAL,FALSA,,,,,,,,,,,,,,,,,
,,,,,,,,,5fb16308dc5973607fa3041c,001,2024-06-07_07h33.44.669,empathy_intonation_perc,2024.1.4,Linux x86_64,59.88023952,,,,,,,,,,,,,,,,,,,58.8257,61.0248,,,,,,,,,,,,,,,
,,,,,,,,,5fb16308dc5973607fa3041c,001,2024-06-07_07h33.44.669,empathy_intonation_perc,2024.1.4,Linux x86_64,59.88023952,,,,,,,,,,,,,,14,test,,,,,,61.063,62.9746,1,0,1.3851,,0,0,0,13,1,three_way_cognate,1,REAL,FALSA
,,,,,,,,,5fb16308dc5973607fa3041c,001,2024-06-07_07h33.44.669,empathy_intonation_perc,2024.1.4,Linux x86_64,59.88023952,,,,,,,,,,,,,,60,siglo,,,,,,62.9751,64.8575,0,1,1.3587,,0,1,1,59,1,non_cognate,1,REAL,FALSA
,,,,,,,,,5fb16308dc5973607fa3041c,001,2024-06-07_07h33.44.669,empathy_intonation_perc,2024.1.4,Linux x86_64,59.88023952,,,,,,,,,,,,,,118,bará,,,,,,64.8579,66.674,1,0,1.2821,,0,2,2,117,1,pseudoword,0,REAL,FALSA
,,,,,,,,,5fb16308dc5973607fa3041c,001,2024-06-07_07h33.44.669,empathy_intonation_perc,2024.1.4,Linux x86_64,59.88023952,,,,,,,,,,,,,,116,crene,,,,,,66.6745,68.6073,0,1,1.3998,,0,3,3,115,1,pseudoword,0,REAL,FALSA
,,,,,,,,,5fb16308dc5973607fa3041c,001,2024-06-07_07h33.44.669,empathy_intonation_perc,2024.1.4,Linux x86_64,59.88023952,,,,,,,,,,,,,,124,lobe,,,,,,68.6077,70.2072,1,0,1.0582,,0,4,4,123,1,pseudoword,0,REAL,FALSA
,,,,,,,,,5fb16308dc5973607fa3041c,001,2024-06-07_07h33.44.669,empathy_intonation_perc,2024.1.4,Linux x86_64,59.88023952,,,,,,,,,,,,,,131,fuar,,,,,,70.2077,71.8874,1,0,1.1697,,0,5,5,130,1,pseudoword,0,REAL,FALSA
,,,,,,,,,5fb16308dc5973607fa3041c,001,2024-06-07_07h33.44.669,empathy_intonation_perc,2024.1.4,Linux x86_64,59.88023952,,,,,,,,,,,,,,103,babes,,,,,,71.8879,73.2901,1,0,0.8857,,0,6,6,102,1,pseudoword,0,REAL,FALSA
,,,,,,,,,5fb16308dc5973607fa3041c,001,2024-06-07_07h33.44.669,empathy_intonation_perc,2024.1.4,Linux x86_64,59.88023952,,,,,,,,,,,,,,10,golf,,,,,,73.2906,74.4733,1,0,0.6495,,0,7,7,9,1,three_way_cognate,1,REAL,FALSA
,,,,,,,,,5fb16308dc5973607fa3041c,001,2024-06-07_07h33.44.669,empathy_intonation_perc,2024.1.4,Linux x86_64,59.88023952,,,,,,,,,,,,,,58,colcha,,,,,,74.4739,75.823,0,1,0.8167,,0,8,8,57,1,non_cognate,1,REAL,FALSA
,,,,,,,,,5fb16308dc5973607fa3041c,001,2024-06-07_07h33.44.669,empathy_intonation_perc,2024.1.4,Linux x86_64,59.88023952,,,,,,,,,,,,,,62,pegar,,,,,,75.8234,77.4232,0,1,1.0651,,0,9,9,61,1,non_cognate,1,REAL,FALSA
,,,,,,,,,5fb16308dc5973607fa3041c,001,2024-06-07_07h33.44.669,empathy_intonation_perc,2024.1.4,Linux x86_64,59.88023952,,,,,,,,,,,,,,100,medón,,,,,,77.4238,78.7394,0,1,0.7843,,0,10,10,99,1,pseudoword,0,REAL,FALSA
,,,,,,,,,5fb16308dc5973607fa3041c,001,2024-06-07_07h33.44.669,empathy_intonation_perc,2024.1.4,Linux x86_64,59.88023952,,,,,,,,,,,,,,46,mortal,,,,,,78.7399,80.1731,1,0,0.9021,,0,11,11,45,1,two_way_cognate,1,REAL,FALSA
,,,,,,,,,5fb16308dc5973607fa3041c,001,2024-06-07_07h33.44.669,empathy_intonation_perc,2024.1.4,Linux x86_64,59.88023952,,,,,,,,,,,,,,67,llamar,,,,,,80.1737,82.9392,0,1,2.2317,,0,12,12,66,1,non_cognate,1,REAL,FALSA
,,,,,,,,,5fb16308dc5973607fa3041c,001,2024-06-07_07h33.44.669,empathy_intonation_perc,2024.1.4,Linux x86_64,59.88023952,,,,,,,,,,,,,,142,viseña,,,,,,82.9397,85.9101,0,1,2.4548,,0,13,13,141,1,pseudoword,0,REAL,FALSA
,,,,,,,,,5fb16308dc5973607fa3041c,001,2024-06-07_07h33.44.669,empathy_intonation_perc,2024.1.4,Linux x86_64,59.88023952,,,,,,,,,,,,,,121,rombar,,,,,,85.9218,87.9552,0,1,1.5148,,0,14,14,120,1,pseudoword,0,REAL,FALSA
,,,,,,,,,5fb16308dc5973607fa3041c,001,2024-06-07_07h33.44.669,empathy_intonation_perc,2024.1.4,Linux x86_64,59.88023952,,,,,,,,,,,,,,123,escare,,,,,,87.9556,89.7052,0,1,1.2168,,0,15,15,122,1,pseudoword,0,REAL,FALSA
,,,,,,,,,5fb16308dc5973607fa3041c,001,2024-06-07_07h33.44.669,empathy_intonation_perc,2024.1.4,Linux x86_64,59.88023952,,,,,,,,,,,,,,133,tirafa,,,,,,89.7058,91.6715,0,1,1.4361,,0,16,16,132,1,pseudoword,0,REAL,FALSA
,,,,,,,,,5fb16308dc5973607fa3041c,001,2024-06-07_07h33.44.669,empathy_intonation_perc,2024.1.4,Linux x86_64,59.88023952,,,,,,,,,,,,,,1,tumor,,,,,,91.6719,92.8047,1,0,0.5972,,0,17,17,0,1,three_way_cognate,1,REAL,FALSA
,,,,,,,,,5fb16308dc5973607fa3041c,001,2024-06-07_07h33.44.669,empathy_intonation_perc,2024.1.4,Linux x86_64,59.88023952,,,,,,,,,,,,,,108,viarle,,,,,,92.8055,94.1212,0,1,0.7811,,0,18,18,107,1,pseudoword,0,REAL,FALSA
,,,,,,,,,5fb16308dc5973607fa3041c,001,2024-06-07_07h33.44.669,empathy_intonation_perc,2024.1.4,Linux x86_64,59.88023952,,,,,,,,,,,,,,35,aurora,,,,,,94.1217,95.2543,1,0,0.5982,,0,19,19,34,1,two_way_cognate,1,REAL,FALSA
,,,,,,,,,5fb16308dc5973607fa3041c,001,2024-06-07_07h33.44.669,empathy_intonation_perc,2024.1.4,Linux x86_64,59.88023952,,,,,,,,,,,,,,104,vitra,,,,,,95.2548,96.6041,1,0,0.8188,,0,20,20,103,1,pseudoword,0,REAL,FALSA
,,,,,,,,,5fb16308dc5973607fa3041c,001,2024-06-07_07h33.44.669,empathy_intonation_perc,2024.1.4,Linux x86_64,59.88023952,,,,,,,,,,,,,,102,coyo,,,,,,96.6045,97.9875,0,1,0.8541,,0,21,21,101,1,pseudoword,0,REAL,FALSA
,,,,,,,,,5fb16308dc5973607fa3041c,001,2024-06-07_07h33.44.669,empathy_intonation_perc,2024.1.4,Linux x86_64,59.88023952,,,,,,,,,,,,,,3,flora,,,,,,97.9879,99.1708,1,0,0.652,,0,22,22,2,1,three_way_cognate,1,REAL,FALSA
,,,,,,,,,5fb16308dc5973607fa3041c,001,2024-06-07_07h33.44.669,empathy_intonation_perc,2024.1.4,Linux x86_64,59.88023952,,,,,,,,,,,,,,45,total,,,,,,99.1713,100.3041,1,0,0.6018,,0,23,23,44,1,two_way_cognate,1,REAL,FALSA
,,,,,,,,,5fb16308dc5973607fa3041c,001,2024-06-07_07h33.44.669,empathy_intonation_perc,2024.1.4,Linux x86_64,59.88023952,,,,,,,,,,,,,,50,sierra,,,,,,100.3045,102.2038,1,0,1.3719,,0,24,24,49,1,non_cognate,1,REAL,FALSA
,,,,,,,,,5fb16308dc5973607fa3041c,001,2024-06-07_07h33.44.669,empathy_intonation_perc,2024.1.4,Linux x86_64,59.88023952,,,,,,,,,,,,,,94,forro,,,,,,102.2042,103.5372,0,1,0.8008,,0,25,25,93,1,non_cognate,1,REAL,FALSA
,,,,,,,,,5fb16308dc5973607fa3041c,001,2024-06-07_07h33.44.669,empathy_intonation_perc,2024.1.4,Linux x86_64,59.88023952,,,,,,,,,,,,,,4,extra,,,,,,103.5376,104.6702,1,0,0.6,,0,26,26,3,1,three_way_cognate,1,REAL,FALSA
,,,,,,,,,5fb16308dc5973607fa3041c,001,2024-06-07_07h33.44.669,empathy_intonation_perc,2024.1.4,Linux x86_64,59.88023952,,,,,,,,,,,,,,2,disco,,,,,,104.6707,105.92,1,0,0.7197,,0,27,27,1,1,three_way_cognate,1,REAL,FALSA
,,,,,,,,,5fb16308dc5973607fa3041c,001,2024-06-07_07h33.44.669,empathy_intonation_perc,2024.1.4,Linux x86_64,59.88023952,,,,,,,,,,,,,,134,fruzas,,,,,,105.9209,107.2536,0,1,0.7938,,0,28,28,133,1,pseudoword,0,REAL,FALSA
,,,,,,,,,5fb16308dc5973607fa3041c,001,2024-06-07_07h33.44.669,empathy_intonation_perc,2024.1.4,Linux x86_64,59.88023952,,,,,,,,,,,,,,41,pasta,,,,,,107.254,108.4372,1,0,0.6541,,0,29,29,40,1,two_way_cognate,1,REAL,FALSA
,,,,,,,,,5fb16308dc5973607fa3041c,001,2024-06-07_07h33.44.669,empathy_intonation_perc,2024.1.4,Linux x86_64,59.88023952,,,,,,,,,,,,,,44,editor,,,,,,108.4377,109.6366,1,0,0.6695,,0,30,30,43,1,two_way_cognate,1,REAL,FALSA
,,,,,,,,,5fb16308dc5973607fa3041c,001,2024-06-07_07h33.44.669,empathy_intonation_perc,2024.1.4,Linux x86_64,59.88023952,,,,,,,,,,,,,,26,enigma,,,,,,109.6371,110.9363,0,1,0.7672,,0,31,31,25,1,two_way_cognate,1,REAL,FALSA
,,,,,,,,,5fb16308dc5973607fa3041c,001,2024-06-07_07h33.44.669,empathy_intonation_perc,2024.1.4,Linux x86_64,59.88023952,,,,,,,,,,,,,,49,teñir,,,,,,110.9368,112.3026,0,1,0.832,,0,32,32,48,1,non_cognate,1,REAL,FALSA
,,,,,,,,,5fb16308dc5973607fa3041c,001,2024-06-07_07h33.44.669,empathy_intonation_perc,2024.1.4,Linux x86_64,59.88023952,,,,,,,,,,,,,,80,cuenco,,,,,,112.303,113.4691,0,1,0.6325,,0,33,33,79,1,non_cognate,1,REAL,FALSA
,,,,,,,,,5fb16308dc5973607fa3041c,001,2024-06-07_07h33.44.669,empathy_intonation_perc,2024.1.4,Linux x86_64,59.88023952,,,,,,,,,,,,,,13,aura,,,,,,113.4696,114.5857,1,0,0.5901,,0,34,34,12,1,three_way_cognate,1,REAL,FALSA
,,,,,,,,,5fb16308dc5973607fa3041c,001,2024-06-07_07h33.44.669,empathy_intonation_perc,2024.1.4,Linux x86_64,59.88023952,,,,,,,,,,,,,,107,plamos,,,,,,114.5861,115.8689,0,1,0.7508,,0,35,35,106,1,pseudoword,0,REAL,FALSA
,,,,,,,,,5fb16308dc5973607fa3041c,001,2024-06-07_07h33.44.669,empathy_intonation_perc,2024.1.4,Linux x86_64,59.88023952,,,,,,,,,,,,,,144,piria,,,,,,115.8693,117.0021,0,1,0.6021,,0,36,36,143,1,pseudoword,0,REAL,FALSA
,,,,,,,,,5fb16308dc5973607fa3041c,001,2024-06-07_07h33.44.669,empathy_intonation_perc,2024.1.4,Linux x86_64,59.88023952,,,,,,,,,,,,,,113,difrás,,,,,,117.0025,118.1858,0,1,0.6509,,0,37,37,112,1,pseudoword,0,REAL,FALSA
,,,,,,,,,5fb16308dc5973607fa3041c,001,2024-06-07_07h33.44.669,empathy_intonation_perc,2024.1.4,Linux x86_64,59.88023952,,,,,,,,,,,,,,78,rendir,,,,,,118.1863,119.2518,0,1,0.5385,,0,38,38,77,1,non_cognate,1,REAL,FALSA
,,,,,,,,,5fb16308dc5973607fa3041c,001,2024-06-07_07h33.44.669,empathy_intonation_perc,2024.1.4,Linux x86_64,59.88023952,,,,,,,,,,,,,,63,hilo,,,,,,119.2522,120.5518,0,1,0.7637,,0,39,39,62,1,non_cognate,1,REAL,FALSA
,,,,,,,,,5fb16308dc5973607fa3041c,001,2024-06-07_07h33.44.669,empathy_intonation_perc,2024.1.4,Linux x86_64,59.88023952,,,,,,,,,,,,,,34,actor,,,,,,120.5523,121.6684,1,0,0.585,,0,40,40,33,1,two_way_cognate,1,REAL,FALSA
,,,,,,,,,5fb16308dc5973607fa3041c,001,2024-06-07_07h33.44.669,empathy_intonation_perc,2024.1.4,Linux x86_64,59.88023952,,,,,,,,,,,,,,5,horror,,,,,,121.669,122.7681,1,0,0.5665,,0,41,41,4,1,three_way_cognate,1,REAL,FALSA
,,,,,,,,,5fb16308dc5973607fa3041c,001,2024-06-07_07h33.44.669,empathy_intonation_perc,2024.1.4,Linux x86_64,59.88023952,,,,,,,,,,,,,,71,torta,,,,,,122.7685,123.8847,0,1,0.594,,0,42,42,70,1,non_cognate,1,REAL,FALSA
,,,,,,,,,5fb16308dc5973607fa3041c,001,2024-06-07_07h33.44.669,empathy_intonation_perc,2024.1.4,Linux x86_64,59.88023952,,,,,,,,,,,,,,74,ala,,,,,,123.885,125.018,1,0,0.6032,,0,43,43,73,1,non_cognate,1,REAL,FALSA
,,,,,,,,,5fb16308dc5973607fa3041c,001,2024-06-07_07h33.44.669,empathy_intonation_perc,2024.1.4,Linux x86_64,59.88023952,,,,,,,,,,,,,,28,ardor,,,,,,125.0186,126.3344,0,1,0.7824,,0,44,44,27,1,two_way_cognate,1,REAL,FALSA
,,,,,,,,,5fb16308dc5973607fa3041c,001,2024-06-07_07h33.44.669,empathy_intonation_perc,2024.1.4,Linux x86_64,59.88023952,,,,,,,,,,,,,,40,pelvis,,,,,,126.3349,127.4179,1,0,0.5505,,0,45,45,39,1,two_way_cognate,1,REAL,FALSA
,,,,,,,,,5fb16308dc5973607fa3041c,001,2024-06-07_07h33.44.669,empathy_intonation_perc,2024.1.4,Linux x86_64,59.88023952,,,,,,,,,,,,,,99,mieris,,,,,,127.42,128.5516,0,1,0.606,,0,46,46,98,1,pseudoword,0,REAL,FALSA
,,,,,,,,,5fb16308dc5973607fa3041c,001,2024-06-07_07h33.44.669,empathy_intonation_perc,2024.1.4,Linux x86_64,59.88023952,,,,,,,,,,,,,,141,sumer,,,,,,128.552,130.3679,0,1,1.2896,,0,47,47,140,1,pseudoword,0,REAL,FALSA
,,,,,,,,,5fb16308dc5973607fa3041c,001,2024-06-07_07h33.44.669,empathy_intonation_perc,2024.1.4,Linux x86_64,59.88023952,,,,,,,,,,,,,,16,clan,,,,,,130.3684,131.9173,1,0,1.0157,,0,48,48,15,1,three_way_cognate,1,REAL,FALSA
,,,,,,,,,5fb16308dc5973607fa3041c,001,2024-06-07_07h33.44.669,empathy_intonation_perc,2024.1.4,Linux x86_64,59.88023952,,,,,,,,,,,,,,76,chocar,,,,,,131.9176,132.9837,0,1,0.5316,,0,49,49,75,1,non_cognate,1,REAL,FALSA
,,,,,,,,,5fb16308dc5973607fa3041c,001,2024-06-07_07h33.44.669,empathy_intonation_perc,2024.1.4,Linux x86_64,59.88023952,,,,,,,,,,,,,,70,ánimo,,,,,,132.9841,134.0836,0,1,0.5708,,0,50,50,69,1,non_cognate,1,REAL,FALSA
,,,,,,,,,5fb16308dc5973607fa3041c,001,2024-06-07_07h33.44.669,empathy_intonation_perc,2024.1.4,Linux x86_64,59.88023952,,,,,,,,,,,,,,140,vapen,,,,,,134.084,135.4004,1,0,0.7851,,0,51,51,139,1,pseudoword,0,REAL,FALSA
,,,,,,,,,5fb16308dc5973607fa3041c,001,2024-06-07_07h33.44.669,empathy_intonation_perc,2024.1.4,Linux x86_64,59.88023952,,,,,,,,,,,,,,52,blando,,,,,,135.4009,137.3502,0,1,1.4215,,0,52,52,51,1,non_cognate,1,REAL,FALSA
,,,,,,,,,5fb16308dc5973607fa3041c,001,2024-06-07_07h33.44.669,empathy_intonation_perc,2024.1.4,Linux x86_64,59.88023952,,,,,,,,,,,,,,85,enorme,,,,,,137.3506,138.9686,0,1,1.0901,,0,53,53,84,1,non_cognate,1,REAL,FALSA
,,,,,,,,,5fb16308dc5973607fa3041c,001,2024-06-07_07h33.44.669,empathy_intonation_perc,2024.1.4,Linux x86_64,59.88023952,,,,,,,,,,,,,,105,curgué,,,,,,138.9691,140.0844,0,1,0.5869,,0,54,54,104,1,pseudoword,0,REAL,FALSA
,,,,,,,,,5fb16308dc5973607fa3041c,001,2024-06-07_07h33.44.669,empathy_intonation_perc,2024.1.4,Linux x86_64,59.88023952,,,,,,,,,,,,,,111,vibler,,,,,,140.0849,141.5661,0,1,0.9522,,0,55,55,110,1,pseudoword,0,REAL,FALSA
,,,,,,,,,5fb16308dc5973607fa3041c,001,2024-06-07_07h33.44.669,empathy_intonation_perc,2024.1.4,Linux x86_64,59.88023952,,,,,,,,,,,,,,82,brillo,,,,,,141.5665,142.7496,1,0,0.6535,,0,56,56,81,1,non_cognate,1,REAL,FALSA
,,,,,,,,,5fb16308dc5973607fa3041c,001,2024-06-07_07h33.44.669,empathy_intonation_perc,2024.1.4,Linux x86_64,59.88023952,,,,,,,,,,,,,,112,cituló,,,,,,142.75,143.7995,0,1,0.5228,,0,57,57,111,1,pseudoword,0,REAL,FALSA
,,,,,,,,,5fb16308dc5973607fa3041c,001,2024-06-07_07h33.44.669,empathy_intonation_perc,2024.1.4,Linux x86_64,59.88023952,,,,,,,,,,,,,,129,suchas,,,,,,143.7999,144.8657,0,1,0.539,,0,58,58,128,1,pseudoword,0,REAL,FALSA
,,,,,,,,,5fb16308dc5973607fa3041c,001,2024-06-07_07h33.44.669,empathy_intonation_perc,2024.1.4,Linux x86_64,59.88023952,,,,,,,,,,,,,,22,plural,,,,,,144.8661,146.0498,1,0,0.6573,,0,59,59,21,1,three_way_cognate,1,REAL,FALSA
,,,,,,,,,5fb16308dc5973607fa3041c,001,2024-06-07_07h33.44.669,empathy_intonation_perc,2024.1.4,Linux x86_64,59.88023952,,,,,,,,,,,,,,130,dubo,,,,,,146.0503,147.3823,0,1,0.8024,,0,60,60,129,1,pseudoword,0,REAL,FALSA
,,,,,,,,,5fb16308dc5973607fa3041c,001,2024-06-07_07h33.44.669,empathy_intonation_perc,2024.1.4,Linux x86_64,59.88023952,,,,,,,,,,,,,,37,torso,,,,,,147.3827,148.5822,0,1,0.6696,,0,61,61,36,1,two_way_cognate,1,REAL,FALSA
,,,,,,,,,5fb16308dc5973607fa3041c,001,2024-06-07_07h33.44.669,empathy_intonation_perc,2024.1.4,Linux x86_64,59.88023952,,,,,,,,,,,,,,83,hálito,,,,,,148.5827,149.8656,0,1,0.7515,,0,62,62,82,1,non_cognate,1,REAL,FALSA
,,,,,,,,,5fb16308dc5973607fa3041c,001,2024-06-07_07h33.44.669,empathy_intonation_perc,2024.1.4,Linux x86_64,59.88023952,,,,,,,,,,,,,,23,porno,,,,,,149.866,151.0152,1,0,0.618,,0,63,63,22,1,three_way_cognate,1,REAL,FALSA
,,,,,,,,,5fb16308dc5973607fa3041c,001,2024-06-07_07h33.44.669,empathy_intonation_perc,2024.1.4,Linux x86_64,59.88023952,,,,,,,,,,,,,,109,hágino,,,,,,151.0156,152.2152,0,1,0.669,,0,64,64,108,1,pseudoword,0,REAL,FALSA
,,,,,,,,,5fb16308dc5973607fa3041c,001,2024-06-07_07h33.44.669,empathy_intonation_perc,2024.1.4,Linux x86_64,59.88023952,,,,,,,,,,,,,,59,feo,,,,,,152.2161,153.5816,0,1,0.8373,,0,65,65,58,1,non_cognate,1,REAL,FALSA
,,,,,,,,,5fb16308dc5973607fa3041c,001,2024-06-07_07h33.44.669,empathy_intonation_perc,2024.1.4,Linux x86_64,59.88023952,,,,,,,,,,,,,,53,punta,,,,,,153.582,154.765,1,0,0.6465,,0,66,66,52,1,non_cognate,1,REAL,FALSA
,,,,,,,,,5fb16308dc5973607fa3041c,001,2024-06-07_07h33.44.669,empathy_intonation_perc,2024.1.4,Linux x86_64,59.88023952,,,,,,,,,,,,,,81,sacar,,,,,,154.7655,156.0483,1,0,0.7448,,0,67,67,80,1,non_cognate,1,REAL,FALSA
,,,,,,,,,5fb16308dc5973607fa3041c,001,2024-06-07_07h33.44.669,empathy_intonation_perc,2024.1.4,Linux x86_64,59.88023952,,,,,,,,,,,,,,136,sopleó,,,,,,156.0489,157.3149,0,1,0.7027,,0,68,68,135,1,pseudoword,0,REAL,FALSA
,,,,,,,,,5fb16308dc5973607fa3041c,001,2024-06-07_07h33.44.669,empathy_intonation_perc,2024.1.4,Linux x86_64,59.88023952,,,,,,,,,,,,,,61,aduana,,,,,,157.316,159.3646,0,1,1.5124,,0,69,69,60,1,non_cognate,1,REAL,FALSA
,,,,,,,,,5fb16308dc5973607fa3041c,001,2024-06-07_07h33.44.669,empathy_intonation_perc,2024.1.4,Linux x86_64,59.88023952,,,,,,,,,,,,,,29,clamor,,,,,,159.365,161.4975,0,1,1.5983,,0,70,70,28,1,two_way_cognate,1,REAL,FALSA
,,,,,,,,,5fb16308dc5973607fa3041c,001,2024-06-07_07h33.44.669,empathy_intonation_perc,2024.1.4,Linux x86_64,59.88023952,,,,,,,,,,,,,,25,vigor,,,,,,161.498,162.7476,1,0,0.7228,,0,71,71,24,1,two_way_cognate,1,REAL,FALSA
,,,,,,,,,5fb16308dc5973607fa3041c,001,2024-06-07_07h33.44.669,empathy_intonation_perc,2024.1.4,Linux x86_64,59.88023952,,,,,,,,,,,,,,101,fertes,,,,,,162.748,163.8974,0,1,0.6219,,0,72,72,100,1,pseudoword,0,REAL,FALSA
,,,,,,,,,5fb16308dc5973607fa3041c,001,2024-06-07_07h33.44.669,empathy_intonation_perc,2024.1.4,Linux x86_64,59.88023952,,,,,,,,,,,,,,51,listo,,,,,,163.8978,165.1638,0,1,0.7322,,0,73,73,50,1,non_cognate,1,REAL,FALSA
,,,,,,,,,5fb16308dc5973607fa3041c,001,2024-06-07_07h33.44.669,empathy_intonation_perc,2024.1.4,Linux x86_64,59.88023952,,,,,,,,,,,,,,6,albino,,,,,,165.1642,166.7638,1,0,1.0654,,0,74,74,5,1,three_way_cognate,1,REAL,FALSA
,,,,,,,,,5fb16308dc5973607fa3041c,001,2024-06-07_07h33.44.669,empathy_intonation_perc,2024.1.4,Linux x86_64,59.88023952,,,,,,,,,,,,,,66,aleta,,,,,,166.7643,168.4635,0,1,1.1674,,0,75,75,65,1,non_cognate,1,REAL,FALSA
,,,,,,,,,5fb16308dc5973607fa3041c,001,2024-06-07_07h33.44.669,empathy_intonation_perc,2024.1.4,Linux x86_64,59.88023952,,,,,,,,,,,,,,38,halo,,,,,,168.4639,169.7633,1,0,0.7652,,0,76,76,37,1,two_way_cognate,1,REAL,FALSA
,,,,,,,,,5fb16308dc5973607fa3041c,001,2024-06-07_07h33.44.669,empathy_intonation_perc,2024.1.4,Linux x86_64,59.88023952,,,,,,,,,,,,,,11,dogma,,,,,,169.7637,171.2633,0,1,0.9682,,0,77,77,10,1,three_way_cognate,1,REAL,FALSA
,,,,,,,,,5fb16308dc5973607fa3041c,001,2024-06-07_07h33.44.669,empathy_intonation_perc,2024.1.4,Linux x86_64,59.88023952,,,,,,,,,,,,,,32,animal,,,,,,171.2637,172.4137,1,0,0.625,,0,78,78,31,1,two_way_cognate,1,REAL,FALSA
,,,,,,,,,5fb16308dc5973607fa3041c,001,2024-06-07_07h33.44.669,empathy_intonation_perc,2024.1.4,Linux x86_64,59.88023952,,,,,,,,,,,,,,30,fiscal,,,,,,172.4144,173.8963,1,0,0.9533,,0,79,79,29,1,two_way_cognate,1,REAL,FALSA
,,,,,,,,,5fb16308dc5973607fa3041c,001,2024-06-07_07h33.44.669,empathy_intonation_perc,2024.1.4,Linux x86_64,59.88023952,,,,,,,,,,,,,,95,listo,,,,,,173.8967,175.3135,0,1,0.8899,,0,80,80,94,1,non_cognate,1,REAL,FALSA
,,,,,,,,,5fb16308dc5973607fa3041c,001,2024-06-07_07h33.44.669,empathy_intonation_perc,2024.1.4,Linux x86_64,59.88023952,,,,,,,,,,,,,,75,patada,,,,,,175.314,176.7966,0,1,0.9544,,0,81,81,74,1,non_cognate,1,REAL,FALSA
,,,,,,,,,5fb16308dc5973607fa3041c,001,2024-06-07_07h33.44.669,empathy_intonation_perc,2024.1.4,Linux x86_64,59.88023952,,,,,,,,,,,,,,33,collar,,,,,,176.7971,177.9792,1,0,0.6519,,0,82,82,32,1,two_way_cognate,1,REAL,FALSA
,,,,,,,,,5fb16308dc5973607fa3041c,001,2024-06-07_07h33.44.669,empathy_intonation_perc,2024.1.4,Linux x86_64,59.88023952,,,,,,,,,,,,,,7,kilo,,,,,,177.9796,179.3466,1,0,0.8342,,0,83,83,6,1,three_way_cognate,1,REAL,FALSA
,,,,,,,,,5fb16308dc5973607fa3041c,001,2024-06-07_07h33.44.669,empathy_intonation_perc,2024.1.4,Linux x86_64,59.88023952,,,,,,,,,,,,,,135,macayó,,,,,,179.347,180.7121,0,1,0.8317,,0,84,84,134,1,pseudoword,0,REAL,FALSA
,,,,,,,,,5fb16308dc5973607fa3041c,001,2024-06-07_07h33.44.669,empathy_intonation_perc,2024.1.4,Linux x86_64,59.88023952,,,,,,,,,,,,,,125,ceme,,,,,,180.7125,181.9957,0,1,0.7666,,0,85,85,124,1,pseudoword,0,REAL,FALSA
,,,,,,,,,5fb16308dc5973607fa3041c,001,2024-06-07_07h33.44.669,empathy_intonation_perc,2024.1.4,Linux x86_64,59.88023952,,,,,,,,,,,,,,98,erede,,,,,,181.9962,183.2337,0,1,0.7023,,0,86,86,97,1,pseudoword,0,REAL,FALSA
,,,,,,,,,5fb16308dc5973607fa3041c,001,2024-06-07_07h33.44.669,empathy_intonation_perc,2024.1.4,Linux x86_64,59.88023952,,,,,,,,,,,,,,73,llevar,,,,,,183.2354,184.3974,0,1,0.64,,0,87,87,72,1,non_cognate,1,REAL,FALSA
,,,,,,,,,5fb16308dc5973607fa3041c,001,2024-06-07_07h33.44.669,empathy_intonation_perc,2024.1.4,Linux x86_64,59.88023952,,,,,,,,,,,,,,122,gravés,,,,,,184.3979,185.7303,1,0,0.8076,,0,88,88,121,1,pseudoword,0,REAL,FALSA
,,,,,,,,,5fb16308dc5973607fa3041c,001,2024-06-07_07h33.44.669,empathy_intonation_perc,2024.1.4,Linux x86_64,59.88023952,,,,,,,,,,,,,,68,puñal,,,,,,185.7306,187.1805,1,0,0.9251,,0,89,89,67,1,non_cognate,1,REAL,FALSA
,,,,,,,,,5fb16308dc5973607fa3041c,001,2024-06-07_07h33.44.669,empathy_intonation_perc,2024.1.4,Linux x86_64,59.88023952,,,,,,,,,,,,,,17,altar,,,,,,187.181,188.3976,1,0,0.6848,,0,90,90,16,1,three_way_cognate,1,REAL,FALSA
,,,,,,,,,5fb16308dc5973607fa3041c,001,2024-06-07_07h33.44.669,empathy_intonation_perc,2024.1.4,Linux x86_64,59.88023952,,,,,,,,,,,,,,117,apunan,,,,,,188.3986,189.628,0,1,0.6996,,0,91,91,116,1,pseudoword,0,REAL,FALSA
,,,,,,,,,5fb16308dc5973607fa3041c,001,2024-06-07_07h33.44.669,empathy_intonation_perc,2024.1.4,Linux x86_64,59.88023952,,,,,,,,,,,,,,92,flecha,,,,,,189.6284,190.8289,0,1,0.6663,,0,92,92,91,1,non_cognate,1,REAL,FALSA
,,,,,,,,,5fb16308dc5973607fa3041c,001,2024-06-07_07h33.44.669,empathy_intonation_perc,2024.1.4,Linux x86_64,59.88023952,,,,,,,,,,,,,,64,rizado,,,,,,190.8293,191.9966,0,1,0.6403,,0,93,93,63,1,non_cognate,1,REAL,FALSA
,,,,,,,,,5fb16308dc5973607fa3041c,001,2024-06-07_07h33.44.669,empathy_intonation_perc,2024.1.4,Linux x86_64,59.88023952,,,,,,,,,,,,,,127,vien,,,,,,191.9973,193.4779,1,0,0.9564,,0,94,94,126,1,pseudoword,0,REAL,FALSA
,,,,,,,,,5fb16308dc5973607fa3041c,001,2024-06-07_07h33.44.669,empathy_intonation_perc,2024.1.4,Linux x86_64,59.88023952,,,,,,,,,,,,,,9,drama,,,,,,193.4783,194.6117,1,0,0.6004,,0,95,95,8,1,three_way_cognate,1,REAL,FALSA
,,,,,,,,,5fb16308dc5973607fa3041c,001,2024-06-07_07h33.44.669,empathy_intonation_perc,2024.1.4,Linux x86_64,59.88023952,,,,,,,,,,,,,,91,equipo,,,,,,194.6121,195.6783,0,1,0.5295,,0,96,96,90,1,non_cognate,1,REAL,FALSA
,,,,,,,,,5fb16308dc5973607fa3041c,001,2024-06-07_07h33.44.669,empathy_intonation_perc,2024.1.4,Linux x86_64,59.88023952,,,,,,,,,,,,,,115,civas,,,,,,195.6787,196.8107,0,1,0.6035,,0,97,97,114,1,pseudoword,0,REAL,FALSA
,,,,,,,,,5fb16308dc5973607fa3041c,001,2024-06-07_07h33.44.669,empathy_intonation_perc,2024.1.4,Linux x86_64,59.88023952,,,,,,,,,,,,,,97,hufón,,,,,,196.8112,197.8948,0,1,0.5707,,0,98,98,96,1,pseudoword,0,REAL,FALSA
,,,,,,,,,5fb16308dc5973607fa3041c,001,2024-06-07_07h33.44.669,empathy_intonation_perc,2024.1.4,Linux x86_64,59.88023952,,,,,,,,,,,,,,56,pico,,,,,,197.8952,199.494,0,1,1.0705,,0,99,99,55,1,non_cognate,1,REAL,FALSA
,,,,,,,,,5fb16308dc5973607fa3041c,001,2024-06-07_07h33.44.669,empathy_intonation_perc,2024.1.4,Linux x86_64,59.88023952,,,,,,,,,,,,,,89,muñeca,,,,,,199.4944,200.5771,0,1,0.5664,,0,100,100,88,1,non_cognate,1,REAL,FALSA
,,,,,,,,,5fb16308dc5973607fa3041c,001,2024-06-07_07h33.44.669,empathy_intonation_perc,2024.1.4,Linux x86_64,59.88023952,,,,,,,,,,,,,,20,hotel,,,,,,200.5776,201.6111,1,0,0.5008,,0,101,101,19,1,three_way_cognate,1,REAL,FALSA
,,,,,,,,,5fb16308dc5973607fa3041c,001,2024-06-07_07h33.44.669,empathy_intonation_perc,2024.1.4,Linux x86_64,59.88023952,,,,,,,,,,,,,,72,rostro,,,,,,201.6115,202.7102,0,1,0.5646,,0,102,102,71,1,non_cognate,1,REAL,FALSA
,,,,,,,,,5fb16308dc5973607fa3041c,001,2024-06-07_07h33.44.669,empathy_intonation_perc,2024.1.4,Linux x86_64,59.88023952,,,,,,,,,,,,,,31,civil,,,,,,202.7107,203.8126,1,0,0.5616,,0,103,103,30,1,two_way_cognate,1,REAL,FALSA
,,,,,,,,,5fb16308dc5973607fa3041c,001,2024-06-07_07h33.44.669,empathy_intonation_perc,2024.1.4,Linux x86_64,59.88023952,,,,,,,,,,,,,,21,mango,,,,,,203.813,204.9769,1,0,0.6307,,0,104,104,20,1,three_way_cognate,1,REAL,FALSA
,,,,,,,,,5fb16308dc5973607fa3041c,001,2024-06-07_07h33.44.669,empathy_intonation_perc,2024.1.4,Linux x86_64,59.88023952,,,,,,,,,,,,,,65,guerra,,,,,,204.9776,206.3276,0,1,0.8154,,0,105,105,64,1,non_cognate,1,REAL,FALSA
,,,,,,,,,5fb16308dc5973607fa3041c,001,2024-06-07_07h33.44.669,empathy_intonation_perc,2024.1.4,Linux x86_64,59.88023952,,,,,,,,,,,,,,27,piano,,,,,,206.3281,207.4278,1,0,0.5707,,0,106,106,26,1,two_way_cognate,1,REAL,FALSA
,,,,,,,,,5fb16308dc5973607fa3041c,001,2024-06-07_07h33.44.669,empathy_intonation_perc,2024.1.4,Linux x86_64,59.88023952,,,,,,,,,,,,,,106,baurá,,,,,,207.4282,208.5931,0,1,0.64,,0,107,107,105,1,pseudoword,0,REAL,FALSA
,,,,,,,,,5fb16308dc5973607fa3041c,001,2024-06-07_07h33.44.669,empathy_intonation_perc,2024.1.4,Linux x86_64,59.88023952,,,,,,,,,,,,,,55,maldad,,,,,,208.5935,209.893,0,1,0.7801,,0,108,108,54,1,non_cognate,1,REAL,FALSA
,,,,,,,,,5fb16308dc5973607fa3041c,001,2024-06-07_07h33.44.669,empathy_intonation_perc,2024.1.4,Linux x86_64,59.88023952,,,,,,,,,,,,,,8,portal,,,,,,209.8938,210.9958,1,0,0.5875,,0,109,109,7,1,three_way_cognate,1,REAL,FALSA
,,,,,,,,,5fb16308dc5973607fa3041c,001,2024-06-07_07h33.44.669,empathy_intonation_perc,2024.1.4,Linux x86_64,59.88023952,,,,,,,,,,,,,,47,color,,,,,,210.9962,212.0594,1,0,0.531,,0,110,110,46,1,two_way_cognate,1,REAL,FALSA
,,,,,,,,,5fb16308dc5973607fa3041c,001,2024-06-07_07h33.44.669,empathy_intonation_perc,2024.1.4,Linux x86_64,59.88023952,,,,,,,,,,,,,,132,nocó,,,,,,212.0598,213.0603,0,1,0.4848,,0,111,111,131,1,pseudoword,0,REAL,FALSA
,,,,,,,,,5fb16308dc5973607fa3041c,001,2024-06-07_07h33.44.669,empathy_intonation_perc,2024.1.4,Linux x86_64,59.88023952,,,,,,,,,,,,,,57,regalo,,,,,,213.0607,214.1589,0,1,0.5655,,0,112,112,56,1,non_cognate,1,REAL,FALSA
,,,,,,,,,5fb16308dc5973607fa3041c,001,2024-06-07_07h33.44.669,empathy_intonation_perc,2024.1.4,Linux x86_64,59.88023952,,,,,,,,,,,,,,79,suelo,,,,,,214.1593,215.2254,0,1,0.5509,,0,113,113,78,1,non_cognate,1,REAL,FALSA
,,,,,,,,,5fb16308dc5973607fa3041c,001,2024-06-07_07h33.44.669,empathy_intonation_perc,2024.1.4,Linux x86_64,59.88023952,,,,,,,,,,,,,,43,honor,,,,,,215.2259,216.2765,1,0,0.5179,,0,114,114,42,1,two_way_cognate,1,REAL,FALSA
,,,,,,,,,5fb16308dc5973607fa3041c,001,2024-06-07_07h33.44.669,empathy_intonation_perc,2024.1.4,Linux x86_64,59.88023952,,,,,,,,,,,,,,54,tapón,,,,,,216.277,217.4098,1,0,0.5981,,0,115,115,53,1,non_cognate,1,REAL,FALSA
,,,,,,,,,5fb16308dc5973607fa3041c,001,2024-06-07_07h33.44.669,empathy_intonation_perc,2024.1.4,Linux x86_64,59.88023952,,,,,,,,,,,,,,88,percha,,,,,,217.4103,218.81,0,1,0.8681,,0,116,116,87,1,non_cognate,1,REAL,FALSA
,,,,,,,,,5fb16308dc5973607fa3041c,001,2024-06-07_07h33.44.669,empathy_intonation_perc,2024.1.4,Linux x86_64,59.88023952,,,,,,,,,,,,,,138,glural,,,,,,218.8104,220.2761,0,1,0.9301,,0,117,117,137,1,pseudoword,0,REAL,FALSA
,,,,,,,,,5fb16308dc5973607fa3041c,001,2024-06-07_07h33.44.669,empathy_intonation_perc,2024.1.4,Linux x86_64,59.88023952,,,,,,,,,,,,,,36,viable,,,,,,220.2778,221.5582,1,0,0.748,,0,118,118,35,1,two_way_cognate,1,REAL,FALSA
,,,,,,,,,5fb16308dc5973607fa3041c,001,2024-06-07_07h33.44.669,empathy_intonation_perc,2024.1.4,Linux x86_64,59.88023952,,,,,,,,,,,,,,87,muleta,,,,,,221.5586,222.708,0,1,0.613,,0,119,119,86,1,non_cognate,1,REAL,FALSA
,,,,,,,,,5fb16308dc5973607fa3041c,001,2024-06-07_07h33.44.669,empathy_intonation_perc,2024.1.4,Linux x86_64,59.88023952,,,,,,,,,,,,,,48,pelvis,,,,,,222.7099,223.8414,1,0,0.5987,,0,120,120,47,1,two_way_cognate,1,REAL,FALSA
,,,,,,,,,5fb16308dc5973607fa3041c,001,2024-06-07_07h33.44.669,empathy_intonation_perc,2024.1.4,Linux x86_64,59.88023952,,,,,,,,,,,,,,93,tapa,,,,,,223.8418,224.9091,1,0,0.5477,,0,121,121,92,1,non_cognate,1,REAL,FALSA
,,,,,,,,,5fb16308dc5973607fa3041c,001,2024-06-07_07h33.44.669,empathy_intonation_perc,2024.1.4,Linux x86_64,59.88023952,,,,,,,,,,,,,,90,venado,,,,,,224.9095,226.0756,0,1,0.6405,,0,122,122,89,1,non_cognate,1,REAL,FALSA
,,,,,,,,,5fb16308dc5973607fa3041c,001,2024-06-07_07h33.44.669,empathy_intonation_perc,2024.1.4,Linux x86_64,59.88023952,,,,,,,,,,,,,,137,unglés,,,,,,226.0777,227.4409,0,1,0.8363,,0,123,123,136,1,pseudoword,0,REAL,FALSA
,,,,,,,,,5fb16308dc5973607fa3041c,001,2024-06-07_07h33.44.669,empathy_intonation_perc,2024.1.4,Linux x86_64,59.88023952,,,,,,,,,,,,,,120,hierno,,,,,,227.4413,228.6744,0,1,0.7023,,0,124,124,119,1,pseudoword,0,REAL,FALSA
,,,,,,,,,5fb16308dc5973607fa3041c,001,2024-06-07_07h33.44.669,empathy_intonation_perc,2024.1.4,Linux x86_64,59.88023952,,,,,,,,,,,,,,15,chat,,,,,,228.6748,229.8753,1,0,0.6645,,0,125,125,14,1,three_way_cognate,1,REAL,FALSA
,,,,,,,,,5fb16308dc5973607fa3041c,001,2024-06-07_07h33.44.669,empathy_intonation_perc,2024.1.4,Linux x86_64,59.88023952,,,,,,,,,,,,,,119,esís,,,,,,229.8759,230.9906,0,1,0.5823,,0,126,126,118,1,pseudoword,0,REAL,FALSA
,,,,,,,,,5fb16308dc5973607fa3041c,001,2024-06-07_07h33.44.669,empathy_intonation_perc,2024.1.4,Linux x86_64,59.88023952,,,,,,,,,,,,,,12,plan,,,,,,230.991,232.107,1,0,0.5955,,0,127,127,11,1,three_way_cognate,1,REAL,FALSA
,,,,,,,,,5fb16308dc5973607fa3041c,001,2024-06-07_07h33.44.669,empathy_intonation_perc,2024.1.4,Linux x86_64,59.88023952,,,,,,,,,,,,,,96,caro,,,,,,232.1075,233.5247,0,1,0.904,,0,128,128,95,1,non_cognate,1,REAL,FALSA
,,,,,,,,,5fb16308dc5973607fa3041c,001,2024-06-07_07h33.44.669,empathy_intonation_perc,2024.1.4,Linux x86_64,59.88023952,,,,,,,,,,,,,,42,rumor,,,,,,233.5251,234.7237,1,0,0.6637,,0,129,129,41,1,two_way_cognate,1,REAL,FALSA
,,,,,,,,,5fb16308dc5973607fa3041c,001,2024-06-07_07h33.44.669,empathy_intonation_perc,2024.1.4,Linux x86_64,59.88023952,,,,,,,,,,,,,,84,aviso,,,,,,234.7242,235.8412,0,1,0.5805,,0,130,130,83,1,non_cognate,1,REAL,FALSA
,,,,,,,,,5fb16308dc5973607fa3041c,001,2024-06-07_07h33.44.669,empathy_intonation_perc,2024.1.4,Linux x86_64,59.88023952,,,,,,,,,,,,,,128,pelí,,,,,,235.8417,236.9578,0,1,0.5818,,0,131,131,127,1,pseudoword,0,REAL,FALSA
,,,,,,,,,5fb16308dc5973607fa3041c,001,2024-06-07_07h33.44.669,empathy_intonation_perc,2024.1.4,Linux x86_64,59.88023952,,,,,,,,,,,,,,39,casual,,,,,,236.9582,238.1417,1,0,0.6547,,0,132,132,38,1,two_way_cognate,1,REAL,FALSA
,,,,,,,,,5fb16308dc5973607fa3041c,001,2024-06-07_07h33.44.669,empathy_intonation_perc,2024.1.4,Linux x86_64,59.88023952,,,,,,,,,,,,,,18,mafia,,,,,,238.1422,239.4734,1,0,0.8036,,0,133,133,17,1,three_way_cognate,1,REAL,FALSA
,,,,,,,,,5fb16308dc5973607fa3041c,001,2024-06-07_07h33.44.669,empathy_intonation_perc,2024.1.4,Linux x86_64,59.88023952,,,,,,,,,,,,,,143,pledú,,,,,,239.4739,240.5906,1,0,0.585,,0,134,134,142,1,pseudoword,0,REAL,FALSA
,,,,,,,,,5fb16308dc5973607fa3041c,001,2024-06-07_07h33.44.669,empathy_intonation_perc,2024.1.4,Linux x86_64,59.88023952,,,,,,,,,,,,,,77,suave,,,,,,240.5911,241.8731,1,0,0.7496,,0,135,135,76,1,non_cognate,1,REAL,FALSA
,,,,,,,,,5fb16308dc5973607fa3041c,001,2024-06-07_07h33.44.669,empathy_intonation_perc,2024.1.4,Linux x86_64,59.88023952,,,,,,,,,,,,,,139,furbos,,,,,,241.8736,243.6891,0,1,1.2819,,0,136,136,138,1,pseudoword,0,REAL,FALSA
,,,,,,,,,5fb16308dc5973607fa3041c,001,2024-06-07_07h33.44.669,empathy_intonation_perc,2024.1.4,Linux x86_64,59.88023952,,,,,,,,,,,,,,69,tiza,,,,,,243.6895,244.9736,0,1,0.755,,0,137,137,68,1,non_cognate,1,REAL,FALSA
,,,,,,,,,5fb16308dc5973607fa3041c,001,2024-06-07_07h33.44.669,empathy_intonation_perc,2024.1.4,Linux x86_64,59.88023952,,,,,,,,,,,,,,126,anicio,,,,,,244.974,246.0888,0,1,0.5832,,0,138,138,125,1,pseudoword,0,REAL,FALSA
,,,,,,,,,5fb16308dc5973607fa3041c,001,2024-06-07_07h33.44.669,empathy_intonation_perc,2024.1.4,Linux x86_64,59.88023952,,,,,,,,,,,,,,110,vacapó,,,,,,246.0892,247.2887,0,1,0.6702,,0,139,139,109,1,pseudoword,0,REAL,FALSA
,,,,,,,,,5fb16308dc5973607fa3041c,001,2024-06-07_07h33.44.669,empathy_intonation_perc,2024.1.4,Linux x86_64,59.88023952,,,,,,,,,,,,,,114,potos,,,,,,247.2892,248.4893,0,1,0.6653,,0,140,140,113,1,pseudoword,0,REAL,FALSA
,,,,,,,,,5fb16308dc5973607fa3041c,001,2024-06-07_07h33.44.669,empathy_intonation_perc,2024.1.4,Linux x86_64,59.88023952,,,,,,,,,,,,,,24,retina,,,,,,248.4897,250.4739,0,1,1.4601,,0,141,141,23,1,three_way_cognate,1,REAL,FALSA
,,,,,,,,,5fb16308dc5973607fa3041c,001,2024-06-07_07h33.44.669,empathy_intonation_perc,2024.1.4,Linux x86_64,59.88023952,,,,,,,,,,,,,,86,cuenco,,,,,,250.4743,251.738,0,1,0.7387,,0,142,142,85,1,non_cognate,1,REAL,FALSA
,,,,,,,,,5fb16308dc5973607fa3041c,001,2024-06-07_07h33.44.669,empathy_intonation_perc,2024.1.4,Linux x86_64,59.88023952,,,,,,,,,,,,,,19,trauma,,,,,,251.7386,252.8239,1,0,0.5683,,0,143,143,18,1,three_way_cognate,1,REAL,FALSA
