lextale_instructions.started,lextale_instructions.stopped,lextale_instructions_loop.thisRepN,lextale_instructions_loop.thisTrialN,lextale_instructions_loop.thisN,lextale_instructions_loop.thisIndex,lextale_instructions_loop.ran,instructions_text,continue_text,participant,session,date,expName,psychopyVersion,OS,frameRate,lextale_practice.started,lextale_practice.stopped,key_resp_lextale_practice.keys,key_resp_lextale_practice.corr,key_resp_lextale_practice.rt,key_resp_lextale_practice.duration,lextale_practice_feedback.started,lextale_practice_feedback.stopped,lextale_practice_trials.thisRepN,lextale_practice_trials.thisTrialN,lextale_practice_trials.thisN,lextale_practice_trials.thisIndex,lextale_practice_trials.ran,stim,word,correct_response,prac_button_real,prac_button_false,lextale_check.started,lextale_check.stopped,lextale_trial.started,lextale_trial.stopped,key_resp_lextale_trial.keys,key_resp_lextale_trial.corr,key_resp_lextale_trial.rt,key_resp_lextale_trial.duration,lextail_trials.thisRepN,lextail_trials.thisTrialN,lextail_trials.thisN,lextail_trials.thisIndex,lextail_trials.ran,type,correct_reponse,button_real,button_false
0.0034,6.9595,0,0,0,0,1,"Este es un test de vocabulario en español. 
  
  A continuación vas a ver 90 secuencias de letras que parecen 'españolas'.
  
  Solo algunas de ellas son palabras de verdad.",(presiona la barra espaciadora para continuar),62fcd9d412c2f366e0df8de0,001,2024-06-07_07h51.06.588,empathy_intonation_perc,2024.1.4,MacIntel,59.88023952,,,,,,,,,,,,,,,,,,,,,,,,,,,,,,,,,,,
6.9602,11.2425,0,1,1,1,1,"Por favor, señala las palabras que tú conoces (aquellas que estás convencido que son palabras españolas, incluso aunque no seas capaz de dar el significado preciso).",(presiona la barra espaciadora para continuar),62fcd9d412c2f366e0df8de0,001,2024-06-07_07h51.06.588,empathy_intonation_perc,2024.1.4,MacIntel,59.88023952,,,,,,,,,,,,,,,,,,,,,,,,,,,,,,,,,,,
11.2428,18.0762,0,2,2,2,1,Pero cuidado: los errores se penalizan. Por eso no tiene sentido tratar de incrementar tu puntuación marcando como reales palabras que nunca has visto.,(presiona la barra espaciadora para continuar),62fcd9d412c2f366e0df8de0,001,2024-06-07_07h51.06.588,empathy_intonation_perc,2024.1.4,MacIntel,59.88023952,,,,,,,,,,,,,,,,,,,,,,,,,,,,,,,,,,,
18.0767,22.7429,0,3,3,3,1,"Presiona la tecla 1 si piensas que es una palabra real y la tecla 
  0 si piensas que es una palabra falsa. 
  
  Vamos a practicar un poco...",(presiona la barra espaciadora para continuar),62fcd9d412c2f366e0df8de0,001,2024-06-07_07h51.06.588,empathy_intonation_perc,2024.1.4,MacIntel,59.88023952,,,,,,,,,,,,,,,,,,,,,,,,,,,,,,,,,,,
,,,,,,,,,62fcd9d412c2f366e0df8de0,001,2024-06-07_07h51.06.588,empathy_intonation_perc,2024.1.4,MacIntel,59.88023952,22.7514,28.7431,0,1,5.4543,,28.7434,29.743,0,0,0,0,1,0,depiste,0,REAL,FALSA,,,,,,,,,,,,,,,,,
,,,,,,,,,62fcd9d412c2f366e0df8de0,001,2024-06-07_07h51.06.588,empathy_intonation_perc,2024.1.4,MacIntel,59.88023952,29.7437,31.6261,1,1,1.3466,,31.6262,32.626,0,1,1,1,1,0,sí,1,REAL,FALSA,,,,,,,,,,,,,,,,,
,,,,,,,,,62fcd9d412c2f366e0df8de0,001,2024-06-07_07h51.06.588,empathy_intonation_perc,2024.1.4,MacIntel,59.88023952,32.6263,34.7928,0,1,1.6239,,34.7929,35.7926,0,2,2,2,1,0,coné,0,REAL,FALSA,,,,,,,,,,,,,,,,,
,,,,,,,,,62fcd9d412c2f366e0df8de0,001,2024-06-07_07h51.06.588,empathy_intonation_perc,2024.1.4,MacIntel,59.88023952,35.7929,37.4096,0,1,1.0757,,37.4096,38.4094,0,3,3,3,1,0,calpar,0,REAL,FALSA,,,,,,,,,,,,,,,,,
,,,,,,,,,62fcd9d412c2f366e0df8de0,001,2024-06-07_07h51.06.588,empathy_intonation_perc,2024.1.4,MacIntel,59.88023952,38.4097,39.843,0,1,0.8938,,39.843,40.8429,0,4,4,4,1,0,joten,0,REAL,FALSA,,,,,,,,,,,,,,,,,
,,,,,,,,,62fcd9d412c2f366e0df8de0,001,2024-06-07_07h51.06.588,empathy_intonation_perc,2024.1.4,MacIntel,59.88023952,40.8432,42.8928,1,1,1.5134,,42.8928,43.8929,0,5,5,5,1,0,sacapuntas,1,REAL,FALSA,,,,,,,,,,,,,,,,,
,,,,,,,,,62fcd9d412c2f366e0df8de0,001,2024-06-07_07h51.06.588,empathy_intonation_perc,2024.1.4,MacIntel,59.88023952,43.9022,46.043,0,1,1.6053,,46.043,47.0421,0,6,6,6,1,0,priba,0,REAL,FALSA,,,,,,,,,,,,,,,,,
,,,,,,,,,62fcd9d412c2f366e0df8de0,001,2024-06-07_07h51.06.588,empathy_intonation_perc,2024.1.4,MacIntel,59.88023952,47.0425,49.0764,1,0,1.5129,,49.0765,50.0765,0,7,7,7,1,0,pelasula,0,REAL,FALSA,,,,,,,,,,,,,,,,,
,,,,,,,,,62fcd9d412c2f366e0df8de0,001,2024-06-07_07h51.06.588,empathy_intonation_perc,2024.1.4,MacIntel,59.88023952,50.0875,51.4598,1,1,0.8456,,51.4598,52.4598,0,8,8,8,1,0,bien,1,REAL,FALSA,,,,,,,,,,,,,,,,,
,,,,,,,,,62fcd9d412c2f366e0df8de0,001,2024-06-07_07h51.06.588,empathy_intonation_perc,2024.1.4,MacIntel,59.88023952,52.4601,53.7265,1,1,0.7289,,53.7265,54.7264,0,9,9,9,1,0,casa,1,REAL,FALSA,,,,,,,,,,,,,,,,,
,,,,,,,,,62fcd9d412c2f366e0df8de0,001,2024-06-07_07h51.06.588,empathy_intonation_perc,2024.1.4,MacIntel,59.88023952,54.7268,56.1432,1,0,0.8784,,56.1432,57.1431,0,10,10,10,1,0,lejo,0,REAL,FALSA,,,,,,,,,,,,,,,,,
,,,,,,,,,62fcd9d412c2f366e0df8de0,001,2024-06-07_07h51.06.588,empathy_intonation_perc,2024.1.4,MacIntel,59.88023952,57.1435,58.9096,0,1,1.2272,,58.9097,59.9098,0,11,11,11,1,0,pretantas,0,REAL,FALSA,,,,,,,,,,,,,,,,,
,,,,,,,,,62fcd9d412c2f366e0df8de0,001,2024-06-07_07h51.06.588,empathy_intonation_perc,2024.1.4,MacIntel,59.88023952,,,,,,,,,,,,,,,,,,,59.9103,65.8939,,,,,,,,,,,,,,,
,,,,,,,,,62fcd9d412c2f366e0df8de0,001,2024-06-07_07h51.06.588,empathy_intonation_perc,2024.1.4,MacIntel,59.88023952,,,,,,,,,,,,,,81,sacar,,,,,,65.9125,68.277,0,1,1.83,,0,0,0,80,1,non_cognate,1,REAL,FALSA
,,,,,,,,,62fcd9d412c2f366e0df8de0,001,2024-06-07_07h51.06.588,empathy_intonation_perc,2024.1.4,MacIntel,59.88023952,,,,,,,,,,,,,,51,listo,,,,,,68.2773,70.4435,1,0,1.6285,,0,1,1,50,1,non_cognate,1,REAL,FALSA
,,,,,,,,,62fcd9d412c2f366e0df8de0,001,2024-06-07_07h51.06.588,empathy_intonation_perc,2024.1.4,MacIntel,59.88023952,,,,,,,,,,,,,,49,teñir,,,,,,70.4438,72.56,0,1,1.588,,0,2,2,48,1,non_cognate,1,REAL,FALSA
,,,,,,,,,62fcd9d412c2f366e0df8de0,001,2024-06-07_07h51.06.588,empathy_intonation_perc,2024.1.4,MacIntel,59.88023952,,,,,,,,,,,,,,115,civas,,,,,,72.5604,74.6102,0,1,1.5122,,0,3,3,114,1,pseudoword,0,REAL,FALSA
,,,,,,,,,62fcd9d412c2f366e0df8de0,001,2024-06-07_07h51.06.588,empathy_intonation_perc,2024.1.4,MacIntel,59.88023952,,,,,,,,,,,,,,28,ardor,,,,,,74.6106,76.1936,0,1,1.0418,,0,4,4,27,1,two_way_cognate,1,REAL,FALSA
,,,,,,,,,62fcd9d412c2f366e0df8de0,001,2024-06-07_07h51.06.588,empathy_intonation_perc,2024.1.4,MacIntel,59.88023952,,,,,,,,,,,,,,136,sopleó,,,,,,76.1939,77.9095,0,1,1.1704,,0,5,5,135,1,pseudoword,0,REAL,FALSA
,,,,,,,,,62fcd9d412c2f366e0df8de0,001,2024-06-07_07h51.06.588,empathy_intonation_perc,2024.1.4,MacIntel,59.88023952,,,,,,,,,,,,,,123,escare,,,,,,77.9104,79.4937,1,0,1.0427,,0,6,6,122,1,pseudoword,0,REAL,FALSA
,,,,,,,,,62fcd9d412c2f366e0df8de0,001,2024-06-07_07h51.06.588,empathy_intonation_perc,2024.1.4,MacIntel,59.88023952,,,,,,,,,,,,,,69,tiza,,,,,,79.4941,81.5603,1,0,1.5306,,0,7,7,68,1,non_cognate,1,REAL,FALSA
,,,,,,,,,62fcd9d412c2f366e0df8de0,001,2024-06-07_07h51.06.588,empathy_intonation_perc,2024.1.4,MacIntel,59.88023952,,,,,,,,,,,,,,134,fruzas,,,,,,81.571,95.3106,0,1,13.207,,0,8,8,133,1,pseudoword,0,REAL,FALSA
,,,,,,,,,62fcd9d412c2f366e0df8de0,001,2024-06-07_07h51.06.588,empathy_intonation_perc,2024.1.4,MacIntel,59.88023952,,,,,,,,,,,,,,23,porno,,,,,,95.3211,98.9774,0,1,3.1268,,0,9,9,22,1,three_way_cognate,1,REAL,FALSA
,,,,,,,,,62fcd9d412c2f366e0df8de0,001,2024-06-07_07h51.06.588,empathy_intonation_perc,2024.1.4,MacIntel,59.88023952,,,,,,,,,,,,,,121,rombar,,,,,,98.9777,112.8778,0,1,13.3604,,0,10,10,120,1,pseudoword,0,REAL,FALSA
,,,,,,,,,62fcd9d412c2f366e0df8de0,001,2024-06-07_07h51.06.588,empathy_intonation_perc,2024.1.4,MacIntel,59.88023952,,,,,,,,,,,,,,29,clamor,,,,,,112.8894,116.561,0,1,3.1451,,0,11,11,28,1,two_way_cognate,1,REAL,FALSA
,,,,,,,,,62fcd9d412c2f366e0df8de0,001,2024-06-07_07h51.06.588,empathy_intonation_perc,2024.1.4,MacIntel,59.88023952,,,,,,,,,,,,,,70,ánimo,,,,,,116.5614,119.1278,1,0,2.0255,,0,12,12,69,1,non_cognate,1,REAL,FALSA
,,,,,,,,,62fcd9d412c2f366e0df8de0,001,2024-06-07_07h51.06.588,empathy_intonation_perc,2024.1.4,MacIntel,59.88023952,,,,,,,,,,,,,,7,kilo,,,,,,119.1378,121.0936,1,0,1.4314,,0,13,13,6,1,three_way_cognate,1,REAL,FALSA
,,,,,,,,,62fcd9d412c2f366e0df8de0,001,2024-06-07_07h51.06.588,empathy_intonation_perc,2024.1.4,MacIntel,59.88023952,,,,,,,,,,,,,,111,vibler,,,,,,121.0939,123.2945,0,1,1.6648,,0,14,14,110,1,pseudoword,0,REAL,FALSA
,,,,,,,,,62fcd9d412c2f366e0df8de0,001,2024-06-07_07h51.06.588,empathy_intonation_perc,2024.1.4,MacIntel,59.88023952,,,,,,,,,,,,,,82,brillo,,,,,,123.2948,138.0618,1,0,14.2288,,0,15,15,81,1,non_cognate,1,REAL,FALSA
,,,,,,,,,62fcd9d412c2f366e0df8de0,001,2024-06-07_07h51.06.588,empathy_intonation_perc,2024.1.4,MacIntel,59.88023952,,,,,,,,,,,,,,120,hierno,,,,,,138.074,150.0451,0,1,11.4499,,0,16,16,119,1,pseudoword,0,REAL,FALSA
,,,,,,,,,62fcd9d412c2f366e0df8de0,001,2024-06-07_07h51.06.588,empathy_intonation_perc,2024.1.4,MacIntel,59.88023952,,,,,,,,,,,,,,104,vitra,,,,,,150.0567,166.2122,0,1,15.632,,0,17,17,103,1,pseudoword,0,REAL,FALSA
,,,,,,,,,62fcd9d412c2f366e0df8de0,001,2024-06-07_07h51.06.588,empathy_intonation_perc,2024.1.4,MacIntel,59.88023952,,,,,,,,,,,,,,84,aviso,,,,,,166.2246,168.112,1,0,1.364,,0,18,18,83,1,non_cognate,1,REAL,FALSA
,,,,,,,,,62fcd9d412c2f366e0df8de0,001,2024-06-07_07h51.06.588,empathy_intonation_perc,2024.1.4,MacIntel,59.88023952,,,,,,,,,,,,,,101,fertes,,,,,,168.1123,179.2124,1,0,10.5667,,0,19,19,100,1,pseudoword,0,REAL,FALSA
,,,,,,,,,62fcd9d412c2f366e0df8de0,001,2024-06-07_07h51.06.588,empathy_intonation_perc,2024.1.4,MacIntel,59.88023952,,,,,,,,,,,,,,85,enorme,,,,,,179.2251,181.3457,1,0,1.6003,,0,20,20,84,1,non_cognate,1,REAL,FALSA
,,,,,,,,,62fcd9d412c2f366e0df8de0,001,2024-06-07_07h51.06.588,empathy_intonation_perc,2024.1.4,MacIntel,59.88023952,,,,,,,,,,,,,,63,hilo,,,,,,181.3461,191.6791,1,0,9.8069,,0,21,21,62,1,non_cognate,1,REAL,FALSA
,,,,,,,,,62fcd9d412c2f366e0df8de0,001,2024-06-07_07h51.06.588,empathy_intonation_perc,2024.1.4,MacIntel,59.88023952,,,,,,,,,,,,,,80,cuenco,,,,,,191.6898,193.9459,1,0,1.7279,,0,22,22,79,1,non_cognate,1,REAL,FALSA
,,,,,,,,,62fcd9d412c2f366e0df8de0,001,2024-06-07_07h51.06.588,empathy_intonation_perc,2024.1.4,MacIntel,59.88023952,,,,,,,,,,,,,,12,plan,,,,,,193.9462,196.5954,0,1,2.1123,,0,23,23,11,1,three_way_cognate,1,REAL,FALSA
,,,,,,,,,62fcd9d412c2f366e0df8de0,001,2024-06-07_07h51.06.588,empathy_intonation_perc,2024.1.4,MacIntel,59.88023952,,,,,,,,,,,,,,4,extra,,,,,,196.5958,216.3299,0,1,19.2094,,0,24,24,3,1,three_way_cognate,1,REAL,FALSA
,,,,,,,,,62fcd9d412c2f366e0df8de0,001,2024-06-07_07h51.06.588,empathy_intonation_perc,2024.1.4,MacIntel,59.88023952,,,,,,,,,,,,,,17,altar,,,,,,216.3421,225.6131,1,0,8.7458,,0,25,25,16,1,three_way_cognate,1,REAL,FALSA
,,,,,,,,,62fcd9d412c2f366e0df8de0,001,2024-06-07_07h51.06.588,empathy_intonation_perc,2024.1.4,MacIntel,59.88023952,,,,,,,,,,,,,,42,rumor,,,,,,225.6234,234.9801,1,0,8.834,,0,26,26,41,1,two_way_cognate,1,REAL,FALSA
,,,,,,,,,62fcd9d412c2f366e0df8de0,001,2024-06-07_07h51.06.588,empathy_intonation_perc,2024.1.4,MacIntel,59.88023952,,,,,,,,,,,,,,47,color,,,,,,234.991,237.5126,0,1,1.9951,,0,27,27,46,1,two_way_cognate,1,REAL,FALSA
,,,,,,,,,62fcd9d412c2f366e0df8de0,001,2024-06-07_07h51.06.588,empathy_intonation_perc,2024.1.4,MacIntel,59.88023952,,,,,,,,,,,,,,32,animal,,,,,,237.5129,256.1472,1,0,18.1149,,0,28,28,31,1,two_way_cognate,1,REAL,FALSA
,,,,,,,,,62fcd9d412c2f366e0df8de0,001,2024-06-07_07h51.06.588,empathy_intonation_perc,2024.1.4,MacIntel,59.88023952,,,,,,,,,,,,,,83,hálito,,,,,,256.1582,272.0469,1,0,15.375,,0,29,29,82,1,non_cognate,1,REAL,FALSA
,,,,,,,,,62fcd9d412c2f366e0df8de0,001,2024-06-07_07h51.06.588,empathy_intonation_perc,2024.1.4,MacIntel,59.88023952,,,,,,,,,,,,,,124,lobe,,,,,,272.0567,274.4637,0,1,1.8797,,0,30,30,123,1,pseudoword,0,REAL,FALSA
,,,,,,,,,62fcd9d412c2f366e0df8de0,001,2024-06-07_07h51.06.588,empathy_intonation_perc,2024.1.4,MacIntel,59.88023952,,,,,,,,,,,,,,68,puñal,,,,,,274.464,277.2475,0,1,2.2645,,0,31,31,67,1,non_cognate,1,REAL,FALSA
,,,,,,,,,62fcd9d412c2f366e0df8de0,001,2024-06-07_07h51.06.588,empathy_intonation_perc,2024.1.4,MacIntel,59.88023952,,,,,,,,,,,,,,8,portal,,,,,,277.2478,287.1311,1,0,9.3466,,0,32,32,7,1,three_way_cognate,1,REAL,FALSA
,,,,,,,,,62fcd9d412c2f366e0df8de0,001,2024-06-07_07h51.06.588,empathy_intonation_perc,2024.1.4,MacIntel,59.88023952,,,,,,,,,,,,,,78,rendir,,,,,,287.141,302.3148,1,0,14.6494,,0,33,33,77,1,non_cognate,1,REAL,FALSA
,,,,,,,,,62fcd9d412c2f366e0df8de0,001,2024-06-07_07h51.06.588,empathy_intonation_perc,2024.1.4,MacIntel,59.88023952,,,,,,,,,,,,,,64,rizado,,,,,,302.3264,304.2314,1,0,1.3802,,0,34,34,63,1,non_cognate,1,REAL,FALSA
,,,,,,,,,62fcd9d412c2f366e0df8de0,001,2024-06-07_07h51.06.588,empathy_intonation_perc,2024.1.4,MacIntel,59.88023952,,,,,,,,,,,,,,52,blando,,,,,,304.2318,312.015,1,0,7.2554,,0,35,35,51,1,non_cognate,1,REAL,FALSA
,,,,,,,,,62fcd9d412c2f366e0df8de0,001,2024-06-07_07h51.06.588,empathy_intonation_perc,2024.1.4,MacIntel,59.88023952,,,,,,,,,,,,,,137,unglés,,,,,,312.0258,314.2482,0,1,1.6889,,0,36,36,136,1,pseudoword,0,REAL,FALSA
,,,,,,,,,62fcd9d412c2f366e0df8de0,001,2024-06-07_07h51.06.588,empathy_intonation_perc,2024.1.4,MacIntel,59.88023952,,,,,,,,,,,,,,44,editor,,,,,,314.2486,316.0816,0,1,1.2955,,0,37,37,43,1,two_way_cognate,1,REAL,FALSA
,,,,,,,,,62fcd9d412c2f366e0df8de0,001,2024-06-07_07h51.06.588,empathy_intonation_perc,2024.1.4,MacIntel,59.88023952,,,,,,,,,,,,,,57,regalo,,,,,,316.0819,324.0316,1,0,7.4188,,0,38,38,56,1,non_cognate,1,REAL,FALSA
,,,,,,,,,62fcd9d412c2f366e0df8de0,001,2024-06-07_07h51.06.588,empathy_intonation_perc,2024.1.4,MacIntel,59.88023952,,,,,,,,,,,,,,56,pico,,,,,,324.043,326.1151,1,0,1.5485,,0,39,39,55,1,non_cognate,1,REAL,FALSA
,,,,,,,,,62fcd9d412c2f366e0df8de0,001,2024-06-07_07h51.06.588,empathy_intonation_perc,2024.1.4,MacIntel,59.88023952,,,,,,,,,,,,,,114,potos,,,,,,326.1264,328.1486,1,0,1.4957,,0,40,40,113,1,pseudoword,0,REAL,FALSA
,,,,,,,,,62fcd9d412c2f366e0df8de0,001,2024-06-07_07h51.06.588,empathy_intonation_perc,2024.1.4,MacIntel,59.88023952,,,,,,,,,,,,,,143,pledú,,,,,,328.1489,330.4819,0,1,1.795,,0,41,41,142,1,pseudoword,0,REAL,FALSA
,,,,,,,,,62fcd9d412c2f366e0df8de0,001,2024-06-07_07h51.06.588,empathy_intonation_perc,2024.1.4,MacIntel,59.88023952,,,,,,,,,,,,,,66,aleta,,,,,,330.4822,332.5652,1,0,1.5585,,0,42,42,65,1,non_cognate,1,REAL,FALSA
,,,,,,,,,62fcd9d412c2f366e0df8de0,001,2024-06-07_07h51.06.588,empathy_intonation_perc,2024.1.4,MacIntel,59.88023952,,,,,,,,,,,,,,55,maldad,,,,,,332.5656,343.4988,1,0,10.4079,,0,43,43,54,1,non_cognate,1,REAL,FALSA
,,,,,,,,,62fcd9d412c2f366e0df8de0,001,2024-06-07_07h51.06.588,empathy_intonation_perc,2024.1.4,MacIntel,59.88023952,,,,,,,,,,,,,,43,honor,,,,,,343.4991,354.3991,0,1,10.3639,,0,44,44,42,1,two_way_cognate,1,REAL,FALSA
,,,,,,,,,62fcd9d412c2f366e0df8de0,001,2024-06-07_07h51.06.588,empathy_intonation_perc,2024.1.4,MacIntel,59.88023952,,,,,,,,,,,,,,107,plamos,,,,,,354.4115,364.9159,0,1,9.9824,,0,45,45,106,1,pseudoword,0,REAL,FALSA
,,,,,,,,,62fcd9d412c2f366e0df8de0,001,2024-06-07_07h51.06.588,empathy_intonation_perc,2024.1.4,MacIntel,59.88023952,,,,,,,,,,,,,,20,hotel,,,,,,364.9255,377.832,1,0,12.3811,,0,46,46,19,1,three_way_cognate,1,REAL,FALSA
,,,,,,,,,62fcd9d412c2f366e0df8de0,001,2024-06-07_07h51.06.588,empathy_intonation_perc,2024.1.4,MacIntel,59.88023952,,,,,,,,,,,,,,141,sumer,,,,,,377.8436,393.9159,0,1,15.5446,,0,47,47,140,1,pseudoword,0,REAL,FALSA
,,,,,,,,,62fcd9d412c2f366e0df8de0,001,2024-06-07_07h51.06.588,empathy_intonation_perc,2024.1.4,MacIntel,59.88023952,,,,,,,,,,,,,,106,baurá,,,,,,393.925,396.9999,1,0,2.5477,,0,48,48,105,1,pseudoword,0,REAL,FALSA
,,,,,,,,,62fcd9d412c2f366e0df8de0,001,2024-06-07_07h51.06.588,empathy_intonation_perc,2024.1.4,MacIntel,59.88023952,,,,,,,,,,,,,,36,viable,,,,,,397.0003,399.2499,0,1,1.712,,0,49,49,35,1,two_way_cognate,1,REAL,FALSA
,,,,,,,,,62fcd9d412c2f366e0df8de0,001,2024-06-07_07h51.06.588,empathy_intonation_perc,2024.1.4,MacIntel,59.88023952,,,,,,,,,,,,,,6,albino,,,,,,399.2502,415.5992,1,0,15.8114,,0,50,50,5,1,three_way_cognate,1,REAL,FALSA
,,,,,,,,,62fcd9d412c2f366e0df8de0,001,2024-06-07_07h51.06.588,empathy_intonation_perc,2024.1.4,MacIntel,59.88023952,,,,,,,,,,,,,,112,cituló,,,,,,415.6095,426.1996,0,1,10.0621,,0,51,51,111,1,pseudoword,0,REAL,FALSA
,,,,,,,,,62fcd9d412c2f366e0df8de0,001,2024-06-07_07h51.06.588,empathy_intonation_perc,2024.1.4,MacIntel,59.88023952,,,,,,,,,,,,,,90,venado,,,,,,426.2111,428.1005,1,0,1.3622,,0,52,52,89,1,non_cognate,1,REAL,FALSA
,,,,,,,,,62fcd9d412c2f366e0df8de0,001,2024-06-07_07h51.06.588,empathy_intonation_perc,2024.1.4,MacIntel,59.88023952,,,,,,,,,,,,,,60,siglo,,,,,,428.1008,445.1177,1,0,16.484,,0,53,53,59,1,non_cognate,1,REAL,FALSA
,,,,,,,,,62fcd9d412c2f366e0df8de0,001,2024-06-07_07h51.06.588,empathy_intonation_perc,2024.1.4,MacIntel,59.88023952,,,,,,,,,,,,,,53,punta,,,,,,445.1298,446.8332,1,0,1.1825,,0,54,54,52,1,non_cognate,1,REAL,FALSA
,,,,,,,,,62fcd9d412c2f366e0df8de0,001,2024-06-07_07h51.06.588,empathy_intonation_perc,2024.1.4,MacIntel,59.88023952,,,,,,,,,,,,,,31,civil,,,,,,446.8336,449.3009,0,1,1.9432,,0,55,55,30,1,two_way_cognate,1,REAL,FALSA
,,,,,,,,,62fcd9d412c2f366e0df8de0,001,2024-06-07_07h51.06.588,empathy_intonation_perc,2024.1.4,MacIntel,59.88023952,,,,,,,,,,,,,,10,golf,,,,,,449.3119,450.9499,0,1,1.111,,0,56,56,9,1,three_way_cognate,1,REAL,FALSA
,,,,,,,,,62fcd9d412c2f366e0df8de0,001,2024-06-07_07h51.06.588,empathy_intonation_perc,2024.1.4,MacIntel,59.88023952,,,,,,,,,,,,,,13,aura,,,,,,450.9503,464.8174,0,1,13.347,,0,57,57,12,1,three_way_cognate,1,REAL,FALSA
,,,,,,,,,62fcd9d412c2f366e0df8de0,001,2024-06-07_07h51.06.588,empathy_intonation_perc,2024.1.4,MacIntel,59.88023952,,,,,,,,,,,,,,58,colcha,,,,,,464.8268,466.7673,1,0,1.4182,,0,58,58,57,1,non_cognate,1,REAL,FALSA
,,,,,,,,,62fcd9d412c2f366e0df8de0,001,2024-06-07_07h51.06.588,empathy_intonation_perc,2024.1.4,MacIntel,59.88023952,,,,,,,,,,,,,,26,enigma,,,,,,466.7675,469.5847,1,0,2.2803,,0,59,59,25,1,two_way_cognate,1,REAL,FALSA
,,,,,,,,,62fcd9d412c2f366e0df8de0,001,2024-06-07_07h51.06.588,empathy_intonation_perc,2024.1.4,MacIntel,59.88023952,,,,,,,,,,,,,,133,tirafa,,,,,,469.595,484.3848,0,1,14.2741,,0,60,60,132,1,pseudoword,0,REAL,FALSA
,,,,,,,,,62fcd9d412c2f366e0df8de0,001,2024-06-07_07h51.06.588,empathy_intonation_perc,2024.1.4,MacIntel,59.88023952,,,,,,,,,,,,,,65,guerra,,,,,,484.3947,505.5024,1,0,20.5783,,0,61,61,64,1,non_cognate,1,REAL,FALSA
,,,,,,,,,62fcd9d412c2f366e0df8de0,001,2024-06-07_07h51.06.588,empathy_intonation_perc,2024.1.4,MacIntel,59.88023952,,,,,,,,,,,,,,14,test,,,,,,505.5144,509.2354,0,1,3.1952,,0,62,62,13,1,three_way_cognate,1,REAL,FALSA
,,,,,,,,,62fcd9d412c2f366e0df8de0,001,2024-06-07_07h51.06.588,empathy_intonation_perc,2024.1.4,MacIntel,59.88023952,,,,,,,,,,,,,,126,anicio,,,,,,509.2357,520.1353,0,1,10.3632,,0,63,63,125,1,pseudoword,0,REAL,FALSA
,,,,,,,,,62fcd9d412c2f366e0df8de0,001,2024-06-07_07h51.06.588,empathy_intonation_perc,2024.1.4,MacIntel,59.88023952,,,,,,,,,,,,,,99,mieris,,,,,,520.1451,534.3859,1,0,13.7126,,0,64,64,98,1,pseudoword,0,REAL,FALSA
,,,,,,,,,62fcd9d412c2f366e0df8de0,001,2024-06-07_07h51.06.588,empathy_intonation_perc,2024.1.4,MacIntel,59.88023952,,,,,,,,,,,,,,59,feo,,,,,,534.3954,537.5526,1,0,2.6325,,0,65,65,58,1,non_cognate,1,REAL,FALSA
,,,,,,,,,62fcd9d412c2f366e0df8de0,001,2024-06-07_07h51.06.588,empathy_intonation_perc,2024.1.4,MacIntel,59.88023952,,,,,,,,,,,,,,127,vien,,,,,,537.553,540.3027,0,1,2.2182,,0,66,66,126,1,pseudoword,0,REAL,FALSA
,,,,,,,,,62fcd9d412c2f366e0df8de0,001,2024-06-07_07h51.06.588,empathy_intonation_perc,2024.1.4,MacIntel,59.88023952,,,,,,,,,,,,,,39,casual,,,,,,540.303,541.8193,0,1,0.9829,,0,67,67,38,1,two_way_cognate,1,REAL,FALSA
,,,,,,,,,62fcd9d412c2f366e0df8de0,001,2024-06-07_07h51.06.588,empathy_intonation_perc,2024.1.4,MacIntel,59.88023952,,,,,,,,,,,,,,117,apunan,,,,,,541.8198,543.3027,0,1,0.9502,,0,68,68,116,1,pseudoword,0,REAL,FALSA
,,,,,,,,,62fcd9d412c2f366e0df8de0,001,2024-06-07_07h51.06.588,empathy_intonation_perc,2024.1.4,MacIntel,59.88023952,,,,,,,,,,,,,,38,halo,,,,,,543.303,545.0185,1,0,1.1788,,0,69,69,37,1,two_way_cognate,1,REAL,FALSA
,,,,,,,,,62fcd9d412c2f366e0df8de0,001,2024-06-07_07h51.06.588,empathy_intonation_perc,2024.1.4,MacIntel,59.88023952,,,,,,,,,,,,,,22,plural,,,,,,545.0189,546.8862,0,1,1.3515,,0,70,70,21,1,three_way_cognate,1,REAL,FALSA
,,,,,,,,,62fcd9d412c2f366e0df8de0,001,2024-06-07_07h51.06.588,empathy_intonation_perc,2024.1.4,MacIntel,59.88023952,,,,,,,,,,,,,,138,glural,,,,,,546.8866,548.3686,0,1,0.9445,,0,71,71,137,1,pseudoword,0,REAL,FALSA
,,,,,,,,,62fcd9d412c2f366e0df8de0,001,2024-06-07_07h51.06.588,empathy_intonation_perc,2024.1.4,MacIntel,59.88023952,,,,,,,,,,,,,,129,suchas,,,,,,548.369,550.1195,1,0,1.2313,,0,72,72,128,1,pseudoword,0,REAL,FALSA
,,,,,,,,,62fcd9d412c2f366e0df8de0,001,2024-06-07_07h51.06.588,empathy_intonation_perc,2024.1.4,MacIntel,59.88023952,,,,,,,,,,,,,,98,erede,,,,,,550.1199,562.6537,1,0,11.9939,,0,73,73,97,1,pseudoword,0,REAL,FALSA
,,,,,,,,,62fcd9d412c2f366e0df8de0,001,2024-06-07_07h51.06.588,empathy_intonation_perc,2024.1.4,MacIntel,59.88023952,,,,,,,,,,,,,,132,nocó,,,,,,562.6648,575.6358,1,0,12.4451,,0,74,74,131,1,pseudoword,0,REAL,FALSA
,,,,,,,,,62fcd9d412c2f366e0df8de0,001,2024-06-07_07h51.06.588,empathy_intonation_perc,2024.1.4,MacIntel,59.88023952,,,,,,,,,,,,,,19,trauma,,,,,,575.6362,577.5192,0,1,1.3484,,0,75,75,18,1,three_way_cognate,1,REAL,FALSA
,,,,,,,,,62fcd9d412c2f366e0df8de0,001,2024-06-07_07h51.06.588,empathy_intonation_perc,2024.1.4,MacIntel,59.88023952,,,,,,,,,,,,,,93,tapa,,,,,,577.5195,579.1867,1,0,1.1457,,0,76,76,92,1,non_cognate,1,REAL,FALSA
,,,,,,,,,62fcd9d412c2f366e0df8de0,001,2024-06-07_07h51.06.588,empathy_intonation_perc,2024.1.4,MacIntel,59.88023952,,,,,,,,,,,,,,125,ceme,,,,,,579.187,593.9205,0,1,14.1972,,0,77,77,124,1,pseudoword,0,REAL,FALSA
,,,,,,,,,62fcd9d412c2f366e0df8de0,001,2024-06-07_07h51.06.588,empathy_intonation_perc,2024.1.4,MacIntel,59.88023952,,,,,,,,,,,,,,87,muleta,,,,,,593.9294,595.9372,1,0,1.4778,,0,78,78,86,1,non_cognate,1,REAL,FALSA
,,,,,,,,,62fcd9d412c2f366e0df8de0,001,2024-06-07_07h51.06.588,empathy_intonation_perc,2024.1.4,MacIntel,59.88023952,,,,,,,,,,,,,,33,collar,,,,,,595.9375,597.7039,0,1,1.2287,,0,79,79,32,1,two_way_cognate,1,REAL,FALSA
,,,,,,,,,62fcd9d412c2f366e0df8de0,001,2024-06-07_07h51.06.588,empathy_intonation_perc,2024.1.4,MacIntel,59.88023952,,,,,,,,,,,,,,5,horror,,,,,,597.7042,613.8533,1,0,15.6117,,0,80,80,4,1,three_way_cognate,1,REAL,FALSA
,,,,,,,,,62fcd9d412c2f366e0df8de0,001,2024-06-07_07h51.06.588,empathy_intonation_perc,2024.1.4,MacIntel,59.88023952,,,,,,,,,,,,,,122,gravés,,,,,,613.862,632.8373,1,0,18.4585,,0,81,81,121,1,pseudoword,0,REAL,FALSA
,,,,,,,,,62fcd9d412c2f366e0df8de0,001,2024-06-07_07h51.06.588,empathy_intonation_perc,2024.1.4,MacIntel,59.88023952,,,,,,,,,,,,,,108,viarle,,,,,,632.8475,635.6545,0,1,2.2809,,0,82,82,107,1,pseudoword,0,REAL,FALSA
,,,,,,,,,62fcd9d412c2f366e0df8de0,001,2024-06-07_07h51.06.588,empathy_intonation_perc,2024.1.4,MacIntel,59.88023952,,,,,,,,,,,,,,102,coyo,,,,,,635.6549,649.4048,1,0,13.223,,0,83,83,101,1,pseudoword,0,REAL,FALSA
,,,,,,,,,62fcd9d412c2f366e0df8de0,001,2024-06-07_07h51.06.588,empathy_intonation_perc,2024.1.4,MacIntel,59.88023952,,,,,,,,,,,,,,94,forro,,,,,,649.416,660.9551,1,0,11.0171,,0,84,84,93,1,non_cognate,1,REAL,FALSA
,,,,,,,,,62fcd9d412c2f366e0df8de0,001,2024-06-07_07h51.06.588,empathy_intonation_perc,2024.1.4,MacIntel,59.88023952,,,,,,,,,,,,,,21,mango,,,,,,660.9663,696.8892,1,0,35.3967,,0,85,85,20,1,three_way_cognate,1,REAL,FALSA
,,,,,,,,,62fcd9d412c2f366e0df8de0,001,2024-06-07_07h51.06.588,empathy_intonation_perc,2024.1.4,MacIntel,59.88023952,,,,,,,,,,,,,,24,retina,,,,,,696.901,699.0724,1,0,1.6428,,0,86,86,23,1,three_way_cognate,1,REAL,FALSA
,,,,,,,,,62fcd9d412c2f366e0df8de0,001,2024-06-07_07h51.06.588,empathy_intonation_perc,2024.1.4,MacIntel,59.88023952,,,,,,,,,,,,,,119,esís,,,,,,699.0728,700.4224,1,0,0.8106,,0,87,87,118,1,pseudoword,0,REAL,FALSA
,,,,,,,,,62fcd9d412c2f366e0df8de0,001,2024-06-07_07h51.06.588,empathy_intonation_perc,2024.1.4,MacIntel,59.88023952,,,,,,,,,,,,,,92,flecha,,,,,,700.4227,701.8216,1,0,0.8601,,0,88,88,91,1,non_cognate,1,REAL,FALSA
,,,,,,,,,62fcd9d412c2f366e0df8de0,001,2024-06-07_07h51.06.588,empathy_intonation_perc,2024.1.4,MacIntel,59.88023952,,,,,,,,,,,,,,2,disco,,,,,,701.8219,704.0059,1,0,1.6564,,0,89,89,1,1,three_way_cognate,1,REAL,FALSA
,,,,,,,,,62fcd9d412c2f366e0df8de0,001,2024-06-07_07h51.06.588,empathy_intonation_perc,2024.1.4,MacIntel,59.88023952,,,,,,,,,,,,,,1,tumor,,,,,,704.0062,705.7723,0,1,1.2226,,0,90,90,0,1,three_way_cognate,1,REAL,FALSA
,,,,,,,,,62fcd9d412c2f366e0df8de0,001,2024-06-07_07h51.06.588,empathy_intonation_perc,2024.1.4,MacIntel,59.88023952,,,,,,,,,,,,,,100,medón,,,,,,705.7727,730.5564,1,0,24.2542,,0,91,91,99,1,pseudoword,0,REAL,FALSA
,,,,,,,,,62fcd9d412c2f366e0df8de0,001,2024-06-07_07h51.06.588,empathy_intonation_perc,2024.1.4,MacIntel,59.88023952,,,,,,,,,,,,,,109,hágino,,,,,,730.5662,735.1397,1,0,4.051,,0,92,92,108,1,pseudoword,0,REAL,FALSA
,,,,,,,,,62fcd9d412c2f366e0df8de0,001,2024-06-07_07h51.06.588,empathy_intonation_perc,2024.1.4,MacIntel,59.88023952,,,,,,,,,,,,,,89,muñeca,,,,,,735.14,737.1899,1,0,1.5163,,0,93,93,88,1,non_cognate,1,REAL,FALSA
,,,,,,,,,62fcd9d412c2f366e0df8de0,001,2024-06-07_07h51.06.588,empathy_intonation_perc,2024.1.4,MacIntel,59.88023952,,,,,,,,,,,,,,74,ala,,,,,,737.1902,751.8067,0,1,14.0788,,0,94,94,73,1,non_cognate,1,REAL,FALSA
,,,,,,,,,62fcd9d412c2f366e0df8de0,001,2024-06-07_07h51.06.588,empathy_intonation_perc,2024.1.4,MacIntel,59.88023952,,,,,,,,,,,,,,72,rostro,,,,,,751.816,754.4569,1,0,2.112,,0,95,95,71,1,non_cognate,1,REAL,FALSA
,,,,,,,,,62fcd9d412c2f366e0df8de0,001,2024-06-07_07h51.06.588,empathy_intonation_perc,2024.1.4,MacIntel,59.88023952,,,,,,,,,,,,,,48,pelvis,,,,,,754.4573,756.2392,0,1,1.2408,,0,96,96,47,1,two_way_cognate,1,REAL,FALSA
,,,,,,,,,62fcd9d412c2f366e0df8de0,001,2024-06-07_07h51.06.588,empathy_intonation_perc,2024.1.4,MacIntel,59.88023952,,,,,,,,,,,,,,50,sierra,,,,,,756.2396,758.5902,1,0,1.8289,,0,97,97,49,1,non_cognate,1,REAL,FALSA
,,,,,,,,,62fcd9d412c2f366e0df8de0,001,2024-06-07_07h51.06.588,empathy_intonation_perc,2024.1.4,MacIntel,59.88023952,,,,,,,,,,,,,,139,furbos,,,,,,758.5906,772.1738,0,1,13.0429,,0,98,98,138,1,pseudoword,0,REAL,FALSA
,,,,,,,,,62fcd9d412c2f366e0df8de0,001,2024-06-07_07h51.06.588,empathy_intonation_perc,2024.1.4,MacIntel,59.88023952,,,,,,,,,,,,,,128,pelí,,,,,,772.1855,774.5562,1,0,1.8456,,0,99,99,127,1,pseudoword,0,REAL,FALSA
,,,,,,,,,62fcd9d412c2f366e0df8de0,001,2024-06-07_07h51.06.588,empathy_intonation_perc,2024.1.4,MacIntel,59.88023952,,,,,,,,,,,,,,130,dubo,,,,,,774.5566,776.4406,0,1,1.3578,,0,100,100,129,1,pseudoword,0,REAL,FALSA
,,,,,,,,,62fcd9d412c2f366e0df8de0,001,2024-06-07_07h51.06.588,empathy_intonation_perc,2024.1.4,MacIntel,59.88023952,,,,,,,,,,,,,,79,suelo,,,,,,776.4408,778.8397,1,0,1.8627,,0,101,101,78,1,non_cognate,1,REAL,FALSA
,,,,,,,,,62fcd9d412c2f366e0df8de0,001,2024-06-07_07h51.06.588,empathy_intonation_perc,2024.1.4,MacIntel,59.88023952,,,,,,,,,,,,,,113,difrás,,,,,,778.84,794.6415,1,0,15.2775,,0,102,102,112,1,pseudoword,0,REAL,FALSA
,,,,,,,,,62fcd9d412c2f366e0df8de0,001,2024-06-07_07h51.06.588,empathy_intonation_perc,2024.1.4,MacIntel,59.88023952,,,,,,,,,,,,,,75,patada,,,,,,794.6551,796.4409,1,0,1.2668,,0,103,103,74,1,non_cognate,1,REAL,FALSA
,,,,,,,,,62fcd9d412c2f366e0df8de0,001,2024-06-07_07h51.06.588,empathy_intonation_perc,2024.1.4,MacIntel,59.88023952,,,,,,,,,,,,,,45,total,,,,,,796.4413,798.691,1,0,1.7143,,0,104,104,44,1,two_way_cognate,1,REAL,FALSA
,,,,,,,,,62fcd9d412c2f366e0df8de0,001,2024-06-07_07h51.06.588,empathy_intonation_perc,2024.1.4,MacIntel,59.88023952,,,,,,,,,,,,,,95,listo,,,,,,798.7011,800.1911,1,0,0.9609,,0,105,105,94,1,non_cognate,1,REAL,FALSA
,,,,,,,,,62fcd9d412c2f366e0df8de0,001,2024-06-07_07h51.06.588,empathy_intonation_perc,2024.1.4,MacIntel,59.88023952,,,,,,,,,,,,,,140,vapen,,,,,,800.1914,801.9402,0,1,1.2158,,0,106,106,139,1,pseudoword,0,REAL,FALSA
,,,,,,,,,62fcd9d412c2f366e0df8de0,001,2024-06-07_07h51.06.588,empathy_intonation_perc,2024.1.4,MacIntel,59.88023952,,,,,,,,,,,,,,86,cuenco,,,,,,801.9405,803.7245,1,0,1.2603,,0,107,107,85,1,non_cognate,1,REAL,FALSA
,,,,,,,,,62fcd9d412c2f366e0df8de0,001,2024-06-07_07h51.06.588,empathy_intonation_perc,2024.1.4,MacIntel,59.88023952,,,,,,,,,,,,,,71,torta,,,,,,803.7248,805.2079,1,0,0.946,,0,108,108,70,1,non_cognate,1,REAL,FALSA
,,,,,,,,,62fcd9d412c2f366e0df8de0,001,2024-06-07_07h51.06.588,empathy_intonation_perc,2024.1.4,MacIntel,59.88023952,,,,,,,,,,,,,,27,piano,,,,,,805.2083,817.358,1,0,11.6138,,0,109,109,26,1,two_way_cognate,1,REAL,FALSA
,,,,,,,,,62fcd9d412c2f366e0df8de0,001,2024-06-07_07h51.06.588,empathy_intonation_perc,2024.1.4,MacIntel,59.88023952,,,,,,,,,,,,,,34,actor,,,,,,817.368,834.3249,1,0,16.4302,,0,110,110,33,1,two_way_cognate,1,REAL,FALSA
,,,,,,,,,62fcd9d412c2f366e0df8de0,001,2024-06-07_07h51.06.588,empathy_intonation_perc,2024.1.4,MacIntel,59.88023952,,,,,,,,,,,,,,54,tapón,,,,,,834.3359,851.2587,1,0,16.3957,,0,111,111,53,1,non_cognate,1,REAL,FALSA
,,,,,,,,,62fcd9d412c2f366e0df8de0,001,2024-06-07_07h51.06.588,empathy_intonation_perc,2024.1.4,MacIntel,59.88023952,,,,,,,,,,,,,,46,mortal,,,,,,851.2724,853.3254,0,1,1.53,,0,112,112,45,1,two_way_cognate,1,REAL,FALSA
,,,,,,,,,62fcd9d412c2f366e0df8de0,001,2024-06-07_07h51.06.588,empathy_intonation_perc,2024.1.4,MacIntel,59.88023952,,,,,,,,,,,,,,35,aurora,,,,,,853.3257,864.0589,1,0,10.2082,,0,113,113,34,1,two_way_cognate,1,REAL,FALSA
,,,,,,,,,62fcd9d412c2f366e0df8de0,001,2024-06-07_07h51.06.588,empathy_intonation_perc,2024.1.4,MacIntel,59.88023952,,,,,,,,,,,,,,144,piria,,,,,,864.0689,877.0754,1,0,12.4792,,0,114,114,143,1,pseudoword,0,REAL,FALSA
,,,,,,,,,62fcd9d412c2f366e0df8de0,001,2024-06-07_07h51.06.588,empathy_intonation_perc,2024.1.4,MacIntel,59.88023952,,,,,,,,,,,,,,131,fuar,,,,,,877.0855,887.4588,0,1,9.8454,,0,115,115,130,1,pseudoword,0,REAL,FALSA
,,,,,,,,,62fcd9d412c2f366e0df8de0,001,2024-06-07_07h51.06.588,empathy_intonation_perc,2024.1.4,MacIntel,59.88023952,,,,,,,,,,,,,,30,fiscal,,,,,,887.471,895.492,1,0,7.4977,,0,116,116,29,1,two_way_cognate,1,REAL,FALSA
,,,,,,,,,62fcd9d412c2f366e0df8de0,001,2024-06-07_07h51.06.588,empathy_intonation_perc,2024.1.4,MacIntel,59.88023952,,,,,,,,,,,,,,11,dogma,,,,,,895.5023,897.7088,0,1,1.6786,,0,117,117,10,1,three_way_cognate,1,REAL,FALSA
,,,,,,,,,62fcd9d412c2f366e0df8de0,001,2024-06-07_07h51.06.588,empathy_intonation_perc,2024.1.4,MacIntel,59.88023952,,,,,,,,,,,,,,37,torso,,,,,,897.7091,906.1597,1,0,7.9404,,0,118,118,36,1,two_way_cognate,1,REAL,FALSA
,,,,,,,,,62fcd9d412c2f366e0df8de0,001,2024-06-07_07h51.06.588,empathy_intonation_perc,2024.1.4,MacIntel,59.88023952,,,,,,,,,,,,,,15,chat,,,,,,906.1706,908.4264,0,1,1.7284,,0,119,119,14,1,three_way_cognate,1,REAL,FALSA
,,,,,,,,,62fcd9d412c2f366e0df8de0,001,2024-06-07_07h51.06.588,empathy_intonation_perc,2024.1.4,MacIntel,59.88023952,,,,,,,,,,,,,,9,drama,,,,,,908.4268,917.2433,1,0,8.2798,,0,120,120,8,1,three_way_cognate,1,REAL,FALSA
,,,,,,,,,62fcd9d412c2f366e0df8de0,001,2024-06-07_07h51.06.588,empathy_intonation_perc,2024.1.4,MacIntel,59.88023952,,,,,,,,,,,,,,76,chocar,,,,,,917.253,925.6102,1,0,7.8287,,0,121,121,75,1,non_cognate,1,REAL,FALSA
,,,,,,,,,62fcd9d412c2f366e0df8de0,001,2024-06-07_07h51.06.588,empathy_intonation_perc,2024.1.4,MacIntel,59.88023952,,,,,,,,,,,,,,91,equipo,,,,,,925.6204,927.6925,1,0,1.5434,,0,122,122,90,1,non_cognate,1,REAL,FALSA
,,,,,,,,,62fcd9d412c2f366e0df8de0,001,2024-06-07_07h51.06.588,empathy_intonation_perc,2024.1.4,MacIntel,59.88023952,,,,,,,,,,,,,,62,pegar,,,,,,927.6929,935.6102,1,0,7.4077,,0,123,123,61,1,non_cognate,1,REAL,FALSA
,,,,,,,,,62fcd9d412c2f366e0df8de0,001,2024-06-07_07h51.06.588,empathy_intonation_perc,2024.1.4,MacIntel,59.88023952,,,,,,,,,,,,,,67,llamar,,,,,,935.6212,939.1105,0,1,2.9633,,0,124,124,66,1,non_cognate,1,REAL,FALSA
,,,,,,,,,62fcd9d412c2f366e0df8de0,001,2024-06-07_07h51.06.588,empathy_intonation_perc,2024.1.4,MacIntel,59.88023952,,,,,,,,,,,,,,40,pelvis,,,,,,939.1207,948.2441,1,0,8.6002,,0,125,125,39,1,two_way_cognate,1,REAL,FALSA
,,,,,,,,,62fcd9d412c2f366e0df8de0,001,2024-06-07_07h51.06.588,empathy_intonation_perc,2024.1.4,MacIntel,59.88023952,,,,,,,,,,,,,,41,pasta,,,,,,948.2559,956.7441,1,0,7.9619,,0,126,126,40,1,two_way_cognate,1,REAL,FALSA
,,,,,,,,,62fcd9d412c2f366e0df8de0,001,2024-06-07_07h51.06.588,empathy_intonation_perc,2024.1.4,MacIntel,59.88023952,,,,,,,,,,,,,,16,clan,,,,,,956.7541,958.5274,0,1,1.2458,,0,127,127,15,1,three_way_cognate,1,REAL,FALSA
,,,,,,,,,62fcd9d412c2f366e0df8de0,001,2024-06-07_07h51.06.588,empathy_intonation_perc,2024.1.4,MacIntel,59.88023952,,,,,,,,,,,,,,77,suave,,,,,,958.5278,960.4608,1,0,1.3971,,0,128,128,76,1,non_cognate,1,REAL,FALSA
,,,,,,,,,62fcd9d412c2f366e0df8de0,001,2024-06-07_07h51.06.588,empathy_intonation_perc,2024.1.4,MacIntel,59.88023952,,,,,,,,,,,,,,116,crene,,,,,,960.4612,968.1776,0,1,7.1793,,0,129,129,115,1,pseudoword,0,REAL,FALSA
,,,,,,,,,62fcd9d412c2f366e0df8de0,001,2024-06-07_07h51.06.588,empathy_intonation_perc,2024.1.4,MacIntel,59.88023952,,,,,,,,,,,,,,18,mafia,,,,,,968.1863,979.8944,1,0,11.181,,0,130,130,17,1,three_way_cognate,1,REAL,FALSA
,,,,,,,,,62fcd9d412c2f366e0df8de0,001,2024-06-07_07h51.06.588,empathy_intonation_perc,2024.1.4,MacIntel,59.88023952,,,,,,,,,,,,,,142,viseña,,,,,,979.9052,989.3949,1,0,8.9629,,0,131,131,141,1,pseudoword,0,REAL,FALSA
,,,,,,,,,62fcd9d412c2f366e0df8de0,001,2024-06-07_07h51.06.588,empathy_intonation_perc,2024.1.4,MacIntel,59.88023952,,,,,,,,,,,,,,103,babes,,,,,,989.4054,991.3114,0,1,1.3778,,0,132,132,102,1,pseudoword,0,REAL,FALSA
,,,,,,,,,62fcd9d412c2f366e0df8de0,001,2024-06-07_07h51.06.588,empathy_intonation_perc,2024.1.4,MacIntel,59.88023952,,,,,,,,,,,,,,3,flora,,,,,,991.3117,993.8614,1,0,2.0128,,0,133,133,2,1,three_way_cognate,1,REAL,FALSA
,,,,,,,,,62fcd9d412c2f366e0df8de0,001,2024-06-07_07h51.06.588,empathy_intonation_perc,2024.1.4,MacIntel,59.88023952,,,,,,,,,,,,,,97,hufón,,,,,,993.8721,1002.0448,0,1,7.6451,,0,134,134,96,1,pseudoword,0,REAL,FALSA
,,,,,,,,,62fcd9d412c2f366e0df8de0,001,2024-06-07_07h51.06.588,empathy_intonation_perc,2024.1.4,MacIntel,59.88023952,,,,,,,,,,,,,,61,aduana,,,,,,1002.0553,1012.0942,1,0,9.5139,,0,135,135,60,1,non_cognate,1,REAL,FALSA
,,,,,,,,,62fcd9d412c2f366e0df8de0,001,2024-06-07_07h51.06.588,empathy_intonation_perc,2024.1.4,MacIntel,59.88023952,,,,,,,,,,,,,,135,macayó,,,,,,1012.1042,1019.2116,1,0,6.575,,0,136,136,134,1,pseudoword,0,REAL,FALSA
,,,,,,,,,62fcd9d412c2f366e0df8de0,001,2024-06-07_07h51.06.588,empathy_intonation_perc,2024.1.4,MacIntel,59.88023952,,,,,,,,,,,,,,73,llevar,,,,,,1019.2216,1026.6954,1,0,6.944,,0,137,137,72,1,non_cognate,1,REAL,FALSA
,,,,,,,,,62fcd9d412c2f366e0df8de0,001,2024-06-07_07h51.06.588,empathy_intonation_perc,2024.1.4,MacIntel,59.88023952,,,,,,,,,,,,,,118,bará,,,,,,1026.7055,1034.9122,0,1,7.6788,,0,138,138,117,1,pseudoword,0,REAL,FALSA
,,,,,,,,,62fcd9d412c2f366e0df8de0,001,2024-06-07_07h51.06.588,empathy_intonation_perc,2024.1.4,MacIntel,59.88023952,,,,,,,,,,,,,,88,percha,,,,,,1034.9229,1042.0623,1,0,6.6117,,0,139,139,87,1,non_cognate,1,REAL,FALSA
,,,,,,,,,62fcd9d412c2f366e0df8de0,001,2024-06-07_07h51.06.588,empathy_intonation_perc,2024.1.4,MacIntel,59.88023952,,,,,,,,,,,,,,96,caro,,,,,,1042.071,1047.7454,1,0,5.1456,,0,140,140,95,1,non_cognate,1,REAL,FALSA
,,,,,,,,,62fcd9d412c2f366e0df8de0,001,2024-06-07_07h51.06.588,empathy_intonation_perc,2024.1.4,MacIntel,59.88023952,,,,,,,,,,,,,,110,vacapó,,,,,,1047.7558,1055.0451,0,1,6.7611,,0,141,141,109,1,pseudoword,0,REAL,FALSA
,,,,,,,,,62fcd9d412c2f366e0df8de0,001,2024-06-07_07h51.06.588,empathy_intonation_perc,2024.1.4,MacIntel,59.88023952,,,,,,,,,,,,,,25,vigor,,,,,,1055.0554,1061.946,1,0,6.3634,,0,142,142,24,1,two_way_cognate,1,REAL,FALSA
,,,,,,,,,62fcd9d412c2f366e0df8de0,001,2024-06-07_07h51.06.588,empathy_intonation_perc,2024.1.4,MacIntel,59.88023952,,,,,,,,,,,,,,105,curgué,,,,,,1061.9562,1070.5457,0,1,8.0555,,0,143,143,104,1,pseudoword,0,REAL,FALSA
