lextale_instructions.started,lextale_instructions.stopped,lextale_instructions_loop.thisRepN,lextale_instructions_loop.thisTrialN,lextale_instructions_loop.thisN,lextale_instructions_loop.thisIndex,lextale_instructions_loop.ran,instructions_text,continue_text,participant,session,date,expName,psychopyVersion,OS,frameRate,lextale_practice.started,lextale_practice.stopped,key_resp_lextale_practice.keys,key_resp_lextale_practice.corr,key_resp_lextale_practice.rt,key_resp_lextale_practice.duration,lextale_practice_feedback.started,lextale_practice_feedback.stopped,lextale_practice_trials.thisRepN,lextale_practice_trials.thisTrialN,lextale_practice_trials.thisN,lextale_practice_trials.thisIndex,lextale_practice_trials.ran,stim,word,correct_response,prac_button_real,prac_button_false,lextale_check.started,lextale_check.stopped,lextale_trial.started,lextale_trial.stopped,key_resp_lextale_trial.keys,key_resp_lextale_trial.corr,key_resp_lextale_trial.rt,key_resp_lextale_trial.duration,lextail_trials.thisRepN,lextail_trials.thisTrialN,lextail_trials.thisN,lextail_trials.thisIndex,lextail_trials.ran,type,correct_reponse,button_real,button_false
0.0047,4.0074,0,0,0,0,1,"Este es un test de vocabulario en español. 
  
  A continuación vas a ver 90 secuencias de letras que parecen 'españolas'.
  
  Solo algunas de ellas son palabras de verdad.",(presiona la barra espaciadora para continuar),63069f585b35a5ec752fcd30,001,2024-06-07_04h34.27.011,empathy_intonation_perc,2024.1.4,Win32,60.24096386,,,,,,,,,,,,,,,,,,,,,,,,,,,,,,,,,,,
4.0092,4.8546,0,1,1,1,1,"Por favor, señala las palabras que tú conoces (aquellas que estás convencido que son palabras españolas, incluso aunque no seas capaz de dar el significado preciso).",(presiona la barra espaciadora para continuar),63069f585b35a5ec752fcd30,001,2024-06-07_04h34.27.011,empathy_intonation_perc,2024.1.4,Win32,60.24096386,,,,,,,,,,,,,,,,,,,,,,,,,,,,,,,,,,,
4.8567,5.3879,0,2,2,2,1,Pero cuidado: los errores se penalizan. Por eso no tiene sentido tratar de incrementar tu puntuación marcando como reales palabras que nunca has visto.,(presiona la barra espaciadora para continuar),63069f585b35a5ec752fcd30,001,2024-06-07_04h34.27.011,empathy_intonation_perc,2024.1.4,Win32,60.24096386,,,,,,,,,,,,,,,,,,,,,,,,,,,,,,,,,,,
5.3887,6.6203,0,3,3,3,1,"Presiona la tecla 1 si piensas que es una palabra real y la tecla 
  0 si piensas que es una palabra falsa. 
  
  Vamos a practicar un poco...",(presiona la barra espaciadora para continuar),63069f585b35a5ec752fcd30,001,2024-06-07_04h34.27.011,empathy_intonation_perc,2024.1.4,Win32,60.24096386,,,,,,,,,,,,,,,,,,,,,,,,,,,,,,,,,,,
,,,,,,,,,63069f585b35a5ec752fcd30,001,2024-06-07_04h34.27.011,empathy_intonation_perc,2024.1.4,Win32,60.24096386,6.6308,8.3209,1,0,1.1685,,8.3211,9.3175,0,0,0,0,1,0,depiste,0,REAL,FALSA,,,,,,,,,,,,,,,,,
,,,,,,,,,63069f585b35a5ec752fcd30,001,2024-06-07_04h34.27.011,empathy_intonation_perc,2024.1.4,Win32,60.24096386,9.3195,10.8496,1,1,0.9961,,10.8496,11.8488,0,1,1,1,1,0,sí,1,REAL,FALSA,,,,,,,,,,,,,,,,,
,,,,,,,,,63069f585b35a5ec752fcd30,001,2024-06-07_04h34.27.011,empathy_intonation_perc,2024.1.4,Win32,60.24096386,11.8499,13.2311,0,1,0.8476,,13.2312,14.2325,0,2,2,2,1,0,coné,0,REAL,FALSA,,,,,,,,,,,,,,,,,
,,,,,,,,,63069f585b35a5ec752fcd30,001,2024-06-07_04h34.27.011,empathy_intonation_perc,2024.1.4,Win32,60.24096386,14.2332,15.4459,0,1,0.6732,,15.4459,16.4451,0,3,3,3,1,0,calpar,0,REAL,FALSA,,,,,,,,,,,,,,,,,
,,,,,,,,,63069f585b35a5ec752fcd30,001,2024-06-07_04h34.27.011,empathy_intonation_perc,2024.1.4,Win32,60.24096386,16.4459,17.6106,0,1,0.6293,,17.6107,18.6103,0,4,4,4,1,0,joten,0,REAL,FALSA,,,,,,,,,,,,,,,,,
,,,,,,,,,63069f585b35a5ec752fcd30,001,2024-06-07_04h34.27.011,empathy_intonation_perc,2024.1.4,Win32,60.24096386,18.6125,19.7263,1,1,0.5798,,19.7265,20.7252,0,5,5,5,1,0,sacapuntas,1,REAL,FALSA,,,,,,,,,,,,,,,,,
,,,,,,,,,63069f585b35a5ec752fcd30,001,2024-06-07_04h34.27.011,empathy_intonation_perc,2024.1.4,Win32,60.24096386,20.7265,21.8238,0,1,0.5631,,21.8238,22.8247,0,6,6,6,1,0,priba,0,REAL,FALSA,,,,,,,,,,,,,,,,,
,,,,,,,,,63069f585b35a5ec752fcd30,001,2024-06-07_04h34.27.011,empathy_intonation_perc,2024.1.4,Win32,60.24096386,22.8261,24.0057,0,1,0.6521,,24.0058,25.0049,0,7,7,7,1,0,pelasula,0,REAL,FALSA,,,,,,,,,,,,,,,,,
,,,,,,,,,63069f585b35a5ec752fcd30,001,2024-06-07_04h34.27.011,empathy_intonation_perc,2024.1.4,Win32,60.24096386,25.0065,26.3871,1,1,0.8454,,26.3871,27.386,0,8,8,8,1,0,bien,1,REAL,FALSA,,,,,,,,,,,,,,,,,
,,,,,,,,,63069f585b35a5ec752fcd30,001,2024-06-07_04h34.27.011,empathy_intonation_perc,2024.1.4,Win32,60.24096386,27.3977,28.769,1,1,0.8542,,28.7696,29.7682,0,9,9,9,1,0,casa,1,REAL,FALSA,,,,,,,,,,,,,,,,,
,,,,,,,,,63069f585b35a5ec752fcd30,001,2024-06-07_04h34.27.011,empathy_intonation_perc,2024.1.4,Win32,60.24096386,29.7697,31.0998,1,0,0.8004,,31.0998,32.0986,0,10,10,10,1,0,lejo,0,REAL,FALSA,,,,,,,,,,,,,,,,,
,,,,,,,,,63069f585b35a5ec752fcd30,001,2024-06-07_04h34.27.011,empathy_intonation_perc,2024.1.4,Win32,60.24096386,32.0994,33.4646,0,1,0.8291,,33.4646,34.4635,0,11,11,11,1,0,pretantas,0,REAL,FALSA,,,,,,,,,,,,,,,,,
,,,,,,,,,63069f585b35a5ec752fcd30,001,2024-06-07_04h34.27.011,empathy_intonation_perc,2024.1.4,Win32,60.24096386,,,,,,,,,,,,,,,,,,,34.4644,36.065,,,,,,,,,,,,,,,
,,,,,,,,,63069f585b35a5ec752fcd30,001,2024-06-07_04h34.27.011,empathy_intonation_perc,2024.1.4,Win32,60.24096386,,,,,,,,,,,,,,52,blando,,,,,,36.0903,37.7286,1,0,1.1162,,0,0,0,51,1,non_cognate,1,REAL,FALSA
,,,,,,,,,63069f585b35a5ec752fcd30,001,2024-06-07_04h34.27.011,empathy_intonation_perc,2024.1.4,Win32,60.24096386,,,,,,,,,,,,,,69,tiza,,,,,,37.7308,38.9937,0,1,0.7328,,0,1,1,68,1,non_cognate,1,REAL,FALSA
,,,,,,,,,63069f585b35a5ec752fcd30,001,2024-06-07_04h34.27.011,empathy_intonation_perc,2024.1.4,Win32,60.24096386,,,,,,,,,,,,,,66,aleta,,,,,,38.9948,40.2093,0,1,0.6745,,0,2,2,65,1,non_cognate,1,REAL,FALSA
,,,,,,,,,63069f585b35a5ec752fcd30,001,2024-06-07_04h34.27.011,empathy_intonation_perc,2024.1.4,Win32,60.24096386,,,,,,,,,,,,,,92,flecha,,,,,,40.2099,41.4913,0,1,0.7462,,0,3,3,91,1,non_cognate,1,REAL,FALSA
,,,,,,,,,63069f585b35a5ec752fcd30,001,2024-06-07_04h34.27.011,empathy_intonation_perc,2024.1.4,Win32,60.24096386,,,,,,,,,,,,,,54,tapón,,,,,,41.4922,42.8567,1,0,0.8374,,0,4,4,53,1,non_cognate,1,REAL,FALSA
,,,,,,,,,63069f585b35a5ec752fcd30,001,2024-06-07_04h34.27.011,empathy_intonation_perc,2024.1.4,Win32,60.24096386,,,,,,,,,,,,,,10,golf,,,,,,42.8576,44.2727,0,1,0.8823,,0,5,5,9,1,three_way_cognate,1,REAL,FALSA
,,,,,,,,,63069f585b35a5ec752fcd30,001,2024-06-07_04h34.27.011,empathy_intonation_perc,2024.1.4,Win32,60.24096386,,,,,,,,,,,,,,63,hilo,,,,,,44.2746,45.8215,1,0,1.0136,,0,6,6,62,1,non_cognate,1,REAL,FALSA
,,,,,,,,,63069f585b35a5ec752fcd30,001,2024-06-07_04h34.27.011,empathy_intonation_perc,2024.1.4,Win32,60.24096386,,,,,,,,,,,,,,49,teñir,,,,,,45.8231,47.3202,0,1,0.9652,,0,7,7,48,1,non_cognate,1,REAL,FALSA
,,,,,,,,,63069f585b35a5ec752fcd30,001,2024-06-07_04h34.27.011,empathy_intonation_perc,2024.1.4,Win32,60.24096386,,,,,,,,,,,,,,68,puñal,,,,,,47.3223,49.2183,1,0,1.366,,0,8,8,67,1,non_cognate,1,REAL,FALSA
,,,,,,,,,63069f585b35a5ec752fcd30,001,2024-06-07_04h34.27.011,empathy_intonation_perc,2024.1.4,Win32,60.24096386,,,,,,,,,,,,,,96,caro,,,,,,49.2197,50.3341,1,0,0.577,,0,9,9,95,1,non_cognate,1,REAL,FALSA
,,,,,,,,,63069f585b35a5ec752fcd30,001,2024-06-07_04h34.27.011,empathy_intonation_perc,2024.1.4,Win32,60.24096386,,,,,,,,,,,,,,143,pledú,,,,,,50.3359,51.5174,0,1,0.638,,0,10,10,142,1,pseudoword,0,REAL,FALSA
,,,,,,,,,63069f585b35a5ec752fcd30,001,2024-06-07_04h34.27.011,empathy_intonation_perc,2024.1.4,Win32,60.24096386,,,,,,,,,,,,,,129,suchas,,,,,,51.5194,52.948,0,1,0.8944,,0,11,11,128,1,pseudoword,0,REAL,FALSA
,,,,,,,,,63069f585b35a5ec752fcd30,001,2024-06-07_04h34.27.011,empathy_intonation_perc,2024.1.4,Win32,60.24096386,,,,,,,,,,,,,,109,hágino,,,,,,52.9487,54.1476,0,1,0.6712,,0,12,12,108,1,pseudoword,0,REAL,FALSA
,,,,,,,,,63069f585b35a5ec752fcd30,001,2024-06-07_04h34.27.011,empathy_intonation_perc,2024.1.4,Win32,60.24096386,,,,,,,,,,,,,,29,clamor,,,,,,54.1486,55.563,1,0,0.894,,0,13,13,28,1,two_way_cognate,1,REAL,FALSA
,,,,,,,,,63069f585b35a5ec752fcd30,001,2024-06-07_04h34.27.011,empathy_intonation_perc,2024.1.4,Win32,60.24096386,,,,,,,,,,,,,,33,collar,,,,,,55.5639,57.0446,1,0,0.952,,0,14,14,32,1,two_way_cognate,1,REAL,FALSA
,,,,,,,,,63069f585b35a5ec752fcd30,001,2024-06-07_04h34.27.011,empathy_intonation_perc,2024.1.4,Win32,60.24096386,,,,,,,,,,,,,,121,rombar,,,,,,57.0452,58.2773,0,1,0.6941,,0,15,15,120,1,pseudoword,0,REAL,FALSA
,,,,,,,,,63069f585b35a5ec752fcd30,001,2024-06-07_04h34.27.011,empathy_intonation_perc,2024.1.4,Win32,60.24096386,,,,,,,,,,,,,,132,nocó,,,,,,58.2783,59.4266,1,0,0.6138,,0,16,16,131,1,pseudoword,0,REAL,FALSA
,,,,,,,,,63069f585b35a5ec752fcd30,001,2024-06-07_04h34.27.011,empathy_intonation_perc,2024.1.4,Win32,60.24096386,,,,,,,,,,,,,,1,tumor,,,,,,59.4275,60.8754,0,1,0.917,,0,17,17,0,1,three_way_cognate,1,REAL,FALSA
,,,,,,,,,63069f585b35a5ec752fcd30,001,2024-06-07_04h34.27.011,empathy_intonation_perc,2024.1.4,Win32,60.24096386,,,,,,,,,,,,,,82,brillo,,,,,,60.8761,62.2243,1,0,0.8168,,0,18,18,81,1,non_cognate,1,REAL,FALSA
,,,,,,,,,63069f585b35a5ec752fcd30,001,2024-06-07_04h34.27.011,empathy_intonation_perc,2024.1.4,Win32,60.24096386,,,,,,,,,,,,,,85,enorme,,,,,,62.226,63.424,1,0,0.6693,,0,19,19,84,1,non_cognate,1,REAL,FALSA
,,,,,,,,,63069f585b35a5ec752fcd30,001,2024-06-07_04h34.27.011,empathy_intonation_perc,2024.1.4,Win32,60.24096386,,,,,,,,,,,,,,4,extra,,,,,,63.4253,64.6745,0,1,0.7162,,0,20,20,3,1,three_way_cognate,1,REAL,FALSA
,,,,,,,,,63069f585b35a5ec752fcd30,001,2024-06-07_04h34.27.011,empathy_intonation_perc,2024.1.4,Win32,60.24096386,,,,,,,,,,,,,,21,mango,,,,,,64.6758,65.8547,0,1,0.6478,,0,21,21,20,1,three_way_cognate,1,REAL,FALSA
,,,,,,,,,63069f585b35a5ec752fcd30,001,2024-06-07_04h34.27.011,empathy_intonation_perc,2024.1.4,Win32,60.24096386,,,,,,,,,,,,,,34,actor,,,,,,65.8568,66.9203,0,1,0.5294,,0,22,22,33,1,two_way_cognate,1,REAL,FALSA
,,,,,,,,,63069f585b35a5ec752fcd30,001,2024-06-07_04h34.27.011,empathy_intonation_perc,2024.1.4,Win32,60.24096386,,,,,,,,,,,,,,43,honor,,,,,,66.9208,68.2689,0,1,0.819,,0,23,23,42,1,two_way_cognate,1,REAL,FALSA
,,,,,,,,,63069f585b35a5ec752fcd30,001,2024-06-07_04h34.27.011,empathy_intonation_perc,2024.1.4,Win32,60.24096386,,,,,,,,,,,,,,106,baurá,,,,,,68.2694,69.4849,1,0,0.676,,0,24,24,105,1,pseudoword,0,REAL,FALSA
,,,,,,,,,63069f585b35a5ec752fcd30,001,2024-06-07_04h34.27.011,empathy_intonation_perc,2024.1.4,Win32,60.24096386,,,,,,,,,,,,,,20,hotel,,,,,,69.4871,70.6508,0,1,0.6296,,0,25,25,19,1,three_way_cognate,1,REAL,FALSA
,,,,,,,,,63069f585b35a5ec752fcd30,001,2024-06-07_04h34.27.011,empathy_intonation_perc,2024.1.4,Win32,60.24096386,,,,,,,,,,,,,,78,rendir,,,,,,70.6525,72.0491,0,1,0.8704,,0,26,26,77,1,non_cognate,1,REAL,FALSA
,,,,,,,,,63069f585b35a5ec752fcd30,001,2024-06-07_04h34.27.011,empathy_intonation_perc,2024.1.4,Win32,60.24096386,,,,,,,,,,,,,,53,punta,,,,,,72.0496,73.5655,0,1,0.98,,0,27,27,52,1,non_cognate,1,REAL,FALSA
,,,,,,,,,63069f585b35a5ec752fcd30,001,2024-06-07_04h34.27.011,empathy_intonation_perc,2024.1.4,Win32,60.24096386,,,,,,,,,,,,,,79,suelo,,,,,,73.5674,74.7812,1,0,0.683,,0,28,28,78,1,non_cognate,1,REAL,FALSA
,,,,,,,,,63069f585b35a5ec752fcd30,001,2024-06-07_04h34.27.011,empathy_intonation_perc,2024.1.4,Win32,60.24096386,,,,,,,,,,,,,,2,disco,,,,,,74.7827,76.1126,0,1,0.7907,,0,29,29,1,1,three_way_cognate,1,REAL,FALSA
,,,,,,,,,63069f585b35a5ec752fcd30,001,2024-06-07_04h34.27.011,empathy_intonation_perc,2024.1.4,Win32,60.24096386,,,,,,,,,,,,,,16,clan,,,,,,76.1136,78.0279,0,1,1.3813,,0,30,30,15,1,three_way_cognate,1,REAL,FALSA
,,,,,,,,,63069f585b35a5ec752fcd30,001,2024-06-07_04h34.27.011,empathy_intonation_perc,2024.1.4,Win32,60.24096386,,,,,,,,,,,,,,116,crene,,,,,,78.029,79.3442,1,0,0.7861,,0,31,31,115,1,pseudoword,0,REAL,FALSA
,,,,,,,,,63069f585b35a5ec752fcd30,001,2024-06-07_04h34.27.011,empathy_intonation_perc,2024.1.4,Win32,60.24096386,,,,,,,,,,,,,,48,pelvis,,,,,,79.3466,80.6264,0,1,0.7497,,0,32,32,47,1,two_way_cognate,1,REAL,FALSA
,,,,,,,,,63069f585b35a5ec752fcd30,001,2024-06-07_04h34.27.011,empathy_intonation_perc,2024.1.4,Win32,60.24096386,,,,,,,,,,,,,,84,aviso,,,,,,80.6276,81.8266,0,1,0.6635,,0,33,33,83,1,non_cognate,1,REAL,FALSA
,,,,,,,,,63069f585b35a5ec752fcd30,001,2024-06-07_04h34.27.011,empathy_intonation_perc,2024.1.4,Win32,60.24096386,,,,,,,,,,,,,,23,porno,,,,,,81.8273,82.9901,0,1,0.6343,,0,34,34,22,1,three_way_cognate,1,REAL,FALSA
,,,,,,,,,63069f585b35a5ec752fcd30,001,2024-06-07_04h34.27.011,empathy_intonation_perc,2024.1.4,Win32,60.24096386,,,,,,,,,,,,,,117,apunan,,,,,,82.9909,84.8387,1,0,1.3322,,0,35,35,116,1,pseudoword,0,REAL,FALSA
,,,,,,,,,63069f585b35a5ec752fcd30,001,2024-06-07_04h34.27.011,empathy_intonation_perc,2024.1.4,Win32,60.24096386,,,,,,,,,,,,,,37,torso,,,,,,84.8395,86.5206,1,0,1.1532,,0,36,36,36,1,two_way_cognate,1,REAL,FALSA
,,,,,,,,,63069f585b35a5ec752fcd30,001,2024-06-07_04h34.27.011,empathy_intonation_perc,2024.1.4,Win32,60.24096386,,,,,,,,,,,,,,128,pelí,,,,,,86.5212,87.8363,0,1,0.7851,,0,37,37,127,1,pseudoword,0,REAL,FALSA
,,,,,,,,,63069f585b35a5ec752fcd30,001,2024-06-07_04h34.27.011,empathy_intonation_perc,2024.1.4,Win32,60.24096386,,,,,,,,,,,,,,44,editor,,,,,,87.8379,90.5526,0,1,2.1902,,0,38,38,43,1,two_way_cognate,1,REAL,FALSA
,,,,,,,,,63069f585b35a5ec752fcd30,001,2024-06-07_04h34.27.011,empathy_intonation_perc,2024.1.4,Win32,60.24096386,,,,,,,,,,,,,,135,macayó,,,,,,90.5547,91.7828,1,0,0.6949,,0,39,39,134,1,pseudoword,0,REAL,FALSA
,,,,,,,,,63069f585b35a5ec752fcd30,001,2024-06-07_04h34.27.011,empathy_intonation_perc,2024.1.4,Win32,60.24096386,,,,,,,,,,,,,,41,pasta,,,,,,91.7833,92.8987,0,1,0.5801,,0,40,40,40,1,two_way_cognate,1,REAL,FALSA
,,,,,,,,,63069f585b35a5ec752fcd30,001,2024-06-07_04h34.27.011,empathy_intonation_perc,2024.1.4,Win32,60.24096386,,,,,,,,,,,,,,103,babes,,,,,,92.8994,96.0137,0,1,2.5812,,0,41,41,102,1,pseudoword,0,REAL,FALSA
,,,,,,,,,63069f585b35a5ec752fcd30,001,2024-06-07_04h34.27.011,empathy_intonation_perc,2024.1.4,Win32,60.24096386,,,,,,,,,,,,,,38,halo,,,,,,96.049,97.1956,1,0,0.6125,,0,42,42,37,1,two_way_cognate,1,REAL,FALSA
,,,,,,,,,63069f585b35a5ec752fcd30,001,2024-06-07_04h34.27.011,empathy_intonation_perc,2024.1.4,Win32,60.24096386,,,,,,,,,,,,,,118,bará,,,,,,97.1978,98.7606,0,1,1.0287,,0,43,43,117,1,pseudoword,0,REAL,FALSA
,,,,,,,,,63069f585b35a5ec752fcd30,001,2024-06-07_04h34.27.011,empathy_intonation_perc,2024.1.4,Win32,60.24096386,,,,,,,,,,,,,,40,pelvis,,,,,,98.7616,101.8912,0,1,2.5991,,0,44,44,39,1,two_way_cognate,1,REAL,FALSA
,,,,,,,,,63069f585b35a5ec752fcd30,001,2024-06-07_04h34.27.011,empathy_intonation_perc,2024.1.4,Win32,60.24096386,,,,,,,,,,,,,,13,aura,,,,,,101.903,102.9237,1,0,0.501,,0,45,45,12,1,three_way_cognate,1,REAL,FALSA
,,,,,,,,,63069f585b35a5ec752fcd30,001,2024-06-07_04h34.27.011,empathy_intonation_perc,2024.1.4,Win32,60.24096386,,,,,,,,,,,,,,65,guerra,,,,,,102.9243,104.2726,1,0,0.8161,,0,46,46,64,1,non_cognate,1,REAL,FALSA
,,,,,,,,,63069f585b35a5ec752fcd30,001,2024-06-07_04h34.27.011,empathy_intonation_perc,2024.1.4,Win32,60.24096386,,,,,,,,,,,,,,64,rizado,,,,,,104.2731,105.6884,1,0,0.8859,,0,47,47,63,1,non_cognate,1,REAL,FALSA
,,,,,,,,,63069f585b35a5ec752fcd30,001,2024-06-07_04h34.27.011,empathy_intonation_perc,2024.1.4,Win32,60.24096386,,,,,,,,,,,,,,142,viseña,,,,,,105.6895,107.1536,1,0,0.9287,,0,48,48,141,1,pseudoword,0,REAL,FALSA
,,,,,,,,,63069f585b35a5ec752fcd30,001,2024-06-07_04h34.27.011,empathy_intonation_perc,2024.1.4,Win32,60.24096386,,,,,,,,,,,,,,88,percha,,,,,,107.1541,108.5363,0,1,0.8532,,0,49,49,87,1,non_cognate,1,REAL,FALSA
,,,,,,,,,63069f585b35a5ec752fcd30,001,2024-06-07_04h34.27.011,empathy_intonation_perc,2024.1.4,Win32,60.24096386,,,,,,,,,,,,,,76,chocar,,,,,,108.5375,109.7849,1,0,0.7144,,0,50,50,75,1,non_cognate,1,REAL,FALSA
,,,,,,,,,63069f585b35a5ec752fcd30,001,2024-06-07_04h34.27.011,empathy_intonation_perc,2024.1.4,Win32,60.24096386,,,,,,,,,,,,,,104,vitra,,,,,,109.7857,111.1019,0,1,0.7783,,0,51,51,103,1,pseudoword,0,REAL,FALSA
,,,,,,,,,63069f585b35a5ec752fcd30,001,2024-06-07_04h34.27.011,empathy_intonation_perc,2024.1.4,Win32,60.24096386,,,,,,,,,,,,,,25,vigor,,,,,,111.1041,112.2327,0,1,0.6015,,0,52,52,24,1,two_way_cognate,1,REAL,FALSA
,,,,,,,,,63069f585b35a5ec752fcd30,001,2024-06-07_04h34.27.011,empathy_intonation_perc,2024.1.4,Win32,60.24096386,,,,,,,,,,,,,,22,plural,,,,,,112.2332,113.2655,0,1,0.4984,,0,53,53,21,1,three_way_cognate,1,REAL,FALSA
,,,,,,,,,63069f585b35a5ec752fcd30,001,2024-06-07_04h34.27.011,empathy_intonation_perc,2024.1.4,Win32,60.24096386,,,,,,,,,,,,,,26,enigma,,,,,,113.2675,114.4313,0,1,0.6314,,0,54,54,25,1,two_way_cognate,1,REAL,FALSA
,,,,,,,,,63069f585b35a5ec752fcd30,001,2024-06-07_04h34.27.011,empathy_intonation_perc,2024.1.4,Win32,60.24096386,,,,,,,,,,,,,,131,fuar,,,,,,114.4323,115.7644,1,0,0.8032,,0,55,55,130,1,pseudoword,0,REAL,FALSA
,,,,,,,,,63069f585b35a5ec752fcd30,001,2024-06-07_04h34.27.011,empathy_intonation_perc,2024.1.4,Win32,60.24096386,,,,,,,,,,,,,,101,fertes,,,,,,115.7669,117.6117,1,0,1.3142,,0,56,56,100,1,pseudoword,0,REAL,FALSA
,,,,,,,,,63069f585b35a5ec752fcd30,001,2024-06-07_04h34.27.011,empathy_intonation_perc,2024.1.4,Win32,60.24096386,,,,,,,,,,,,,,112,cituló,,,,,,117.6127,118.6942,1,0,0.5502,,0,57,57,111,1,pseudoword,0,REAL,FALSA
,,,,,,,,,63069f585b35a5ec752fcd30,001,2024-06-07_04h34.27.011,empathy_intonation_perc,2024.1.4,Win32,60.24096386,,,,,,,,,,,,,,28,ardor,,,,,,118.6947,120.5428,0,1,1.314,,0,58,58,27,1,two_way_cognate,1,REAL,FALSA
,,,,,,,,,63069f585b35a5ec752fcd30,001,2024-06-07_04h34.27.011,empathy_intonation_perc,2024.1.4,Win32,60.24096386,,,,,,,,,,,,,,27,piano,,,,,,120.5436,121.9414,0,1,0.8587,,0,59,59,26,1,two_way_cognate,1,REAL,FALSA
,,,,,,,,,63069f585b35a5ec752fcd30,001,2024-06-07_04h34.27.011,empathy_intonation_perc,2024.1.4,Win32,60.24096386,,,,,,,,,,,,,,5,horror,,,,,,121.9417,123.5904,0,1,1.1116,,0,60,60,4,1,three_way_cognate,1,REAL,FALSA
,,,,,,,,,63069f585b35a5ec752fcd30,001,2024-06-07_04h34.27.011,empathy_intonation_perc,2024.1.4,Win32,60.24096386,,,,,,,,,,,,,,110,vacapó,,,,,,123.591,124.9579,1,0,0.8405,,0,61,61,109,1,pseudoword,0,REAL,FALSA
,,,,,,,,,63069f585b35a5ec752fcd30,001,2024-06-07_04h34.27.011,empathy_intonation_perc,2024.1.4,Win32,60.24096386,,,,,,,,,,,,,,73,llevar,,,,,,124.9605,126.3377,0,1,0.8521,,0,62,62,72,1,non_cognate,1,REAL,FALSA
,,,,,,,,,63069f585b35a5ec752fcd30,001,2024-06-07_04h34.27.011,empathy_intonation_perc,2024.1.4,Win32,60.24096386,,,,,,,,,,,,,,139,furbos,,,,,,126.3385,127.4545,1,0,0.5861,,0,63,63,138,1,pseudoword,0,REAL,FALSA
,,,,,,,,,63069f585b35a5ec752fcd30,001,2024-06-07_04h34.27.011,empathy_intonation_perc,2024.1.4,Win32,60.24096386,,,,,,,,,,,,,,62,pegar,,,,,,127.4555,128.8531,0,1,0.8707,,0,64,64,61,1,non_cognate,1,REAL,FALSA
,,,,,,,,,63069f585b35a5ec752fcd30,001,2024-06-07_04h34.27.011,empathy_intonation_perc,2024.1.4,Win32,60.24096386,,,,,,,,,,,,,,77,suave,,,,,,128.8546,130.0023,1,0,0.614,,0,65,65,76,1,non_cognate,1,REAL,FALSA
,,,,,,,,,63069f585b35a5ec752fcd30,001,2024-06-07_04h34.27.011,empathy_intonation_perc,2024.1.4,Win32,60.24096386,,,,,,,,,,,,,,42,rumor,,,,,,130.0037,131.0676,0,1,0.5303,,0,66,66,41,1,two_way_cognate,1,REAL,FALSA
,,,,,,,,,63069f585b35a5ec752fcd30,001,2024-06-07_04h34.27.011,empathy_intonation_perc,2024.1.4,Win32,60.24096386,,,,,,,,,,,,,,15,chat,,,,,,131.0689,132.1497,0,1,0.5382,,0,67,67,14,1,three_way_cognate,1,REAL,FALSA
,,,,,,,,,63069f585b35a5ec752fcd30,001,2024-06-07_04h34.27.011,empathy_intonation_perc,2024.1.4,Win32,60.24096386,,,,,,,,,,,,,,111,vibler,,,,,,132.1503,133.3153,0,1,0.6318,,0,68,68,110,1,pseudoword,0,REAL,FALSA
,,,,,,,,,63069f585b35a5ec752fcd30,001,2024-06-07_04h34.27.011,empathy_intonation_perc,2024.1.4,Win32,60.24096386,,,,,,,,,,,,,,51,listo,,,,,,133.3159,136.2134,1,0,2.3641,,0,69,69,50,1,non_cognate,1,REAL,FALSA
,,,,,,,,,63069f585b35a5ec752fcd30,001,2024-06-07_04h34.27.011,empathy_intonation_perc,2024.1.4,Win32,60.24096386,,,,,,,,,,,,,,120,hierno,,,,,,136.2395,137.9121,1,0,1.1485,,0,70,70,119,1,pseudoword,0,REAL,FALSA
,,,,,,,,,63069f585b35a5ec752fcd30,001,2024-06-07_04h34.27.011,empathy_intonation_perc,2024.1.4,Win32,60.24096386,,,,,,,,,,,,,,105,curgué,,,,,,137.913,139.3615,0,1,0.9195,,0,71,71,104,1,pseudoword,0,REAL,FALSA
,,,,,,,,,63069f585b35a5ec752fcd30,001,2024-06-07_04h34.27.011,empathy_intonation_perc,2024.1.4,Win32,60.24096386,,,,,,,,,,,,,,58,colcha,,,,,,139.3628,140.6599,1,0,0.7559,,0,72,72,57,1,non_cognate,1,REAL,FALSA
,,,,,,,,,63069f585b35a5ec752fcd30,001,2024-06-07_04h34.27.011,empathy_intonation_perc,2024.1.4,Win32,60.24096386,,,,,,,,,,,,,,137,unglés,,,,,,140.6605,143.1574,1,0,1.9621,,0,73,73,136,1,pseudoword,0,REAL,FALSA
,,,,,,,,,63069f585b35a5ec752fcd30,001,2024-06-07_04h34.27.011,empathy_intonation_perc,2024.1.4,Win32,60.24096386,,,,,,,,,,,,,,46,mortal,,,,,,143.1577,144.2412,0,1,0.5636,,0,74,74,45,1,two_way_cognate,1,REAL,FALSA
,,,,,,,,,63069f585b35a5ec752fcd30,001,2024-06-07_04h34.27.011,empathy_intonation_perc,2024.1.4,Win32,60.24096386,,,,,,,,,,,,,,87,muleta,,,,,,144.2436,145.5391,1,0,0.7614,,0,75,75,86,1,non_cognate,1,REAL,FALSA
,,,,,,,,,63069f585b35a5ec752fcd30,001,2024-06-07_04h34.27.011,empathy_intonation_perc,2024.1.4,Win32,60.24096386,,,,,,,,,,,,,,89,muñeca,,,,,,145.5397,146.9875,1,0,0.9116,,0,76,76,88,1,non_cognate,1,REAL,FALSA
,,,,,,,,,63069f585b35a5ec752fcd30,001,2024-06-07_04h34.27.011,empathy_intonation_perc,2024.1.4,Win32,60.24096386,,,,,,,,,,,,,,98,erede,,,,,,146.9879,148.2872,0,1,0.7603,,0,77,77,97,1,pseudoword,0,REAL,FALSA
,,,,,,,,,63069f585b35a5ec752fcd30,001,2024-06-07_04h34.27.011,empathy_intonation_perc,2024.1.4,Win32,60.24096386,,,,,,,,,,,,,,14,test,,,,,,148.288,150.3862,0,1,1.5681,,0,78,78,13,1,three_way_cognate,1,REAL,FALSA
,,,,,,,,,63069f585b35a5ec752fcd30,001,2024-06-07_04h34.27.011,empathy_intonation_perc,2024.1.4,Win32,60.24096386,,,,,,,,,,,,,,75,patada,,,,,,150.3882,151.7672,0,1,0.8423,,0,79,79,74,1,non_cognate,1,REAL,FALSA
,,,,,,,,,63069f585b35a5ec752fcd30,001,2024-06-07_04h34.27.011,empathy_intonation_perc,2024.1.4,Win32,60.24096386,,,,,,,,,,,,,,93,tapa,,,,,,151.7677,153.2995,0,1,0.9992,,0,80,80,92,1,non_cognate,1,REAL,FALSA
,,,,,,,,,63069f585b35a5ec752fcd30,001,2024-06-07_04h34.27.011,empathy_intonation_perc,2024.1.4,Win32,60.24096386,,,,,,,,,,,,,,134,fruzas,,,,,,153.3003,155.0832,0,1,1.2535,,0,81,81,133,1,pseudoword,0,REAL,FALSA
,,,,,,,,,63069f585b35a5ec752fcd30,001,2024-06-07_04h34.27.011,empathy_intonation_perc,2024.1.4,Win32,60.24096386,,,,,,,,,,,,,,113,difrás,,,,,,155.0843,156.4302,1,0,0.8071,,0,82,82,112,1,pseudoword,0,REAL,FALSA
,,,,,,,,,63069f585b35a5ec752fcd30,001,2024-06-07_04h34.27.011,empathy_intonation_perc,2024.1.4,Win32,60.24096386,,,,,,,,,,,,,,47,color,,,,,,156.4308,157.6127,0,1,0.6474,,0,83,83,46,1,two_way_cognate,1,REAL,FALSA
,,,,,,,,,63069f585b35a5ec752fcd30,001,2024-06-07_04h34.27.011,empathy_intonation_perc,2024.1.4,Win32,60.24096386,,,,,,,,,,,,,,19,trauma,,,,,,157.6132,158.9121,0,1,0.7645,,0,84,84,18,1,three_way_cognate,1,REAL,FALSA
,,,,,,,,,63069f585b35a5ec752fcd30,001,2024-06-07_04h34.27.011,empathy_intonation_perc,2024.1.4,Win32,60.24096386,,,,,,,,,,,,,,99,mieris,,,,,,158.9139,160.0438,1,0,0.6021,,0,85,85,98,1,pseudoword,0,REAL,FALSA
,,,,,,,,,63069f585b35a5ec752fcd30,001,2024-06-07_04h34.27.011,empathy_intonation_perc,2024.1.4,Win32,60.24096386,,,,,,,,,,,,,,123,escare,,,,,,160.0444,161.1769,0,1,0.6009,,0,86,86,122,1,pseudoword,0,REAL,FALSA
,,,,,,,,,63069f585b35a5ec752fcd30,001,2024-06-07_04h34.27.011,empathy_intonation_perc,2024.1.4,Win32,60.24096386,,,,,,,,,,,,,,136,sopleó,,,,,,161.1779,162.2757,1,0,0.562,,0,87,87,135,1,pseudoword,0,REAL,FALSA
,,,,,,,,,63069f585b35a5ec752fcd30,001,2024-06-07_04h34.27.011,empathy_intonation_perc,2024.1.4,Win32,60.24096386,,,,,,,,,,,,,,94,forro,,,,,,162.2762,163.4752,1,0,0.6663,,0,88,88,93,1,non_cognate,1,REAL,FALSA
,,,,,,,,,63069f585b35a5ec752fcd30,001,2024-06-07_04h34.27.011,empathy_intonation_perc,2024.1.4,Win32,60.24096386,,,,,,,,,,,,,,55,maldad,,,,,,163.476,164.6731,0,1,0.6588,,0,89,89,54,1,non_cognate,1,REAL,FALSA
,,,,,,,,,63069f585b35a5ec752fcd30,001,2024-06-07_04h34.27.011,empathy_intonation_perc,2024.1.4,Win32,60.24096386,,,,,,,,,,,,,,57,regalo,,,,,,164.6735,166.3392,0,1,1.1421,,0,90,90,56,1,non_cognate,1,REAL,FALSA
,,,,,,,,,63069f585b35a5ec752fcd30,001,2024-06-07_04h34.27.011,empathy_intonation_perc,2024.1.4,Win32,60.24096386,,,,,,,,,,,,,,17,altar,,,,,,166.3404,167.574,1,0,0.7089,,0,91,91,16,1,three_way_cognate,1,REAL,FALSA
,,,,,,,,,63069f585b35a5ec752fcd30,001,2024-06-07_04h34.27.011,empathy_intonation_perc,2024.1.4,Win32,60.24096386,,,,,,,,,,,,,,7,kilo,,,,,,167.5754,169.3537,0,1,1.2494,,0,92,92,6,1,three_way_cognate,1,REAL,FALSA
,,,,,,,,,63069f585b35a5ec752fcd30,001,2024-06-07_04h34.27.011,empathy_intonation_perc,2024.1.4,Win32,60.24096386,,,,,,,,,,,,,,97,hufón,,,,,,169.3552,170.7187,1,0,0.8287,,0,93,93,96,1,pseudoword,0,REAL,FALSA
,,,,,,,,,63069f585b35a5ec752fcd30,001,2024-06-07_04h34.27.011,empathy_intonation_perc,2024.1.4,Win32,60.24096386,,,,,,,,,,,,,,95,listo,,,,,,170.7199,171.9169,0,1,0.6687,,0,94,94,94,1,non_cognate,1,REAL,FALSA
,,,,,,,,,63069f585b35a5ec752fcd30,001,2024-06-07_04h34.27.011,empathy_intonation_perc,2024.1.4,Win32,60.24096386,,,,,,,,,,,,,,18,mafia,,,,,,171.9176,173.266,1,0,0.8329,,0,95,95,17,1,three_way_cognate,1,REAL,FALSA
,,,,,,,,,63069f585b35a5ec752fcd30,001,2024-06-07_04h34.27.011,empathy_intonation_perc,2024.1.4,Win32,60.24096386,,,,,,,,,,,,,,24,retina,,,,,,173.2666,174.5321,0,1,0.7299,,0,96,96,23,1,three_way_cognate,1,REAL,FALSA
,,,,,,,,,63069f585b35a5ec752fcd30,001,2024-06-07_04h34.27.011,empathy_intonation_perc,2024.1.4,Win32,60.24096386,,,,,,,,,,,,,,126,anicio,,,,,,174.5331,175.667,1,0,0.5985,,0,97,97,125,1,pseudoword,0,REAL,FALSA
,,,,,,,,,63069f585b35a5ec752fcd30,001,2024-06-07_04h34.27.011,empathy_intonation_perc,2024.1.4,Win32,60.24096386,,,,,,,,,,,,,,138,glural,,,,,,175.6687,176.8971,0,1,0.6921,1E-04,0,98,98,137,1,pseudoword,0,REAL,FALSA
,,,,,,,,,63069f585b35a5ec752fcd30,001,2024-06-07_04h34.27.011,empathy_intonation_perc,2024.1.4,Win32,60.24096386,,,,,,,,,,,,,,9,drama,,,,,,176.8987,178.1955,0,1,0.7591,,0,99,99,8,1,three_way_cognate,1,REAL,FALSA
,,,,,,,,,63069f585b35a5ec752fcd30,001,2024-06-07_04h34.27.011,empathy_intonation_perc,2024.1.4,Win32,60.24096386,,,,,,,,,,,,,,144,piria,,,,,,178.1963,179.4782,1,0,0.7535,,0,100,100,143,1,pseudoword,0,REAL,FALSA
,,,,,,,,,63069f585b35a5ec752fcd30,001,2024-06-07_04h34.27.011,empathy_intonation_perc,2024.1.4,Win32,60.24096386,,,,,,,,,,,,,,67,llamar,,,,,,179.4791,180.6785,0,1,0.6704,,0,101,101,66,1,non_cognate,1,REAL,FALSA
,,,,,,,,,63069f585b35a5ec752fcd30,001,2024-06-07_04h34.27.011,empathy_intonation_perc,2024.1.4,Win32,60.24096386,,,,,,,,,,,,,,39,casual,,,,,,180.6798,181.9256,0,1,0.708,,0,102,102,38,1,two_way_cognate,1,REAL,FALSA
,,,,,,,,,63069f585b35a5ec752fcd30,001,2024-06-07_04h34.27.011,empathy_intonation_perc,2024.1.4,Win32,60.24096386,,,,,,,,,,,,,,83,hálito,,,,,,181.9259,183.1414,1,0,0.687,,0,103,103,82,1,non_cognate,1,REAL,FALSA
,,,,,,,,,63069f585b35a5ec752fcd30,001,2024-06-07_04h34.27.011,empathy_intonation_perc,2024.1.4,Win32,60.24096386,,,,,,,,,,,,,,45,total,,,,,,183.142,184.2078,0,1,0.5316,,0,104,104,44,1,two_way_cognate,1,REAL,FALSA
,,,,,,,,,63069f585b35a5ec752fcd30,001,2024-06-07_04h34.27.011,empathy_intonation_perc,2024.1.4,Win32,60.24096386,,,,,,,,,,,,,,122,gravés,,,,,,184.2086,186.2729,1,0,1.529,,0,105,105,121,1,pseudoword,0,REAL,FALSA
,,,,,,,,,63069f585b35a5ec752fcd30,001,2024-06-07_04h34.27.011,empathy_intonation_perc,2024.1.4,Win32,60.24096386,,,,,,,,,,,,,,141,sumer,,,,,,186.2738,187.6878,1,0,0.8782,,0,106,106,140,1,pseudoword,0,REAL,FALSA
,,,,,,,,,63069f585b35a5ec752fcd30,001,2024-06-07_04h34.27.011,empathy_intonation_perc,2024.1.4,Win32,60.24096386,,,,,,,,,,,,,,130,dubo,,,,,,187.6884,189.02,0,1,0.8021,,0,107,107,129,1,pseudoword,0,REAL,FALSA
,,,,,,,,,63069f585b35a5ec752fcd30,001,2024-06-07_04h34.27.011,empathy_intonation_perc,2024.1.4,Win32,60.24096386,,,,,,,,,,,,,,102,coyo,,,,,,189.0206,190.4733,1,0,0.912,,0,108,108,101,1,pseudoword,0,REAL,FALSA
,,,,,,,,,63069f585b35a5ec752fcd30,001,2024-06-07_04h34.27.011,empathy_intonation_perc,2024.1.4,Win32,60.24096386,,,,,,,,,,,,,,107,plamos,,,,,,190.4752,191.7677,1,0,0.7576,,0,109,109,106,1,pseudoword,0,REAL,FALSA
,,,,,,,,,63069f585b35a5ec752fcd30,001,2024-06-07_04h34.27.011,empathy_intonation_perc,2024.1.4,Win32,60.24096386,,,,,,,,,,,,,,80,cuenco,,,,,,191.7683,192.885,1,0,0.5848,,0,110,110,79,1,non_cognate,1,REAL,FALSA
,,,,,,,,,63069f585b35a5ec752fcd30,001,2024-06-07_04h34.27.011,empathy_intonation_perc,2024.1.4,Win32,60.24096386,,,,,,,,,,,,,,11,dogma,,,,,,192.8876,194.1515,1,0,0.7323,,0,111,111,10,1,three_way_cognate,1,REAL,FALSA
,,,,,,,,,63069f585b35a5ec752fcd30,001,2024-06-07_04h34.27.011,empathy_intonation_perc,2024.1.4,Win32,60.24096386,,,,,,,,,,,,,,31,civil,,,,,,194.1526,195.2365,0,1,0.5584,,0,112,112,30,1,two_way_cognate,1,REAL,FALSA
,,,,,,,,,63069f585b35a5ec752fcd30,001,2024-06-07_04h34.27.011,empathy_intonation_perc,2024.1.4,Win32,60.24096386,,,,,,,,,,,,,,140,vapen,,,,,,195.2372,196.4644,1,0,0.7014,,0,113,113,139,1,pseudoword,0,REAL,FALSA
,,,,,,,,,63069f585b35a5ec752fcd30,001,2024-06-07_04h34.27.011,empathy_intonation_perc,2024.1.4,Win32,60.24096386,,,,,,,,,,,,,,90,venado,,,,,,196.4665,197.547,1,0,0.551,,0,114,114,89,1,non_cognate,1,REAL,FALSA
,,,,,,,,,63069f585b35a5ec752fcd30,001,2024-06-07_04h34.27.011,empathy_intonation_perc,2024.1.4,Win32,60.24096386,,,,,,,,,,,,,,125,ceme,,,,,,197.5486,199.2119,1,0,1.1286,,0,115,115,124,1,pseudoword,0,REAL,FALSA
,,,,,,,,,63069f585b35a5ec752fcd30,001,2024-06-07_04h34.27.011,empathy_intonation_perc,2024.1.4,Win32,60.24096386,,,,,,,,,,,,,,3,flora,,,,,,199.2131,200.5305,0,1,0.7922,,0,116,116,2,1,three_way_cognate,1,REAL,FALSA
,,,,,,,,,63069f585b35a5ec752fcd30,001,2024-06-07_04h34.27.011,empathy_intonation_perc,2024.1.4,Win32,60.24096386,,,,,,,,,,,,,,35,aurora,,,,,,200.532,201.7097,0,1,0.647,,0,117,117,34,1,two_way_cognate,1,REAL,FALSA
,,,,,,,,,63069f585b35a5ec752fcd30,001,2024-06-07_04h34.27.011,empathy_intonation_perc,2024.1.4,Win32,60.24096386,,,,,,,,,,,,,,74,ala,,,,,,201.7113,204.0442,0,1,1.7974,,0,118,118,73,1,non_cognate,1,REAL,FALSA
,,,,,,,,,63069f585b35a5ec752fcd30,001,2024-06-07_04h34.27.011,empathy_intonation_perc,2024.1.4,Win32,60.24096386,,,,,,,,,,,,,,108,viarle,,,,,,204.0448,205.2913,1,0,0.7137,,0,119,119,107,1,pseudoword,0,REAL,FALSA
,,,,,,,,,63069f585b35a5ec752fcd30,001,2024-06-07_04h34.27.011,empathy_intonation_perc,2024.1.4,Win32,60.24096386,,,,,,,,,,,,,,30,fiscal,,,,,,205.2926,206.9549,0,1,1.1391,,0,120,120,29,1,two_way_cognate,1,REAL,FALSA
,,,,,,,,,63069f585b35a5ec752fcd30,001,2024-06-07_04h34.27.011,empathy_intonation_perc,2024.1.4,Win32,60.24096386,,,,,,,,,,,,,,71,torta,,,,,,206.9552,208.104,1,0,0.6116,,0,121,121,70,1,non_cognate,1,REAL,FALSA
,,,,,,,,,63069f585b35a5ec752fcd30,001,2024-06-07_04h34.27.011,empathy_intonation_perc,2024.1.4,Win32,60.24096386,,,,,,,,,,,,,,56,pico,,,,,,208.1044,209.2381,0,1,0.5973,,0,122,122,55,1,non_cognate,1,REAL,FALSA
,,,,,,,,,63069f585b35a5ec752fcd30,001,2024-06-07_04h34.27.011,empathy_intonation_perc,2024.1.4,Win32,60.24096386,,,,,,,,,,,,,,12,plan,,,,,,209.2397,210.3367,0,1,0.5645,,0,123,123,11,1,three_way_cognate,1,REAL,FALSA
,,,,,,,,,63069f585b35a5ec752fcd30,001,2024-06-07_04h34.27.011,empathy_intonation_perc,2024.1.4,Win32,60.24096386,,,,,,,,,,,,,,70,ánimo,,,,,,210.338,211.4683,1,0,0.5997,,0,124,124,69,1,non_cognate,1,REAL,FALSA
,,,,,,,,,63069f585b35a5ec752fcd30,001,2024-06-07_04h34.27.011,empathy_intonation_perc,2024.1.4,Win32,60.24096386,,,,,,,,,,,,,,124,lobe,,,,,,211.4697,213.0833,0,1,1.0869,,0,125,125,123,1,pseudoword,0,REAL,FALSA
,,,,,,,,,63069f585b35a5ec752fcd30,001,2024-06-07_04h34.27.011,empathy_intonation_perc,2024.1.4,Win32,60.24096386,,,,,,,,,,,,,,86,cuenco,,,,,,213.0837,214.3495,1,0,0.7277,,0,126,126,85,1,non_cognate,1,REAL,FALSA
,,,,,,,,,63069f585b35a5ec752fcd30,001,2024-06-07_04h34.27.011,empathy_intonation_perc,2024.1.4,Win32,60.24096386,,,,,,,,,,,,,,127,vien,,,,,,214.3504,215.5321,1,0,0.6442,,0,127,127,126,1,pseudoword,0,REAL,FALSA
,,,,,,,,,63069f585b35a5ec752fcd30,001,2024-06-07_04h34.27.011,empathy_intonation_perc,2024.1.4,Win32,60.24096386,,,,,,,,,,,,,,59,feo,,,,,,215.5329,216.7317,0,1,0.6642,,0,128,128,58,1,non_cognate,1,REAL,FALSA
,,,,,,,,,63069f585b35a5ec752fcd30,001,2024-06-07_04h34.27.011,empathy_intonation_perc,2024.1.4,Win32,60.24096386,,,,,,,,,,,,,,119,esís,,,,,,216.7329,218.2624,0,1,0.9973,,0,129,129,118,1,pseudoword,0,REAL,FALSA
,,,,,,,,,63069f585b35a5ec752fcd30,001,2024-06-07_04h34.27.011,empathy_intonation_perc,2024.1.4,Win32,60.24096386,,,,,,,,,,,,,,114,potos,,,,,,218.2628,219.4448,0,1,0.6433,,0,130,130,113,1,pseudoword,0,REAL,FALSA
,,,,,,,,,63069f585b35a5ec752fcd30,001,2024-06-07_04h34.27.011,empathy_intonation_perc,2024.1.4,Win32,60.24096386,,,,,,,,,,,,,,32,animal,,,,,,219.4453,220.5115,0,1,0.5288,,0,131,131,31,1,two_way_cognate,1,REAL,FALSA
,,,,,,,,,63069f585b35a5ec752fcd30,001,2024-06-07_04h34.27.011,empathy_intonation_perc,2024.1.4,Win32,60.24096386,,,,,,,,,,,,,,81,sacar,,,,,,220.5127,221.8274,1,0,0.7819,,0,132,132,80,1,non_cognate,1,REAL,FALSA
,,,,,,,,,63069f585b35a5ec752fcd30,001,2024-06-07_04h34.27.011,empathy_intonation_perc,2024.1.4,Win32,60.24096386,,,,,,,,,,,,,,115,civas,,,,,,221.8287,223.1753,1,0,0.8118,,0,133,133,114,1,pseudoword,0,REAL,FALSA
,,,,,,,,,63069f585b35a5ec752fcd30,001,2024-06-07_04h34.27.011,empathy_intonation_perc,2024.1.4,Win32,60.24096386,,,,,,,,,,,,,,8,portal,,,,,,223.1759,224.7574,0,1,1.0479,,0,134,134,7,1,three_way_cognate,1,REAL,FALSA
,,,,,,,,,63069f585b35a5ec752fcd30,001,2024-06-07_04h34.27.011,empathy_intonation_perc,2024.1.4,Win32,60.24096386,,,,,,,,,,,,,,36,viable,,,,,,224.7582,225.9899,0,1,0.6963,,0,135,135,35,1,two_way_cognate,1,REAL,FALSA
,,,,,,,,,63069f585b35a5ec752fcd30,001,2024-06-07_04h34.27.011,empathy_intonation_perc,2024.1.4,Win32,60.24096386,,,,,,,,,,,,,,72,rostro,,,,,,225.9909,227.8551,0,1,1.3284,,0,136,136,71,1,non_cognate,1,REAL,FALSA
,,,,,,,,,63069f585b35a5ec752fcd30,001,2024-06-07_04h34.27.011,empathy_intonation_perc,2024.1.4,Win32,60.24096386,,,,,,,,,,,,,,6,albino,,,,,,227.8561,228.9877,0,1,0.5995,,0,137,137,5,1,three_way_cognate,1,REAL,FALSA
,,,,,,,,,63069f585b35a5ec752fcd30,001,2024-06-07_04h34.27.011,empathy_intonation_perc,2024.1.4,Win32,60.24096386,,,,,,,,,,,,,,91,equipo,,,,,,228.9897,230.3205,0,1,0.7998,,0,138,138,90,1,non_cognate,1,REAL,FALSA
,,,,,,,,,63069f585b35a5ec752fcd30,001,2024-06-07_04h34.27.011,empathy_intonation_perc,2024.1.4,Win32,60.24096386,,,,,,,,,,,,,,133,tirafa,,,,,,230.3221,231.6524,0,1,0.7958,,0,139,139,132,1,pseudoword,0,REAL,FALSA
,,,,,,,,,63069f585b35a5ec752fcd30,001,2024-06-07_04h34.27.011,empathy_intonation_perc,2024.1.4,Win32,60.24096386,,,,,,,,,,,,,,100,medón,,,,,,231.6549,234.2504,1,0,2.0683,,0,140,140,99,1,pseudoword,0,REAL,FALSA
,,,,,,,,,63069f585b35a5ec752fcd30,001,2024-06-07_04h34.27.011,empathy_intonation_perc,2024.1.4,Win32,60.24096386,,,,,,,,,,,,,,50,sierra,,,,,,234.2786,237.13,0,1,2.3213,,0,141,141,49,1,non_cognate,1,REAL,FALSA
,,,,,,,,,63069f585b35a5ec752fcd30,001,2024-06-07_04h34.27.011,empathy_intonation_perc,2024.1.4,Win32,60.24096386,,,,,,,,,,,,,,60,siglo,,,,,,237.1304,238.3789,1,0,0.7079,,0,142,142,59,1,non_cognate,1,REAL,FALSA
,,,,,,,,,63069f585b35a5ec752fcd30,001,2024-06-07_04h34.27.011,empathy_intonation_perc,2024.1.4,Win32,60.24096386,,,,,,,,,,,,,,61,aduana,,,,,,238.3793,239.8952,0,1,0.9834,,0,143,143,60,1,non_cognate,1,REAL,FALSA
