lextale_instructions.started,lextale_instructions.stopped,lextale_instructions_loop.thisRepN,lextale_instructions_loop.thisTrialN,lextale_instructions_loop.thisN,lextale_instructions_loop.thisIndex,lextale_instructions_loop.ran,instructions_text,continue_text,participant,session,date,expName,psychopyVersion,OS,frameRate,lextale_practice.started,lextale_practice.stopped,key_resp_lextale_practice.keys,key_resp_lextale_practice.corr,key_resp_lextale_practice.rt,key_resp_lextale_practice.duration,lextale_practice_feedback.started,lextale_practice_feedback.stopped,lextale_practice_trials.thisRepN,lextale_practice_trials.thisTrialN,lextale_practice_trials.thisN,lextale_practice_trials.thisIndex,lextale_practice_trials.ran,stim,word,correct_response,prac_button_real,prac_button_false,lextale_check.started,lextale_check.stopped,lextale_trial.started,lextale_trial.stopped,key_resp_lextale_trial.keys,key_resp_lextale_trial.corr,key_resp_lextale_trial.rt,key_resp_lextale_trial.duration,lextail_trials.thisRepN,lextail_trials.thisTrialN,lextail_trials.thisN,lextail_trials.thisIndex,lextail_trials.ran,type,correct_reponse,button_real,button_false
0.0062,1.4175,0,0,0,0,1,"Este es un test de vocabulario en español. 
  
  A continuación vas a ver 90 secuencias de letras que parecen 'españolas'.
  
  Solo algunas de ellas son palabras de verdad.",(presiona la barra espaciadora para continuar),630f9d70f86ca1ee77a5b8dd,001,2024-06-07_12h11.42.765,empathy_intonation_perc,2024.1.4,Win32,60.24096386,,,,,,,,,,,,,,,,,,,,,,,,,,,,,,,,,,,
1.4181,12.2363,0,1,1,1,1,"Por favor, señala las palabras que tú conoces (aquellas que estás convencido que son palabras españolas, incluso aunque no seas capaz de dar el significado preciso).",(presiona la barra espaciadora para continuar),630f9d70f86ca1ee77a5b8dd,001,2024-06-07_12h11.42.765,empathy_intonation_perc,2024.1.4,Win32,60.24096386,,,,,,,,,,,,,,,,,,,,,,,,,,,,,,,,,,,
12.2475,25.0072,0,2,2,2,1,Pero cuidado: los errores se penalizan. Por eso no tiene sentido tratar de incrementar tu puntuación marcando como reales palabras que nunca has visto.,(presiona la barra espaciadora para continuar),630f9d70f86ca1ee77a5b8dd,001,2024-06-07_12h11.42.765,empathy_intonation_perc,2024.1.4,Win32,60.24096386,,,,,,,,,,,,,,,,,,,,,,,,,,,,,,,,,,,
25.0164,26.2043,0,3,3,3,1,"Presiona la tecla 1 si piensas que es una palabra real y la tecla 
  0 si piensas que es una palabra falsa. 
  
  Vamos a practicar un poco...",(presiona la barra espaciadora para continuar),630f9d70f86ca1ee77a5b8dd,001,2024-06-07_12h11.42.765,empathy_intonation_perc,2024.1.4,Win32,60.24096386,,,,,,,,,,,,,,,,,,,,,,,,,,,,,,,,,,,
,,,,,,,,,630f9d70f86ca1ee77a5b8dd,001,2024-06-07_12h11.42.765,empathy_intonation_perc,2024.1.4,Win32,60.24096386,26.2096,28.1031,1,0,1.3697,,28.1033,29.1018,0,0,0,0,1,0,depiste,0,REAL,FALSA,,,,,,,,,,,,,,,,,
,,,,,,,,,630f9d70f86ca1ee77a5b8dd,001,2024-06-07_12h11.42.765,empathy_intonation_perc,2024.1.4,Win32,60.24096386,29.1022,29.6675,1,1,0.0322,,29.6675,30.6663,0,1,1,1,1,0,sí,1,REAL,FALSA,,,,,,,,,,,,,,,,,
,,,,,,,,,630f9d70f86ca1ee77a5b8dd,001,2024-06-07_12h11.42.765,empathy_intonation_perc,2024.1.4,Win32,60.24096386,30.6666,31.8812,1,0,0.6819,,31.8814,32.8804,0,2,2,2,1,0,coné,0,REAL,FALSA,,,,,,,,,,,,,,,,,
,,,,,,,,,630f9d70f86ca1ee77a5b8dd,001,2024-06-07_12h11.42.765,empathy_intonation_perc,2024.1.4,Win32,60.24096386,32.8808,34.1775,1,0,0.7696,,34.1776,35.178,0,3,3,3,1,0,calpar,0,REAL,FALSA,,,,,,,,,,,,,,,,,
,,,,,,,,,630f9d70f86ca1ee77a5b8dd,001,2024-06-07_12h11.42.765,empathy_intonation_perc,2024.1.4,Win32,60.24096386,35.1873,36.3766,1,0,0.6643,,36.3766,37.374,0,4,4,4,1,0,joten,0,REAL,FALSA,,,,,,,,,,,,,,,,,
,,,,,,,,,630f9d70f86ca1ee77a5b8dd,001,2024-06-07_12h11.42.765,empathy_intonation_perc,2024.1.4,Win32,60.24096386,37.3745,38.3398,0,0,0.4485,,38.3401,39.3396,0,5,5,5,1,0,sacapuntas,1,REAL,FALSA,,,,,,,,,,,,,,,,,
,,,,,,,,,630f9d70f86ca1ee77a5b8dd,001,2024-06-07_12h11.42.765,empathy_intonation_perc,2024.1.4,Win32,60.24096386,39.3401,40.3221,1,0,0.4502,,40.3221,41.3203,0,6,6,6,1,0,priba,0,REAL,FALSA,,,,,,,,,,,,,,,,,
,,,,,,,,,630f9d70f86ca1ee77a5b8dd,001,2024-06-07_12h11.42.765,empathy_intonation_perc,2024.1.4,Win32,60.24096386,41.3212,42.6349,0,1,0.786,,42.6349,43.6351,0,7,7,7,1,0,pelasula,0,REAL,FALSA,,,,,,,,,,,,,,,,,
,,,,,,,,,630f9d70f86ca1ee77a5b8dd,001,2024-06-07_12h11.42.765,empathy_intonation_perc,2024.1.4,Win32,60.24096386,43.6353,45.1154,1,1,0.9481,,45.1155,46.1141,0,8,8,8,1,0,bien,1,REAL,FALSA,,,,,,,,,,,,,,,,,
,,,,,,,,,630f9d70f86ca1ee77a5b8dd,001,2024-06-07_12h11.42.765,empathy_intonation_perc,2024.1.4,Win32,60.24096386,46.1146,47.88,1,1,1.2475,,47.8801,48.8778,0,9,9,9,1,0,casa,1,REAL,FALSA,,,,,,,,,,,,,,,,,
,,,,,,,,,630f9d70f86ca1ee77a5b8dd,001,2024-06-07_12h11.42.765,empathy_intonation_perc,2024.1.4,Win32,60.24096386,48.8787,50.5601,0,1,1.1503,,50.5603,51.558,0,10,10,10,1,0,lejo,0,REAL,FALSA,,,,,,,,,,,,,,,,,
,,,,,,,,,630f9d70f86ca1ee77a5b8dd,001,2024-06-07_12h11.42.765,empathy_intonation_perc,2024.1.4,Win32,60.24096386,51.5676,53.0404,1,0,0.9385,,53.0406,54.0397,0,11,11,11,1,0,pretantas,0,REAL,FALSA,,,,,,,,,,,,,,,,,
,,,,,,,,,630f9d70f86ca1ee77a5b8dd,001,2024-06-07_12h11.42.765,empathy_intonation_perc,2024.1.4,Win32,60.24096386,,,,,,,,,,,,,,,,,,,54.0411,58.1854,,,,,,,,,,,,,,,
,,,,,,,,,630f9d70f86ca1ee77a5b8dd,001,2024-06-07_12h11.42.765,empathy_intonation_perc,2024.1.4,Win32,60.24096386,,,,,,,,,,,,,,6,albino,,,,,,58.2073,59.151,1,0,0.4063,,0,0,0,5,1,three_way_cognate,1,REAL,FALSA
,,,,,,,,,630f9d70f86ca1ee77a5b8dd,001,2024-06-07_12h11.42.765,empathy_intonation_perc,2024.1.4,Win32,60.24096386,,,,,,,,,,,,,,86,cuenco,,,,,,59.1517,60.3322,0,1,0.6493,,0,1,1,85,1,non_cognate,1,REAL,FALSA
,,,,,,,,,630f9d70f86ca1ee77a5b8dd,001,2024-06-07_12h11.42.765,empathy_intonation_perc,2024.1.4,Win32,60.24096386,,,,,,,,,,,,,,28,ardor,,,,,,60.333,62.4804,1,0,1.617,,0,2,2,27,1,two_way_cognate,1,REAL,FALSA
,,,,,,,,,630f9d70f86ca1ee77a5b8dd,001,2024-06-07_12h11.42.765,empathy_intonation_perc,2024.1.4,Win32,60.24096386,,,,,,,,,,,,,,51,listo,,,,,,62.4807,63.6291,1,0,0.6148,,0,3,3,50,1,non_cognate,1,REAL,FALSA
,,,,,,,,,630f9d70f86ca1ee77a5b8dd,001,2024-06-07_12h11.42.765,empathy_intonation_perc,2024.1.4,Win32,60.24096386,,,,,,,,,,,,,,12,plan,,,,,,63.6294,65.8589,1,0,1.6982,,0,4,4,11,1,three_way_cognate,1,REAL,FALSA
,,,,,,,,,630f9d70f86ca1ee77a5b8dd,001,2024-06-07_12h11.42.765,empathy_intonation_perc,2024.1.4,Win32,60.24096386,,,,,,,,,,,,,,143,pledú,,,,,,65.8599,66.8914,1,0,0.5028,,0,5,5,142,1,pseudoword,0,REAL,FALSA
,,,,,,,,,630f9d70f86ca1ee77a5b8dd,001,2024-06-07_12h11.42.765,empathy_intonation_perc,2024.1.4,Win32,60.24096386,,,,,,,,,,,,,,63,hilo,,,,,,66.8923,67.6065,0,1,0.1843,,0,6,6,62,1,non_cognate,1,REAL,FALSA
,,,,,,,,,630f9d70f86ca1ee77a5b8dd,001,2024-06-07_12h11.42.765,empathy_intonation_perc,2024.1.4,Win32,60.24096386,,,,,,,,,,,,,,59,feo,,,,,,67.6071,68.4738,1,0,0.3321,,0,7,7,58,1,non_cognate,1,REAL,FALSA
,,,,,,,,,630f9d70f86ca1ee77a5b8dd,001,2024-06-07_12h11.42.765,empathy_intonation_perc,2024.1.4,Win32,60.24096386,,,,,,,,,,,,,,16,clan,,,,,,68.4741,69.3722,0,1,0.3652,,0,8,8,15,1,three_way_cognate,1,REAL,FALSA
,,,,,,,,,630f9d70f86ca1ee77a5b8dd,001,2024-06-07_12h11.42.765,empathy_intonation_perc,2024.1.4,Win32,60.24096386,,,,,,,,,,,,,,100,medón,,,,,,69.3727,70.4874,1,0,0.5823,,0,9,9,99,1,pseudoword,0,REAL,FALSA
,,,,,,,,,630f9d70f86ca1ee77a5b8dd,001,2024-06-07_12h11.42.765,empathy_intonation_perc,2024.1.4,Win32,60.24096386,,,,,,,,,,,,,,1,tumor,,,,,,70.4882,71.4536,1,0,0.4372,,0,10,10,0,1,three_way_cognate,1,REAL,FALSA
,,,,,,,,,630f9d70f86ca1ee77a5b8dd,001,2024-06-07_12h11.42.765,empathy_intonation_perc,2024.1.4,Win32,60.24096386,,,,,,,,,,,,,,138,glural,,,,,,71.4539,72.2679,1,0,0.2825,,0,11,11,137,1,pseudoword,0,REAL,FALSA
,,,,,,,,,630f9d70f86ca1ee77a5b8dd,001,2024-06-07_12h11.42.765,empathy_intonation_perc,2024.1.4,Win32,60.24096386,,,,,,,,,,,,,,49,teñir,,,,,,72.2687,72.935,1,0,0.1489,,0,12,12,48,1,non_cognate,1,REAL,FALSA
,,,,,,,,,630f9d70f86ca1ee77a5b8dd,001,2024-06-07_12h11.42.765,empathy_intonation_perc,2024.1.4,Win32,60.24096386,,,,,,,,,,,,,,15,chat,,,,,,72.9354,73.8495,1,0,0.3822,,0,13,13,14,1,three_way_cognate,1,REAL,FALSA
,,,,,,,,,630f9d70f86ca1ee77a5b8dd,001,2024-06-07_12h11.42.765,empathy_intonation_perc,2024.1.4,Win32,60.24096386,,,,,,,,,,,,,,126,anicio,,,,,,73.8503,74.6829,1,0,0.3166,,0,14,14,125,1,pseudoword,0,REAL,FALSA
,,,,,,,,,630f9d70f86ca1ee77a5b8dd,001,2024-06-07_12h11.42.765,empathy_intonation_perc,2024.1.4,Win32,60.24096386,,,,,,,,,,,,,,107,plamos,,,,,,74.6835,75.7154,1,0,0.4992,,0,15,15,106,1,pseudoword,0,REAL,FALSA
,,,,,,,,,630f9d70f86ca1ee77a5b8dd,001,2024-06-07_12h11.42.765,empathy_intonation_perc,2024.1.4,Win32,60.24096386,,,,,,,,,,,,,,38,halo,,,,,,75.7158,76.8475,1,0,0.5994,,0,16,16,37,1,two_way_cognate,1,REAL,FALSA
,,,,,,,,,630f9d70f86ca1ee77a5b8dd,001,2024-06-07_12h11.42.765,empathy_intonation_perc,2024.1.4,Win32,60.24096386,,,,,,,,,,,,,,77,suave,,,,,,76.8479,78.9272,1,0,1.5478,,0,17,17,76,1,non_cognate,1,REAL,FALSA
,,,,,,,,,630f9d70f86ca1ee77a5b8dd,001,2024-06-07_12h11.42.765,empathy_intonation_perc,2024.1.4,Win32,60.24096386,,,,,,,,,,,,,,118,bará,,,,,,78.9283,80.6096,1,0,1.1513,,0,18,18,117,1,pseudoword,0,REAL,FALSA
,,,,,,,,,630f9d70f86ca1ee77a5b8dd,001,2024-06-07_12h11.42.765,empathy_intonation_perc,2024.1.4,Win32,60.24096386,,,,,,,,,,,,,,70,ánimo,,,,,,80.6101,81.4407,0,1,0.2999,,0,19,19,69,1,non_cognate,1,REAL,FALSA
,,,,,,,,,630f9d70f86ca1ee77a5b8dd,001,2024-06-07_12h11.42.765,empathy_intonation_perc,2024.1.4,Win32,60.24096386,,,,,,,,,,,,,,54,tapón,,,,,,81.4412,82.5244,1,0,0.5682,,0,20,20,53,1,non_cognate,1,REAL,FALSA
,,,,,,,,,630f9d70f86ca1ee77a5b8dd,001,2024-06-07_12h11.42.765,empathy_intonation_perc,2024.1.4,Win32,60.24096386,,,,,,,,,,,,,,68,puñal,,,,,,82.5247,83.323,0,1,0.2649,,0,21,21,67,1,non_cognate,1,REAL,FALSA
,,,,,,,,,630f9d70f86ca1ee77a5b8dd,001,2024-06-07_12h11.42.765,empathy_intonation_perc,2024.1.4,Win32,60.24096386,,,,,,,,,,,,,,33,collar,,,,,,83.3235,84.3385,1,0,0.4859,,0,22,22,32,1,two_way_cognate,1,REAL,FALSA
,,,,,,,,,630f9d70f86ca1ee77a5b8dd,001,2024-06-07_12h11.42.765,empathy_intonation_perc,2024.1.4,Win32,60.24096386,,,,,,,,,,,,,,104,vitra,,,,,,84.3392,85.3701,0,1,0.4981,,0,23,23,103,1,pseudoword,0,REAL,FALSA
,,,,,,,,,630f9d70f86ca1ee77a5b8dd,001,2024-06-07_12h11.42.765,empathy_intonation_perc,2024.1.4,Win32,60.24096386,,,,,,,,,,,,,,44,editor,,,,,,85.3712,86.1706,1,0,0.2669,,0,24,24,43,1,two_way_cognate,1,REAL,FALSA
,,,,,,,,,630f9d70f86ca1ee77a5b8dd,001,2024-06-07_12h11.42.765,empathy_intonation_perc,2024.1.4,Win32,60.24096386,,,,,,,,,,,,,,134,fruzas,,,,,,86.171,87.0526,1,0,0.349,,0,25,25,133,1,pseudoword,0,REAL,FALSA
,,,,,,,,,630f9d70f86ca1ee77a5b8dd,001,2024-06-07_12h11.42.765,empathy_intonation_perc,2024.1.4,Win32,60.24096386,,,,,,,,,,,,,,87,muleta,,,,,,87.0529,87.7339,1,0,0.1486,,0,26,26,86,1,non_cognate,1,REAL,FALSA
,,,,,,,,,630f9d70f86ca1ee77a5b8dd,001,2024-06-07_12h11.42.765,empathy_intonation_perc,2024.1.4,Win32,60.24096386,,,,,,,,,,,,,,50,sierra,,,,,,87.7347,88.5176,1,0,0.2489,,0,27,27,49,1,non_cognate,1,REAL,FALSA
,,,,,,,,,630f9d70f86ca1ee77a5b8dd,001,2024-06-07_12h11.42.765,empathy_intonation_perc,2024.1.4,Win32,60.24096386,,,,,,,,,,,,,,139,furbos,,,,,,88.5179,89.2502,0,1,0.1992,,0,28,28,138,1,pseudoword,0,REAL,FALSA
,,,,,,,,,630f9d70f86ca1ee77a5b8dd,001,2024-06-07_12h11.42.765,empathy_intonation_perc,2024.1.4,Win32,60.24096386,,,,,,,,,,,,,,122,gravés,,,,,,89.2504,89.981,1,0,0.1995,,0,29,29,121,1,pseudoword,0,REAL,FALSA
,,,,,,,,,630f9d70f86ca1ee77a5b8dd,001,2024-06-07_12h11.42.765,empathy_intonation_perc,2024.1.4,Win32,60.24096386,,,,,,,,,,,,,,83,hálito,,,,,,89.9814,90.6814,1,0,0.1678,,0,30,30,82,1,non_cognate,1,REAL,FALSA
,,,,,,,,,630f9d70f86ca1ee77a5b8dd,001,2024-06-07_12h11.42.765,empathy_intonation_perc,2024.1.4,Win32,60.24096386,,,,,,,,,,,,,,110,vacapó,,,,,,90.6819,91.38,1,0,0.1671,,0,31,31,109,1,pseudoword,0,REAL,FALSA
,,,,,,,,,630f9d70f86ca1ee77a5b8dd,001,2024-06-07_12h11.42.765,empathy_intonation_perc,2024.1.4,Win32,60.24096386,,,,,,,,,,,,,,116,crene,,,,,,91.3811,92.0303,0,1,0.1215,,0,32,32,115,1,pseudoword,0,REAL,FALSA
,,,,,,,,,630f9d70f86ca1ee77a5b8dd,001,2024-06-07_12h11.42.765,empathy_intonation_perc,2024.1.4,Win32,60.24096386,,,,,,,,,,,,,,26,enigma,,,,,,92.0307,92.6954,1,0,0.1322,,0,33,33,25,1,two_way_cognate,1,REAL,FALSA
,,,,,,,,,630f9d70f86ca1ee77a5b8dd,001,2024-06-07_12h11.42.765,empathy_intonation_perc,2024.1.4,Win32,60.24096386,,,,,,,,,,,,,,10,golf,,,,,,92.6965,93.3288,1,0,0.0989,,0,34,34,9,1,three_way_cognate,1,REAL,FALSA
,,,,,,,,,630f9d70f86ca1ee77a5b8dd,001,2024-06-07_12h11.42.765,empathy_intonation_perc,2024.1.4,Win32,60.24096386,,,,,,,,,,,,,,7,kilo,,,,,,93.3291,93.9114,1,0,0.0524,,0,35,35,6,1,three_way_cognate,1,REAL,FALSA
,,,,,,,,,630f9d70f86ca1ee77a5b8dd,001,2024-06-07_12h11.42.765,empathy_intonation_perc,2024.1.4,Win32,60.24096386,,,,,,,,,,,,,,106,baurá,,,,,,93.9117,94.5112,1,0,0.0664,,0,36,36,105,1,pseudoword,0,REAL,FALSA
,,,,,,,,,630f9d70f86ca1ee77a5b8dd,001,2024-06-07_12h11.42.765,empathy_intonation_perc,2024.1.4,Win32,60.24096386,,,,,,,,,,,,,,67,llamar,,,,,,94.5116,95.1427,1,0,0.0992,,0,37,37,66,1,non_cognate,1,REAL,FALSA
,,,,,,,,,630f9d70f86ca1ee77a5b8dd,001,2024-06-07_12h11.42.765,empathy_intonation_perc,2024.1.4,Win32,60.24096386,,,,,,,,,,,,,,81,sacar,,,,,,95.1436,95.7757,1,0,0.1022,,0,38,38,80,1,non_cognate,1,REAL,FALSA
,,,,,,,,,630f9d70f86ca1ee77a5b8dd,001,2024-06-07_12h11.42.765,empathy_intonation_perc,2024.1.4,Win32,60.24096386,,,,,,,,,,,,,,14,test,,,,,,95.7763,96.4919,1,0,0.1828,,0,39,39,13,1,three_way_cognate,1,REAL,FALSA
,,,,,,,,,630f9d70f86ca1ee77a5b8dd,001,2024-06-07_12h11.42.765,empathy_intonation_perc,2024.1.4,Win32,60.24096386,,,,,,,,,,,,,,121,rombar,,,,,,96.4924,97.1745,1,0,0.1495,,0,40,40,120,1,pseudoword,0,REAL,FALSA
,,,,,,,,,630f9d70f86ca1ee77a5b8dd,001,2024-06-07_12h11.42.765,empathy_intonation_perc,2024.1.4,Win32,60.24096386,,,,,,,,,,,,,,72,rostro,,,,,,97.1748,97.8722,1,0,0.167,,0,41,41,71,1,non_cognate,1,REAL,FALSA
,,,,,,,,,630f9d70f86ca1ee77a5b8dd,001,2024-06-07_12h11.42.765,empathy_intonation_perc,2024.1.4,Win32,60.24096386,,,,,,,,,,,,,,34,actor,,,,,,97.8725,98.5895,1,0,0.184,,0,42,42,33,1,two_way_cognate,1,REAL,FALSA
,,,,,,,,,630f9d70f86ca1ee77a5b8dd,001,2024-06-07_12h11.42.765,empathy_intonation_perc,2024.1.4,Win32,60.24096386,,,,,,,,,,,,,,13,aura,,,,,,98.5899,99.3705,1,0,0.2498,,0,43,43,12,1,three_way_cognate,1,REAL,FALSA
,,,,,,,,,630f9d70f86ca1ee77a5b8dd,001,2024-06-07_12h11.42.765,empathy_intonation_perc,2024.1.4,Win32,60.24096386,,,,,,,,,,,,,,20,hotel,,,,,,99.3711,100.1363,1,0,0.2335,,0,44,44,19,1,three_way_cognate,1,REAL,FALSA
,,,,,,,,,630f9d70f86ca1ee77a5b8dd,001,2024-06-07_12h11.42.765,empathy_intonation_perc,2024.1.4,Win32,60.24096386,,,,,,,,,,,,,,4,extra,,,,,,100.1371,100.8532,0,1,0.1834,,0,45,45,3,1,three_way_cognate,1,REAL,FALSA
,,,,,,,,,630f9d70f86ca1ee77a5b8dd,001,2024-06-07_12h11.42.765,empathy_intonation_perc,2024.1.4,Win32,60.24096386,,,,,,,,,,,,,,2,disco,,,,,,100.8539,101.6025,1,0,0.2163,,0,46,46,1,1,three_way_cognate,1,REAL,FALSA
,,,,,,,,,630f9d70f86ca1ee77a5b8dd,001,2024-06-07_12h11.42.765,empathy_intonation_perc,2024.1.4,Win32,60.24096386,,,,,,,,,,,,,,25,vigor,,,,,,101.6028,102.3017,1,0,0.1658,,0,47,47,24,1,two_way_cognate,1,REAL,FALSA
,,,,,,,,,630f9d70f86ca1ee77a5b8dd,001,2024-06-07_12h11.42.765,empathy_intonation_perc,2024.1.4,Win32,60.24096386,,,,,,,,,,,,,,101,fertes,,,,,,102.3021,102.9846,1,0,0.1553,,0,48,48,100,1,pseudoword,0,REAL,FALSA
,,,,,,,,,630f9d70f86ca1ee77a5b8dd,001,2024-06-07_12h11.42.765,empathy_intonation_perc,2024.1.4,Win32,60.24096386,,,,,,,,,,,,,,132,nocó,,,,,,102.9849,103.7332,1,0,0.2159,,0,49,49,131,1,pseudoword,0,REAL,FALSA
,,,,,,,,,630f9d70f86ca1ee77a5b8dd,001,2024-06-07_12h11.42.765,empathy_intonation_perc,2024.1.4,Win32,60.24096386,,,,,,,,,,,,,,136,sopleó,,,,,,103.7338,104.3663,1,0,0.0998,,0,50,50,135,1,pseudoword,0,REAL,FALSA
,,,,,,,,,630f9d70f86ca1ee77a5b8dd,001,2024-06-07_12h11.42.765,empathy_intonation_perc,2024.1.4,Win32,60.24096386,,,,,,,,,,,,,,41,pasta,,,,,,104.3667,105.0649,1,0,0.1658,,0,51,51,40,1,two_way_cognate,1,REAL,FALSA
,,,,,,,,,630f9d70f86ca1ee77a5b8dd,001,2024-06-07_12h11.42.765,empathy_intonation_perc,2024.1.4,Win32,60.24096386,,,,,,,,,,,,,,130,dubo,,,,,,105.0656,105.6467,1,0,0.0494,,0,52,52,129,1,pseudoword,0,REAL,FALSA
,,,,,,,,,630f9d70f86ca1ee77a5b8dd,001,2024-06-07_12h11.42.765,empathy_intonation_perc,2024.1.4,Win32,60.24096386,,,,,,,,,,,,,,120,hierno,,,,,,105.6471,106.4802,1,0,0.2991,,0,53,53,119,1,pseudoword,0,REAL,FALSA
,,,,,,,,,630f9d70f86ca1ee77a5b8dd,001,2024-06-07_12h11.42.765,empathy_intonation_perc,2024.1.4,Win32,60.24096386,,,,,,,,,,,,,,27,piano,,,,,,106.4806,107.3947,1,0,0.382,,0,54,54,26,1,two_way_cognate,1,REAL,FALSA
,,,,,,,,,630f9d70f86ca1ee77a5b8dd,001,2024-06-07_12h11.42.765,empathy_intonation_perc,2024.1.4,Win32,60.24096386,,,,,,,,,,,,,,94,forro,,,,,,107.395,108.7441,0,1,0.8316,,0,55,55,93,1,non_cognate,1,REAL,FALSA
,,,,,,,,,630f9d70f86ca1ee77a5b8dd,001,2024-06-07_12h11.42.765,empathy_intonation_perc,2024.1.4,Win32,60.24096386,,,,,,,,,,,,,,113,difrás,,,,,,108.7448,109.8267,1,0,0.5511,,0,56,56,112,1,pseudoword,0,REAL,FALSA
,,,,,,,,,630f9d70f86ca1ee77a5b8dd,001,2024-06-07_12h11.42.765,empathy_intonation_perc,2024.1.4,Win32,60.24096386,,,,,,,,,,,,,,65,guerra,,,,,,109.8269,110.7423,1,0,0.3834,,0,57,57,64,1,non_cognate,1,REAL,FALSA
,,,,,,,,,630f9d70f86ca1ee77a5b8dd,001,2024-06-07_12h11.42.765,empathy_intonation_perc,2024.1.4,Win32,60.24096386,,,,,,,,,,,,,,111,vibler,,,,,,110.7427,111.5246,0,1,0.2514,,0,58,58,110,1,pseudoword,0,REAL,FALSA
,,,,,,,,,630f9d70f86ca1ee77a5b8dd,001,2024-06-07_12h11.42.765,empathy_intonation_perc,2024.1.4,Win32,60.24096386,,,,,,,,,,,,,,88,percha,,,,,,111.5251,112.4737,1,0,0.4156,,0,59,59,87,1,non_cognate,1,REAL,FALSA
,,,,,,,,,630f9d70f86ca1ee77a5b8dd,001,2024-06-07_12h11.42.765,empathy_intonation_perc,2024.1.4,Win32,60.24096386,,,,,,,,,,,,,,35,aurora,,,,,,112.474,113.3561,0,1,0.3496,,0,60,60,34,1,two_way_cognate,1,REAL,FALSA
,,,,,,,,,630f9d70f86ca1ee77a5b8dd,001,2024-06-07_12h11.42.765,empathy_intonation_perc,2024.1.4,Win32,60.24096386,,,,,,,,,,,,,,75,patada,,,,,,113.3563,114.3383,1,0,0.4486,,0,61,61,74,1,non_cognate,1,REAL,FALSA
,,,,,,,,,630f9d70f86ca1ee77a5b8dd,001,2024-06-07_12h11.42.765,empathy_intonation_perc,2024.1.4,Win32,60.24096386,,,,,,,,,,,,,,57,regalo,,,,,,114.3386,116.4525,0,1,1.5808,,0,62,62,56,1,non_cognate,1,REAL,FALSA
,,,,,,,,,630f9d70f86ca1ee77a5b8dd,001,2024-06-07_12h11.42.765,empathy_intonation_perc,2024.1.4,Win32,60.24096386,,,,,,,,,,,,,,22,plural,,,,,,116.453,119.9986,0,1,3.0129,,0,63,63,21,1,three_way_cognate,1,REAL,FALSA
,,,,,,,,,630f9d70f86ca1ee77a5b8dd,001,2024-06-07_12h11.42.765,empathy_intonation_perc,2024.1.4,Win32,60.24096386,,,,,,,,,,,,,,48,pelvis,,,,,,120.0078,124.4922,1,0,3.9615,,0,64,64,47,1,two_way_cognate,1,REAL,FALSA
,,,,,,,,,630f9d70f86ca1ee77a5b8dd,001,2024-06-07_12h11.42.765,empathy_intonation_perc,2024.1.4,Win32,60.24096386,,,,,,,,,,,,,,32,animal,,,,,,124.5016,125.6579,1,0,0.6314,,0,65,65,31,1,two_way_cognate,1,REAL,FALSA
,,,,,,,,,630f9d70f86ca1ee77a5b8dd,001,2024-06-07_12h11.42.765,empathy_intonation_perc,2024.1.4,Win32,60.24096386,,,,,,,,,,,,,,131,fuar,,,,,,125.659,127.0396,0,1,0.8426,,0,66,66,130,1,pseudoword,0,REAL,FALSA
,,,,,,,,,630f9d70f86ca1ee77a5b8dd,001,2024-06-07_12h11.42.765,empathy_intonation_perc,2024.1.4,Win32,60.24096386,,,,,,,,,,,,,,135,macayó,,,,,,127.0406,130.4865,1,0,2.9055,,0,67,67,134,1,pseudoword,0,REAL,FALSA
,,,,,,,,,630f9d70f86ca1ee77a5b8dd,001,2024-06-07_12h11.42.765,empathy_intonation_perc,2024.1.4,Win32,60.24096386,,,,,,,,,,,,,,95,listo,,,,,,130.4958,132.6995,0,1,1.6812,,0,68,68,94,1,non_cognate,1,REAL,FALSA
,,,,,,,,,630f9d70f86ca1ee77a5b8dd,001,2024-06-07_12h11.42.765,empathy_intonation_perc,2024.1.4,Win32,60.24096386,,,,,,,,,,,,,,47,color,,,,,,132.6998,135.0634,1,0,1.8311,,0,69,69,46,1,two_way_cognate,1,REAL,FALSA
,,,,,,,,,630f9d70f86ca1ee77a5b8dd,001,2024-06-07_12h11.42.765,empathy_intonation_perc,2024.1.4,Win32,60.24096386,,,,,,,,,,,,,,8,portal,,,,,,135.0641,136.3635,1,0,0.7836,,0,70,70,7,1,three_way_cognate,1,REAL,FALSA
,,,,,,,,,630f9d70f86ca1ee77a5b8dd,001,2024-06-07_12h11.42.765,empathy_intonation_perc,2024.1.4,Win32,60.24096386,,,,,,,,,,,,,,29,clamor,,,,,,136.3638,137.3783,0,1,0.4822,,0,71,71,28,1,two_way_cognate,1,REAL,FALSA
,,,,,,,,,630f9d70f86ca1ee77a5b8dd,001,2024-06-07_12h11.42.765,empathy_intonation_perc,2024.1.4,Win32,60.24096386,,,,,,,,,,,,,,56,pico,,,,,,137.379,138.6429,0,1,0.7345,,0,72,72,55,1,non_cognate,1,REAL,FALSA
,,,,,,,,,630f9d70f86ca1ee77a5b8dd,001,2024-06-07_12h11.42.765,empathy_intonation_perc,2024.1.4,Win32,60.24096386,,,,,,,,,,,,,,125,ceme,,,,,,138.6436,140.1413,1,0,0.9646,,0,73,73,124,1,pseudoword,0,REAL,FALSA
,,,,,,,,,630f9d70f86ca1ee77a5b8dd,001,2024-06-07_12h11.42.765,empathy_intonation_perc,2024.1.4,Win32,60.24096386,,,,,,,,,,,,,,127,vien,,,,,,140.1421,141.191,1,0,0.519,,0,74,74,126,1,pseudoword,0,REAL,FALSA
,,,,,,,,,630f9d70f86ca1ee77a5b8dd,001,2024-06-07_12h11.42.765,empathy_intonation_perc,2024.1.4,Win32,60.24096386,,,,,,,,,,,,,,46,mortal,,,,,,141.1915,142.3067,0,1,0.5824,,0,75,75,45,1,two_way_cognate,1,REAL,FALSA
,,,,,,,,,630f9d70f86ca1ee77a5b8dd,001,2024-06-07_12h11.42.765,empathy_intonation_perc,2024.1.4,Win32,60.24096386,,,,,,,,,,,,,,69,tiza,,,,,,142.3069,145.3862,1,0,2.5463,,0,76,76,68,1,non_cognate,1,REAL,FALSA
,,,,,,,,,630f9d70f86ca1ee77a5b8dd,001,2024-06-07_12h11.42.765,empathy_intonation_perc,2024.1.4,Win32,60.24096386,,,,,,,,,,,,,,53,punta,,,,,,145.3964,146.6684,1,0,0.7506,,0,77,77,52,1,non_cognate,1,REAL,FALSA
,,,,,,,,,630f9d70f86ca1ee77a5b8dd,001,2024-06-07_12h11.42.765,empathy_intonation_perc,2024.1.4,Win32,60.24096386,,,,,,,,,,,,,,24,retina,,,,,,146.6686,153.4443,1,0,6.2482,,0,78,78,23,1,three_way_cognate,1,REAL,FALSA
,,,,,,,,,630f9d70f86ca1ee77a5b8dd,001,2024-06-07_12h11.42.765,empathy_intonation_perc,2024.1.4,Win32,60.24096386,,,,,,,,,,,,,,92,flecha,,,,,,153.4545,154.4596,0,1,0.4866,,0,79,79,91,1,non_cognate,1,REAL,FALSA
,,,,,,,,,630f9d70f86ca1ee77a5b8dd,001,2024-06-07_12h11.42.765,empathy_intonation_perc,2024.1.4,Win32,60.24096386,,,,,,,,,,,,,,124,lobe,,,,,,154.4599,155.7403,0,1,0.7416,,0,80,80,123,1,pseudoword,0,REAL,FALSA
,,,,,,,,,630f9d70f86ca1ee77a5b8dd,001,2024-06-07_12h11.42.765,empathy_intonation_perc,2024.1.4,Win32,60.24096386,,,,,,,,,,,,,,140,vapen,,,,,,155.7412,156.6572,0,1,0.3746,,0,81,81,139,1,pseudoword,0,REAL,FALSA
,,,,,,,,,630f9d70f86ca1ee77a5b8dd,001,2024-06-07_12h11.42.765,empathy_intonation_perc,2024.1.4,Win32,60.24096386,,,,,,,,,,,,,,141,sumer,,,,,,156.6574,158.3548,1,0,1.1648,,0,82,82,140,1,pseudoword,0,REAL,FALSA
,,,,,,,,,630f9d70f86ca1ee77a5b8dd,001,2024-06-07_12h11.42.765,empathy_intonation_perc,2024.1.4,Win32,60.24096386,,,,,,,,,,,,,,61,aduana,,,,,,158.3553,159.7687,0,1,0.8819,,0,83,83,60,1,non_cognate,1,REAL,FALSA
,,,,,,,,,630f9d70f86ca1ee77a5b8dd,001,2024-06-07_12h11.42.765,empathy_intonation_perc,2024.1.4,Win32,60.24096386,,,,,,,,,,,,,,119,esís,,,,,,159.7692,161.2838,1,0,0.9978,,0,84,84,118,1,pseudoword,0,REAL,FALSA
,,,,,,,,,630f9d70f86ca1ee77a5b8dd,001,2024-06-07_12h11.42.765,empathy_intonation_perc,2024.1.4,Win32,60.24096386,,,,,,,,,,,,,,60,siglo,,,,,,161.2843,162.3675,0,1,0.5671,,0,85,85,59,1,non_cognate,1,REAL,FALSA
,,,,,,,,,630f9d70f86ca1ee77a5b8dd,001,2024-06-07_12h11.42.765,empathy_intonation_perc,2024.1.4,Win32,60.24096386,,,,,,,,,,,,,,42,rumor,,,,,,162.3678,163.499,0,1,0.5991,,0,86,86,41,1,two_way_cognate,1,REAL,FALSA
,,,,,,,,,630f9d70f86ca1ee77a5b8dd,001,2024-06-07_12h11.42.765,empathy_intonation_perc,2024.1.4,Win32,60.24096386,,,,,,,,,,,,,,74,ala,,,,,,163.4995,164.5486,1,0,0.5239,,0,87,87,73,1,non_cognate,1,REAL,FALSA
,,,,,,,,,630f9d70f86ca1ee77a5b8dd,001,2024-06-07_12h11.42.765,empathy_intonation_perc,2024.1.4,Win32,60.24096386,,,,,,,,,,,,,,82,brillo,,,,,,164.549,165.497,1,0,0.415,,0,88,88,81,1,non_cognate,1,REAL,FALSA
,,,,,,,,,630f9d70f86ca1ee77a5b8dd,001,2024-06-07_12h11.42.765,empathy_intonation_perc,2024.1.4,Win32,60.24096386,,,,,,,,,,,,,,36,viable,,,,,,165.4975,166.3949,0,1,0.3654,,0,89,89,35,1,two_way_cognate,1,REAL,FALSA
,,,,,,,,,630f9d70f86ca1ee77a5b8dd,001,2024-06-07_12h11.42.765,empathy_intonation_perc,2024.1.4,Win32,60.24096386,,,,,,,,,,,,,,39,casual,,,,,,166.3959,167.4101,1,0,0.4824,,0,90,90,38,1,two_way_cognate,1,REAL,FALSA
,,,,,,,,,630f9d70f86ca1ee77a5b8dd,001,2024-06-07_12h11.42.765,empathy_intonation_perc,2024.1.4,Win32,60.24096386,,,,,,,,,,,,,,19,trauma,,,,,,167.4109,169.2268,1,0,1.2892,,0,91,91,18,1,three_way_cognate,1,REAL,FALSA
,,,,,,,,,630f9d70f86ca1ee77a5b8dd,001,2024-06-07_12h11.42.765,empathy_intonation_perc,2024.1.4,Win32,60.24096386,,,,,,,,,,,,,,102,coyo,,,,,,169.2271,171.0742,1,0,1.3146,,0,92,92,101,1,pseudoword,0,REAL,FALSA
,,,,,,,,,630f9d70f86ca1ee77a5b8dd,001,2024-06-07_12h11.42.765,empathy_intonation_perc,2024.1.4,Win32,60.24096386,,,,,,,,,,,,,,114,potos,,,,,,171.0745,172.6376,1,0,1.0317,,0,93,93,113,1,pseudoword,0,REAL,FALSA
,,,,,,,,,630f9d70f86ca1ee77a5b8dd,001,2024-06-07_12h11.42.765,empathy_intonation_perc,2024.1.4,Win32,60.24096386,,,,,,,,,,,,,,71,torta,,,,,,172.6381,174.1539,1,0,0.9811,,0,94,94,70,1,non_cognate,1,REAL,FALSA
,,,,,,,,,630f9d70f86ca1ee77a5b8dd,001,2024-06-07_12h11.42.765,empathy_intonation_perc,2024.1.4,Win32,60.24096386,,,,,,,,,,,,,,78,rendir,,,,,,174.1542,175.3856,0,1,0.7015,,0,95,95,77,1,non_cognate,1,REAL,FALSA
,,,,,,,,,630f9d70f86ca1ee77a5b8dd,001,2024-06-07_12h11.42.765,empathy_intonation_perc,2024.1.4,Win32,60.24096386,,,,,,,,,,,,,,137,unglés,,,,,,175.3863,176.2836,0,1,0.3696,,0,96,96,136,1,pseudoword,0,REAL,FALSA
,,,,,,,,,630f9d70f86ca1ee77a5b8dd,001,2024-06-07_12h11.42.765,empathy_intonation_perc,2024.1.4,Win32,60.24096386,,,,,,,,,,,,,,40,pelvis,,,,,,176.2843,177.2171,0,1,0.3982,,0,97,97,39,1,two_way_cognate,1,REAL,FALSA
,,,,,,,,,630f9d70f86ca1ee77a5b8dd,001,2024-06-07_12h11.42.765,empathy_intonation_perc,2024.1.4,Win32,60.24096386,,,,,,,,,,,,,,18,mafia,,,,,,177.2174,178.1162,1,0,0.366,,0,98,98,17,1,three_way_cognate,1,REAL,FALSA
,,,,,,,,,630f9d70f86ca1ee77a5b8dd,001,2024-06-07_12h11.42.765,empathy_intonation_perc,2024.1.4,Win32,60.24096386,,,,,,,,,,,,,,115,civas,,,,,,178.1164,178.9658,1,0,0.3229,,0,99,99,114,1,pseudoword,0,REAL,FALSA
,,,,,,,,,630f9d70f86ca1ee77a5b8dd,001,2024-06-07_12h11.42.765,empathy_intonation_perc,2024.1.4,Win32,60.24096386,,,,,,,,,,,,,,23,porno,,,,,,178.9663,179.831,1,0,0.3379,,0,100,100,22,1,three_way_cognate,1,REAL,FALSA
,,,,,,,,,630f9d70f86ca1ee77a5b8dd,001,2024-06-07_12h11.42.765,empathy_intonation_perc,2024.1.4,Win32,60.24096386,,,,,,,,,,,,,,97,hufón,,,,,,179.8312,180.863,1,0,0.5018,,0,101,101,96,1,pseudoword,0,REAL,FALSA
,,,,,,,,,630f9d70f86ca1ee77a5b8dd,001,2024-06-07_12h11.42.765,empathy_intonation_perc,2024.1.4,Win32,60.24096386,,,,,,,,,,,,,,31,civil,,,,,,180.8634,182.244,1,0,0.8488,,0,102,102,30,1,two_way_cognate,1,REAL,FALSA
,,,,,,,,,630f9d70f86ca1ee77a5b8dd,001,2024-06-07_12h11.42.765,empathy_intonation_perc,2024.1.4,Win32,60.24096386,,,,,,,,,,,,,,66,aleta,,,,,,182.245,183.7918,1,0,1.0158,,0,103,103,65,1,non_cognate,1,REAL,FALSA
,,,,,,,,,630f9d70f86ca1ee77a5b8dd,001,2024-06-07_12h11.42.765,empathy_intonation_perc,2024.1.4,Win32,60.24096386,,,,,,,,,,,,,,11,dogma,,,,,,183.7929,185.3075,1,0,0.9823,,0,104,104,10,1,three_way_cognate,1,REAL,FALSA
,,,,,,,,,630f9d70f86ca1ee77a5b8dd,001,2024-06-07_12h11.42.765,empathy_intonation_perc,2024.1.4,Win32,60.24096386,,,,,,,,,,,,,,85,enorme,,,,,,185.3083,186.4235,1,0,0.5891,,0,105,105,84,1,non_cognate,1,REAL,FALSA
,,,,,,,,,630f9d70f86ca1ee77a5b8dd,001,2024-06-07_12h11.42.765,empathy_intonation_perc,2024.1.4,Win32,60.24096386,,,,,,,,,,,,,,58,colcha,,,,,,186.4238,187.3063,0,1,0.3503,,0,106,106,57,1,non_cognate,1,REAL,FALSA
,,,,,,,,,630f9d70f86ca1ee77a5b8dd,001,2024-06-07_12h11.42.765,empathy_intonation_perc,2024.1.4,Win32,60.24096386,,,,,,,,,,,,,,91,equipo,,,,,,187.3067,188.9868,1,0,1.1477,,0,107,107,90,1,non_cognate,1,REAL,FALSA
,,,,,,,,,630f9d70f86ca1ee77a5b8dd,001,2024-06-07_12h11.42.765,empathy_intonation_perc,2024.1.4,Win32,60.24096386,,,,,,,,,,,,,,37,torso,,,,,,188.9873,228.4084,1,0,38.8926,,0,108,108,36,1,two_way_cognate,1,REAL,FALSA
,,,,,,,,,630f9d70f86ca1ee77a5b8dd,001,2024-06-07_12h11.42.765,empathy_intonation_perc,2024.1.4,Win32,60.24096386,,,,,,,,,,,,,,144,piria,,,,,,228.4189,229.4245,0,1,0.4805,,0,109,109,143,1,pseudoword,0,REAL,FALSA
,,,,,,,,,630f9d70f86ca1ee77a5b8dd,001,2024-06-07_12h11.42.765,empathy_intonation_perc,2024.1.4,Win32,60.24096386,,,,,,,,,,,,,,79,suelo,,,,,,229.4249,230.7554,1,0,0.7914,,0,110,110,78,1,non_cognate,1,REAL,FALSA
,,,,,,,,,630f9d70f86ca1ee77a5b8dd,001,2024-06-07_12h11.42.765,empathy_intonation_perc,2024.1.4,Win32,60.24096386,,,,,,,,,,,,,,109,hágino,,,,,,230.7565,238.1146,1,0,6.8178,,0,111,111,108,1,pseudoword,0,REAL,FALSA
,,,,,,,,,630f9d70f86ca1ee77a5b8dd,001,2024-06-07_12h11.42.765,empathy_intonation_perc,2024.1.4,Win32,60.24096386,,,,,,,,,,,,,,17,altar,,,,,,238.1244,239.3304,1,0,0.6799,,0,112,112,16,1,three_way_cognate,1,REAL,FALSA
,,,,,,,,,630f9d70f86ca1ee77a5b8dd,001,2024-06-07_12h11.42.765,empathy_intonation_perc,2024.1.4,Win32,60.24096386,,,,,,,,,,,,,,80,cuenco,,,,,,239.3307,240.9271,1,0,1.0609,,0,113,113,79,1,non_cognate,1,REAL,FALSA
,,,,,,,,,630f9d70f86ca1ee77a5b8dd,001,2024-06-07_12h11.42.765,empathy_intonation_perc,2024.1.4,Win32,60.24096386,,,,,,,,,,,,,,142,viseña,,,,,,240.9277,241.8935,0,1,0.4252,,0,114,114,141,1,pseudoword,0,REAL,FALSA
,,,,,,,,,630f9d70f86ca1ee77a5b8dd,001,2024-06-07_12h11.42.765,empathy_intonation_perc,2024.1.4,Win32,60.24096386,,,,,,,,,,,,,,128,pelí,,,,,,241.8942,243.2425,0,1,0.8216,,0,115,115,127,1,pseudoword,0,REAL,FALSA
,,,,,,,,,630f9d70f86ca1ee77a5b8dd,001,2024-06-07_12h11.42.765,empathy_intonation_perc,2024.1.4,Win32,60.24096386,,,,,,,,,,,,,,62,pegar,,,,,,243.2428,244.2409,1,0,0.4665,,0,116,116,61,1,non_cognate,1,REAL,FALSA
,,,,,,,,,630f9d70f86ca1ee77a5b8dd,001,2024-06-07_12h11.42.765,empathy_intonation_perc,2024.1.4,Win32,60.24096386,,,,,,,,,,,,,,133,tirafa,,,,,,244.2414,245.2563,1,0,0.483,,0,117,117,132,1,pseudoword,0,REAL,FALSA
,,,,,,,,,630f9d70f86ca1ee77a5b8dd,001,2024-06-07_12h11.42.765,empathy_intonation_perc,2024.1.4,Win32,60.24096386,,,,,,,,,,,,,,108,viarle,,,,,,245.257,246.2876,0,1,0.499,,0,118,118,107,1,pseudoword,0,REAL,FALSA
,,,,,,,,,630f9d70f86ca1ee77a5b8dd,001,2024-06-07_12h11.42.765,empathy_intonation_perc,2024.1.4,Win32,60.24096386,,,,,,,,,,,,,,5,horror,,,,,,246.288,247.5543,1,0,0.7375,,0,119,119,4,1,three_way_cognate,1,REAL,FALSA
,,,,,,,,,630f9d70f86ca1ee77a5b8dd,001,2024-06-07_12h11.42.765,empathy_intonation_perc,2024.1.4,Win32,60.24096386,,,,,,,,,,,,,,129,suchas,,,,,,247.5546,249.1676,0,1,1.0817,,0,120,120,128,1,pseudoword,0,REAL,FALSA
,,,,,,,,,630f9d70f86ca1ee77a5b8dd,001,2024-06-07_12h11.42.765,empathy_intonation_perc,2024.1.4,Win32,60.24096386,,,,,,,,,,,,,,98,erede,,,,,,249.1681,250.4502,1,0,0.7519,,0,121,121,97,1,pseudoword,0,REAL,FALSA
,,,,,,,,,630f9d70f86ca1ee77a5b8dd,001,2024-06-07_12h11.42.765,empathy_intonation_perc,2024.1.4,Win32,60.24096386,,,,,,,,,,,,,,21,mango,,,,,,250.451,251.6149,0,1,0.632,,0,122,122,20,1,three_way_cognate,1,REAL,FALSA
,,,,,,,,,630f9d70f86ca1ee77a5b8dd,001,2024-06-07_12h11.42.765,empathy_intonation_perc,2024.1.4,Win32,60.24096386,,,,,,,,,,,,,,89,muñeca,,,,,,251.6154,253.0477,0,1,0.9148,,0,123,123,88,1,non_cognate,1,REAL,FALSA
,,,,,,,,,630f9d70f86ca1ee77a5b8dd,001,2024-06-07_12h11.42.765,empathy_intonation_perc,2024.1.4,Win32,60.24096386,,,,,,,,,,,,,,105,curgué,,,,,,253.0482,254.0953,1,0,0.5159,,0,124,124,104,1,pseudoword,0,REAL,FALSA
,,,,,,,,,630f9d70f86ca1ee77a5b8dd,001,2024-06-07_12h11.42.765,empathy_intonation_perc,2024.1.4,Win32,60.24096386,,,,,,,,,,,,,,112,cituló,,,,,,254.0957,255.1623,1,0,0.549,,0,125,125,111,1,pseudoword,0,REAL,FALSA
,,,,,,,,,630f9d70f86ca1ee77a5b8dd,001,2024-06-07_12h11.42.765,empathy_intonation_perc,2024.1.4,Win32,60.24096386,,,,,,,,,,,,,,84,aviso,,,,,,255.1627,258.474,1,0,2.7839,,0,126,126,83,1,non_cognate,1,REAL,FALSA
,,,,,,,,,630f9d70f86ca1ee77a5b8dd,001,2024-06-07_12h11.42.765,empathy_intonation_perc,2024.1.4,Win32,60.24096386,,,,,,,,,,,,,,30,fiscal,,,,,,258.4838,260.1898,0,1,1.1808,,0,127,127,29,1,two_way_cognate,1,REAL,FALSA
,,,,,,,,,630f9d70f86ca1ee77a5b8dd,001,2024-06-07_12h11.42.765,empathy_intonation_perc,2024.1.4,Win32,60.24096386,,,,,,,,,,,,,,123,escare,,,,,,260.1902,265.9836,1,0,5.264,,0,128,128,122,1,pseudoword,0,REAL,FALSA
,,,,,,,,,630f9d70f86ca1ee77a5b8dd,001,2024-06-07_12h11.42.765,empathy_intonation_perc,2024.1.4,Win32,60.24096386,,,,,,,,,,,,,,90,venado,,,,,,265.9925,267.0821,1,0,0.5651,,0,129,129,89,1,non_cognate,1,REAL,FALSA
,,,,,,,,,630f9d70f86ca1ee77a5b8dd,001,2024-06-07_12h11.42.765,empathy_intonation_perc,2024.1.4,Win32,60.24096386,,,,,,,,,,,,,,93,tapa,,,,,,267.0825,268.0966,1,0,0.4752,,0,130,130,92,1,non_cognate,1,REAL,FALSA
,,,,,,,,,630f9d70f86ca1ee77a5b8dd,001,2024-06-07_12h11.42.765,empathy_intonation_perc,2024.1.4,Win32,60.24096386,,,,,,,,,,,,,,99,mieris,,,,,,268.0973,269.4292,0,1,0.7906,,0,131,131,98,1,pseudoword,0,REAL,FALSA
,,,,,,,,,630f9d70f86ca1ee77a5b8dd,001,2024-06-07_12h11.42.765,empathy_intonation_perc,2024.1.4,Win32,60.24096386,,,,,,,,,,,,,,3,flora,,,,,,269.4297,271.46,1,0,1.4977,,0,132,132,2,1,three_way_cognate,1,REAL,FALSA
,,,,,,,,,630f9d70f86ca1ee77a5b8dd,001,2024-06-07_12h11.42.765,empathy_intonation_perc,2024.1.4,Win32,60.24096386,,,,,,,,,,,,,,96,caro,,,,,,271.4607,274.389,1,0,2.3971,,0,133,133,95,1,non_cognate,1,REAL,FALSA
,,,,,,,,,630f9d70f86ca1ee77a5b8dd,001,2024-06-07_12h11.42.765,empathy_intonation_perc,2024.1.4,Win32,60.24096386,,,,,,,,,,,,,,76,chocar,,,,,,274.3894,275.5393,1,0,0.6156,,0,134,134,75,1,non_cognate,1,REAL,FALSA
,,,,,,,,,630f9d70f86ca1ee77a5b8dd,001,2024-06-07_12h11.42.765,empathy_intonation_perc,2024.1.4,Win32,60.24096386,,,,,,,,,,,,,,43,honor,,,,,,275.5396,277.171,0,1,1.1009,,0,135,135,42,1,two_way_cognate,1,REAL,FALSA
,,,,,,,,,630f9d70f86ca1ee77a5b8dd,001,2024-06-07_12h11.42.765,empathy_intonation_perc,2024.1.4,Win32,60.24096386,,,,,,,,,,,,,,55,maldad,,,,,,277.1713,279.8178,1,0,2.1168,,0,136,136,54,1,non_cognate,1,REAL,FALSA
,,,,,,,,,630f9d70f86ca1ee77a5b8dd,001,2024-06-07_12h11.42.765,empathy_intonation_perc,2024.1.4,Win32,60.24096386,,,,,,,,,,,,,,45,total,,,,,,279.8181,280.9162,1,0,0.5706,,0,137,137,44,1,two_way_cognate,1,REAL,FALSA
,,,,,,,,,630f9d70f86ca1ee77a5b8dd,001,2024-06-07_12h11.42.765,empathy_intonation_perc,2024.1.4,Win32,60.24096386,,,,,,,,,,,,,,73,llevar,,,,,,280.9167,282.3817,1,0,0.9345,,0,138,138,72,1,non_cognate,1,REAL,FALSA
,,,,,,,,,630f9d70f86ca1ee77a5b8dd,001,2024-06-07_12h11.42.765,empathy_intonation_perc,2024.1.4,Win32,60.24096386,,,,,,,,,,,,,,52,blando,,,,,,282.3821,284.4451,1,0,1.5312,,0,139,139,51,1,non_cognate,1,REAL,FALSA
,,,,,,,,,630f9d70f86ca1ee77a5b8dd,001,2024-06-07_12h11.42.765,empathy_intonation_perc,2024.1.4,Win32,60.24096386,,,,,,,,,,,,,,64,rizado,,,,,,284.446,286.7099,1,0,1.7308,,0,140,140,63,1,non_cognate,1,REAL,FALSA
,,,,,,,,,630f9d70f86ca1ee77a5b8dd,001,2024-06-07_12h11.42.765,empathy_intonation_perc,2024.1.4,Win32,60.24096386,,,,,,,,,,,,,,103,babes,,,,,,286.7193,289.773,1,0,2.5292,,0,141,141,102,1,pseudoword,0,REAL,FALSA
,,,,,,,,,630f9d70f86ca1ee77a5b8dd,001,2024-06-07_12h11.42.765,empathy_intonation_perc,2024.1.4,Win32,60.24096386,,,,,,,,,,,,,,9,drama,,,,,,289.7734,290.9719,0,1,0.6703,,0,142,142,8,1,three_way_cognate,1,REAL,FALSA
,,,,,,,,,630f9d70f86ca1ee77a5b8dd,001,2024-06-07_12h11.42.765,empathy_intonation_perc,2024.1.4,Win32,60.24096386,,,,,,,,,,,,,,117,apunan,,,,,,290.9722,294.2999,1,0,2.7969,,0,143,143,116,1,pseudoword,0,REAL,FALSA
