lextale_instructions.started,lextale_instructions.stopped,lextale_instructions_loop.thisRepN,lextale_instructions_loop.thisTrialN,lextale_instructions_loop.thisN,lextale_instructions_loop.thisIndex,lextale_instructions_loop.ran,instructions_text,continue_text,participant,session,date,expName,psychopyVersion,OS,frameRate,lextale_practice.started,lextale_practice.stopped,key_resp_lextale_practice.keys,key_resp_lextale_practice.corr,key_resp_lextale_practice.rt,key_resp_lextale_practice.duration,lextale_practice_feedback.started,lextale_practice_feedback.stopped,lextale_practice_trials.thisRepN,lextale_practice_trials.thisTrialN,lextale_practice_trials.thisN,lextale_practice_trials.thisIndex,lextale_practice_trials.ran,stim,word,correct_response,prac_button_real,prac_button_false,lextale_check.started,lextale_check.stopped,lextale_trial.started,lextale_trial.stopped,key_resp_lextale_trial.keys,key_resp_lextale_trial.corr,key_resp_lextale_trial.rt,key_resp_lextale_trial.duration,lextail_trials.thisRepN,lextail_trials.thisTrialN,lextail_trials.thisN,lextail_trials.thisIndex,lextail_trials.ran,type,correct_reponse,button_real,button_false
0.0031,11.8091,0,0,0,0,1,"Este es un test de vocabulario en español. 
  
  A continuación vas a ver 90 secuencias de letras que parecen 'españolas'.
  
  Solo algunas de ellas son palabras de verdad.",(presiona la barra espaciadora para continuar),637d4793730be3ac44f5a4a5,001,2024-06-03_09h42.30.138,empathy_intonation_perc,2024.1.4,Win32,59.88023952,,,,,,,,,,,,,,,,,,,,,,,,,,,,,,,,,,,
11.8096,12.4413,0,1,1,1,1,"Por favor, señala las palabras que tú conoces (aquellas que estás convencido que son palabras españolas, incluso aunque no seas capaz de dar el significado preciso).",(presiona la barra espaciadora para continuar),637d4793730be3ac44f5a4a5,001,2024-06-03_09h42.30.138,empathy_intonation_perc,2024.1.4,Win32,59.88023952,,,,,,,,,,,,,,,,,,,,,,,,,,,,,,,,,,,
12.4415,12.8745,0,2,2,2,1,Pero cuidado: los errores se penalizan. Por eso no tiene sentido tratar de incrementar tu puntuación marcando como reales palabras que nunca has visto.,(presiona la barra espaciadora para continuar),637d4793730be3ac44f5a4a5,001,2024-06-03_09h42.30.138,empathy_intonation_perc,2024.1.4,Win32,59.88023952,,,,,,,,,,,,,,,,,,,,,,,,,,,,,,,,,,,
12.875,13.2075,0,3,3,3,1,"Presiona la tecla 1 si piensas que es una palabra real y la tecla 
  0 si piensas que es una palabra falsa. 
  
  Vamos a practicar un poco...",(presiona la barra espaciadora para continuar),637d4793730be3ac44f5a4a5,001,2024-06-03_09h42.30.138,empathy_intonation_perc,2024.1.4,Win32,59.88023952,,,,,,,,,,,,,,,,,,,,,,,,,,,,,,,,,,,
,,,,,,,,,637d4793730be3ac44f5a4a5,001,2024-06-03_09h42.30.138,empathy_intonation_perc,2024.1.4,Win32,59.88023952,13.21,34.0132,1,0,20.2803,,34.0134,35.0126,0,0,0,0,1,0,depiste,0,REAL,FALSA,,,,,,,,,,,,,,,,,
,,,,,,,,,637d4793730be3ac44f5a4a5,001,2024-06-03_09h42.30.138,empathy_intonation_perc,2024.1.4,Win32,59.88023952,35.0128,36.1455,0,0,0.6072,,36.1455,37.1445,0,1,1,1,1,0,sí,1,REAL,FALSA,,,,,,,,,,,,,,,,,
,,,,,,,,,637d4793730be3ac44f5a4a5,001,2024-06-03_09h42.30.138,empathy_intonation_perc,2024.1.4,Win32,59.88023952,37.1449,37.7945,0,1,0.1169,,37.7946,38.7938,0,2,2,2,1,0,coné,0,REAL,FALSA,,,,,,,,,,,,,,,,,
,,,,,,,,,637d4793730be3ac44f5a4a5,001,2024-06-03_09h42.30.138,empathy_intonation_perc,2024.1.4,Win32,59.88023952,38.794,39.4765,0,1,0.1477,,39.4765,40.476,0,3,3,3,1,0,calpar,0,REAL,FALSA,,,,,,,,,,,,,,,,,
,,,,,,,,,637d4793730be3ac44f5a4a5,001,2024-06-03_09h42.30.138,empathy_intonation_perc,2024.1.4,Win32,59.88023952,40.4762,41.1593,0,1,0.1506,,41.1594,42.1585,0,4,4,4,1,0,joten,0,REAL,FALSA,,,,,,,,,,,,,,,,,
,,,,,,,,,637d4793730be3ac44f5a4a5,001,2024-06-03_09h42.30.138,empathy_intonation_perc,2024.1.4,Win32,59.88023952,42.1589,42.8248,0,0,0.1308,,42.8249,43.8247,0,5,5,5,1,0,sacapuntas,1,REAL,FALSA,,,,,,,,,,,,,,,,,
,,,,,,,,,637d4793730be3ac44f5a4a5,001,2024-06-03_09h42.30.138,empathy_intonation_perc,2024.1.4,Win32,59.88023952,43.8251,44.474,0,1,0.1243,,44.4741,45.4738,0,6,6,6,1,0,priba,0,REAL,FALSA,,,,,,,,,,,,,,,,,
,,,,,,,,,637d4793730be3ac44f5a4a5,001,2024-06-03_09h42.30.138,empathy_intonation_perc,2024.1.4,Win32,59.88023952,45.4742,46.0231,0,1,0.0252,,46.0231,47.0226,0,7,7,7,1,0,pelasula,0,REAL,FALSA,,,,,,,,,,,,,,,,,
,,,,,,,,,637d4793730be3ac44f5a4a5,001,2024-06-03_09h42.30.138,empathy_intonation_perc,2024.1.4,Win32,59.88023952,47.023,47.8058,0,0,0.2525,,47.8058,48.8052,0,8,8,8,1,0,bien,1,REAL,FALSA,,,,,,,,,,,,,,,,,
,,,,,,,,,637d4793730be3ac44f5a4a5,001,2024-06-03_09h42.30.138,empathy_intonation_perc,2024.1.4,Win32,59.88023952,48.8056,49.4712,0,0,0.1416,,49.4713,50.4707,0,9,9,9,1,0,casa,1,REAL,FALSA,,,,,,,,,,,,,,,,,
,,,,,,,,,637d4793730be3ac44f5a4a5,001,2024-06-03_09h42.30.138,empathy_intonation_perc,2024.1.4,Win32,59.88023952,50.4711,54.6353,0,1,3.6289,,54.6354,55.6345,0,10,10,10,1,0,lejo,0,REAL,FALSA,,,,,,,,,,,,,,,,,
,,,,,,,,,637d4793730be3ac44f5a4a5,001,2024-06-03_09h42.30.138,empathy_intonation_perc,2024.1.4,Win32,59.88023952,55.6418,56.5837,0,1,0.4218,,56.5837,57.5841,0,11,11,11,1,0,pretantas,0,REAL,FALSA,,,,,,,,,,,,,,,,,
,,,,,,,,,637d4793730be3ac44f5a4a5,001,2024-06-03_09h42.30.138,empathy_intonation_perc,2024.1.4,Win32,59.88023952,,,,,,,,,,,,,,,,,,,57.5848,72.0754,,,,,,,,,,,,,,,
,,,,,,,,,637d4793730be3ac44f5a4a5,001,2024-06-03_09h42.30.138,empathy_intonation_perc,2024.1.4,Win32,59.88023952,,,,,,,,,,,,,,75,babrá,,,,,,72.0867,73.1087,0,1,0.5095,,0,0,0,74,1,pseudoword,0,REAL,FALSA
,,,,,,,,,637d4793730be3ac44f5a4a5,001,2024-06-03_09h42.30.138,empathy_intonation_perc,2024.1.4,Win32,59.88023952,,,,,,,,,,,,,,9,limbo,,,,,,73.1091,73.7746,0,1,0.1402,,0,1,1,8,1,three_way_cognate,1,REAL,FALSA
,,,,,,,,,637d4793730be3ac44f5a4a5,001,2024-06-03_09h42.30.138,empathy_intonation_perc,2024.1.4,Win32,59.88023952,,,,,,,,,,,,,,30,llamar,,,,,,73.7749,74.4573,0,1,0.1605,,0,2,2,29,1,non_cognate,1,REAL,FALSA
,,,,,,,,,637d4793730be3ac44f5a4a5,001,2024-06-03_09h42.30.138,empathy_intonation_perc,2024.1.4,Win32,59.88023952,,,,,,,,,,,,,,4,chip,,,,,,74.4575,75.1906,0,1,0.1986,,0,3,3,3,1,three_way_cognate,1,REAL,FALSA
,,,,,,,,,637d4793730be3ac44f5a4a5,001,2024-06-03_09h42.30.138,empathy_intonation_perc,2024.1.4,Win32,59.88023952,,,,,,,,,,,,,,66,clazas,,,,,,75.191,75.9066,0,1,0.1881,,0,4,4,65,1,pseudoword,0,REAL,FALSA
,,,,,,,,,637d4793730be3ac44f5a4a5,001,2024-06-03_09h42.30.138,empathy_intonation_perc,2024.1.4,Win32,59.88023952,,,,,,,,,,,,,,47,alivio,,,,,,75.9069,76.6395,0,1,0.2063,,0,5,5,46,1,non_cognate,1,REAL,FALSA
,,,,,,,,,637d4793730be3ac44f5a4a5,001,2024-06-03_09h42.30.138,empathy_intonation_perc,2024.1.4,Win32,59.88023952,,,,,,,,,,,,,,52,coriar,,,,,,76.6399,77.4562,0,1,0.2814,,0,6,6,51,1,pseudoword,0,REAL,FALSA
,,,,,,,,,637d4793730be3ac44f5a4a5,001,2024-06-03_09h42.30.138,empathy_intonation_perc,2024.1.4,Win32,59.88023952,,,,,,,,,,,,,,18,honor,,,,,,77.4565,78.006,0,1,0.0149,,0,7,7,17,1,two_way_cognate,1,REAL,FALSA
,,,,,,,,,637d4793730be3ac44f5a4a5,001,2024-06-03_09h42.30.138,empathy_intonation_perc,2024.1.4,Win32,59.88023952,,,,,,,,,,,,,,84,jomas,,,,,,78.0064,78.5389,0,1,0.0003,,0,8,8,83,1,pseudoword,0,REAL,FALSA
,,,,,,,,,637d4793730be3ac44f5a4a5,001,2024-06-03_09h42.30.138,empathy_intonation_perc,2024.1.4,Win32,59.88023952,,,,,,,,,,,,,,87,racaer,,,,,,78.5392,79.1383,0,1,0.073,,0,9,9,86,1,pseudoword,0,REAL,FALSA
,,,,,,,,,637d4793730be3ac44f5a4a5,001,2024-06-03_09h42.30.138,empathy_intonation_perc,2024.1.4,Win32,59.88023952,,,,,,,,,,,,,,46,cumbre,,,,,,79.1385,79.7209,0,1,0.0612,,0,10,10,45,1,non_cognate,1,REAL,FALSA
,,,,,,,,,637d4793730be3ac44f5a4a5,001,2024-06-03_09h42.30.138,empathy_intonation_perc,2024.1.4,Win32,59.88023952,,,,,,,,,,,,,,63,aljizo,,,,,,79.7211,80.3541,0,1,0.098,,0,11,11,62,1,pseudoword,0,REAL,FALSA
,,,,,,,,,637d4793730be3ac44f5a4a5,001,2024-06-03_09h42.30.138,empathy_intonation_perc,2024.1.4,Win32,59.88023952,,,,,,,,,,,,,,77,toges,,,,,,80.3544,81.1371,0,1,0.2481,,0,12,12,76,1,pseudoword,0,REAL,FALSA
,,,,,,,,,637d4793730be3ac44f5a4a5,001,2024-06-03_09h42.30.138,empathy_intonation_perc,2024.1.4,Win32,59.88023952,,,,,,,,,,,,,,35,pájaro,,,,,,81.1374,82.0365,0,1,0.3658,,0,13,13,34,1,non_cognate,1,REAL,FALSA
,,,,,,,,,637d4793730be3ac44f5a4a5,001,2024-06-03_09h42.30.138,empathy_intonation_perc,2024.1.4,Win32,59.88023952,,,,,,,,,,,,,,20,total,,,,,,82.0368,82.6699,0,1,0.0995,,0,14,14,19,1,two_way_cognate,1,REAL,FALSA
,,,,,,,,,637d4793730be3ac44f5a4a5,001,2024-06-03_09h42.30.138,empathy_intonation_perc,2024.1.4,Win32,59.88023952,,,,,,,,,,,,,,36,visión,,,,,,82.6703,83.3025,0,1,0.0987,,0,15,15,35,1,non_cognate,1,REAL,FALSA
,,,,,,,,,637d4793730be3ac44f5a4a5,001,2024-06-03_09h42.30.138,empathy_intonation_perc,2024.1.4,Win32,59.88023952,,,,,,,,,,,,,,81,rombar,,,,,,83.3028,83.9519,0,1,0.115,,0,16,16,80,1,pseudoword,0,REAL,FALSA
,,,,,,,,,637d4793730be3ac44f5a4a5,001,2024-06-03_09h42.30.138,empathy_intonation_perc,2024.1.4,Win32,59.88023952,,,,,,,,,,,,,,59,mandio,,,,,,83.9521,84.5687,0,1,0.0933,,0,17,17,58,1,pseudoword,0,REAL,FALSA
,,,,,,,,,637d4793730be3ac44f5a4a5,001,2024-06-03_09h42.30.138,empathy_intonation_perc,2024.1.4,Win32,59.88023952,,,,,,,,,,,,,,57,calto,,,,,,84.569,85.2681,0,1,0.1695,,0,18,18,56,1,pseudoword,0,REAL,FALSA
,,,,,,,,,637d4793730be3ac44f5a4a5,001,2024-06-03_09h42.30.138,empathy_intonation_perc,2024.1.4,Win32,59.88023952,,,,,,,,,,,,,,91,chote,,,,,,85.2684,85.9011,0,1,0.1079,,0,19,19,90,1,pseudoword,0,REAL,FALSA
,,,,,,,,,637d4793730be3ac44f5a4a5,001,2024-06-03_09h42.30.138,empathy_intonation_perc,2024.1.4,Win32,59.88023952,,,,,,,,,,,,,,67,huzas,,,,,,85.9014,86.5344,0,1,0.1077,,0,20,20,66,1,pseudoword,0,REAL,FALSA
,,,,,,,,,637d4793730be3ac44f5a4a5,001,2024-06-03_09h42.30.138,empathy_intonation_perc,2024.1.4,Win32,59.88023952,,,,,,,,,,,,,,88,hento,,,,,,86.5347,87.1676,0,1,0.0985,,0,21,21,87,1,pseudoword,0,REAL,FALSA
,,,,,,,,,637d4793730be3ac44f5a4a5,001,2024-06-03_09h42.30.138,empathy_intonation_perc,2024.1.4,Win32,59.88023952,,,,,,,,,,,,,,54,barbo,,,,,,87.1679,87.95,0,1,0.2503,,0,22,22,53,1,pseudoword,0,REAL,FALSA
,,,,,,,,,637d4793730be3ac44f5a4a5,001,2024-06-03_09h42.30.138,empathy_intonation_perc,2024.1.4,Win32,59.88023952,,,,,,,,,,,,,,26,hilo,,,,,,87.9504,88.5996,0,1,0.1174,,0,23,23,25,1,non_cognate,1,REAL,FALSA
,,,,,,,,,637d4793730be3ac44f5a4a5,001,2024-06-03_09h42.30.138,empathy_intonation_perc,2024.1.4,Win32,59.88023952,,,,,,,,,,,,,,90,duyo,,,,,,88.5999,89.3328,0,1,0.1976,,0,24,24,89,1,pseudoword,0,REAL,FALSA
,,,,,,,,,637d4793730be3ac44f5a4a5,001,2024-06-03_09h42.30.138,empathy_intonation_perc,2024.1.4,Win32,59.88023952,,,,,,,,,,,,,,6,horror,,,,,,89.3329,90.0655,0,1,0.2025,,0,25,25,5,1,three_way_cognate,1,REAL,FALSA
,,,,,,,,,637d4793730be3ac44f5a4a5,001,2024-06-03_09h42.30.138,empathy_intonation_perc,2024.1.4,Win32,59.88023952,,,,,,,,,,,,,,82,alla,,,,,,90.0657,90.7484,0,1,0.1557,,0,26,26,81,1,pseudoword,0,REAL,FALSA
,,,,,,,,,637d4793730be3ac44f5a4a5,001,2024-06-03_09h42.30.138,empathy_intonation_perc,2024.1.4,Win32,59.88023952,,,,,,,,,,,,,,86,abamos,,,,,,90.7486,91.3316,0,1,0.0503,,0,27,27,85,1,pseudoword,0,REAL,FALSA
,,,,,,,,,637d4793730be3ac44f5a4a5,001,2024-06-03_09h42.30.138,empathy_intonation_perc,2024.1.4,Win32,59.88023952,,,,,,,,,,,,,,28,debido,,,,,,91.332,92.1647,0,1,0.3022,,0,28,28,27,1,non_cognate,1,REAL,FALSA
,,,,,,,,,637d4793730be3ac44f5a4a5,001,2024-06-03_09h42.30.138,empathy_intonation_perc,2024.1.4,Win32,59.88023952,,,,,,,,,,,,,,27,pelado,,,,,,92.1652,93.0309,0,1,0.3332,,0,29,29,26,1,non_cognate,1,REAL,FALSA
,,,,,,,,,637d4793730be3ac44f5a4a5,001,2024-06-03_09h42.30.138,empathy_intonation_perc,2024.1.4,Win32,59.88023952,,,,,,,,,,,,,,96,brigan,,,,,,93.0315,93.7801,0,1,0.218,,0,30,30,95,1,pseudoword,0,REAL,FALSA
,,,,,,,,,637d4793730be3ac44f5a4a5,001,2024-06-03_09h42.30.138,empathy_intonation_perc,2024.1.4,Win32,59.88023952,,,,,,,,,,,,,,2,clan,,,,,,93.7803,94.4466,0,1,0.1375,,0,31,31,1,1,three_way_cognate,1,REAL,FALSA
,,,,,,,,,637d4793730be3ac44f5a4a5,001,2024-06-03_09h42.30.138,empathy_intonation_perc,2024.1.4,Win32,59.88023952,,,,,,,,,,,,,,83,monsos,,,,,,94.4468,94.9793,0,1,0.0098,,0,32,32,82,1,pseudoword,0,REAL,FALSA
,,,,,,,,,637d4793730be3ac44f5a4a5,001,2024-06-03_09h42.30.138,empathy_intonation_perc,2024.1.4,Win32,59.88023952,,,,,,,,,,,,,,68,hurmo,,,,,,94.9797,95.5626,0,1,0.0483,,0,33,33,67,1,pseudoword,0,REAL,FALSA
,,,,,,,,,637d4793730be3ac44f5a4a5,001,2024-06-03_09h42.30.138,empathy_intonation_perc,2024.1.4,Win32,59.88023952,,,,,,,,,,,,,,61,trip,,,,,,95.563,96.1454,0,1,0.0627,,0,34,34,60,1,pseudoword,0,REAL,FALSA
,,,,,,,,,637d4793730be3ac44f5a4a5,001,2024-06-03_09h42.30.138,empathy_intonation_perc,2024.1.4,Win32,59.88023952,,,,,,,,,,,,,,58,abunal,,,,,,96.1457,96.7951,0,1,0.1222,,0,35,35,57,1,pseudoword,0,REAL,FALSA
,,,,,,,,,637d4793730be3ac44f5a4a5,001,2024-06-03_09h42.30.138,empathy_intonation_perc,2024.1.4,Win32,59.88023952,,,,,,,,,,,,,,55,ropis,,,,,,96.7954,97.378,0,1,0.0481,,0,36,36,54,1,pseudoword,0,REAL,FALSA
,,,,,,,,,637d4793730be3ac44f5a4a5,001,2024-06-03_09h42.30.138,empathy_intonation_perc,2024.1.4,Win32,59.88023952,,,,,,,,,,,,,,74,mibro,,,,,,97.3783,97.9948,0,1,0.0821,,0,37,37,73,1,pseudoword,0,REAL,FALSA
,,,,,,,,,637d4793730be3ac44f5a4a5,001,2024-06-03_09h42.30.138,empathy_intonation_perc,2024.1.4,Win32,59.88023952,,,,,,,,,,,,,,31,campo,,,,,,97.9952,98.5607,0,1,0.0419,,0,38,38,30,1,non_cognate,1,REAL,FALSA
,,,,,,,,,637d4793730be3ac44f5a4a5,001,2024-06-03_09h42.30.138,empathy_intonation_perc,2024.1.4,Win32,59.88023952,,,,,,,,,,,,,,65,edidé,,,,,,98.561,99.144,0,1,0.0473,,0,39,39,64,1,pseudoword,0,REAL,FALSA
,,,,,,,,,637d4793730be3ac44f5a4a5,001,2024-06-03_09h42.30.138,empathy_intonation_perc,2024.1.4,Win32,59.88023952,,,,,,,,,,,,,,92,nasce,,,,,,99.1444,99.7601,0,1,0.0897,,0,40,40,91,1,pseudoword,0,REAL,FALSA
,,,,,,,,,637d4793730be3ac44f5a4a5,001,2024-06-03_09h42.30.138,empathy_intonation_perc,2024.1.4,Win32,59.88023952,,,,,,,,,,,,,,12,bar,,,,,,99.7604,100.3932,0,1,0.1075,,0,41,41,11,1,three_way_cognate,1,REAL,FALSA
,,,,,,,,,637d4793730be3ac44f5a4a5,001,2024-06-03_09h42.30.138,empathy_intonation_perc,2024.1.4,Win32,59.88023952,,,,,,,,,,,,,,56,qucrá,,,,,,100.3934,102.3089,0,1,1.3856,,0,42,42,55,1,pseudoword,0,REAL,FALSA
,,,,,,,,,637d4793730be3ac44f5a4a5,001,2024-06-03_09h42.30.138,empathy_intonation_perc,2024.1.4,Win32,59.88023952,,,,,,,,,,,,,,89,barezo,,,,,,102.3092,103.0083,0,1,0.1641,,0,43,43,88,1,pseudoword,0,REAL,FALSA
,,,,,,,,,637d4793730be3ac44f5a4a5,001,2024-06-03_09h42.30.138,empathy_intonation_perc,2024.1.4,Win32,59.88023952,,,,,,,,,,,,,,3,bingo,,,,,,103.0086,103.8245,0,1,0.2844,,0,44,44,2,1,three_way_cognate,1,REAL,FALSA
,,,,,,,,,637d4793730be3ac44f5a4a5,001,2024-06-03_09h42.30.138,empathy_intonation_perc,2024.1.4,Win32,59.88023952,,,,,,,,,,,,,,43,huella,,,,,,103.8248,104.3916,0,1,0.032,,0,45,45,42,1,non_cognate,1,REAL,FALSA
,,,,,,,,,637d4793730be3ac44f5a4a5,001,2024-06-03_09h42.30.138,empathy_intonation_perc,2024.1.4,Win32,59.88023952,,,,,,,,,,,,,,19,pelvis,,,,,,104.3923,104.9408,0,1,0.0177,,0,46,46,18,1,two_way_cognate,1,REAL,FALSA
,,,,,,,,,637d4793730be3ac44f5a4a5,001,2024-06-03_09h42.30.138,empathy_intonation_perc,2024.1.4,Win32,59.88023952,,,,,,,,,,,,,,85,tutaba,,,,,,104.9412,105.5569,0,1,0.0813,,0,47,47,84,1,pseudoword,0,REAL,FALSA
,,,,,,,,,637d4793730be3ac44f5a4a5,001,2024-06-03_09h42.30.138,empathy_intonation_perc,2024.1.4,Win32,59.88023952,,,,,,,,,,,,,,64,altimo,,,,,,105.5572,106.2235,0,1,0.1415,,0,48,48,63,1,pseudoword,0,REAL,FALSA
,,,,,,,,,637d4793730be3ac44f5a4a5,001,2024-06-03_09h42.30.138,empathy_intonation_perc,2024.1.4,Win32,59.88023952,,,,,,,,,,,,,,95,aclaya,,,,,,106.2238,107.0396,0,1,0.2845,,0,49,49,94,1,pseudoword,0,REAL,FALSA
,,,,,,,,,637d4793730be3ac44f5a4a5,001,2024-06-03_09h42.30.138,empathy_intonation_perc,2024.1.4,Win32,59.88023952,,,,,,,,,,,,,,71,rande,,,,,,107.0399,107.7561,0,1,0.1817,,0,50,50,70,1,pseudoword,0,REAL,FALSA
,,,,,,,,,637d4793730be3ac44f5a4a5,001,2024-06-03_09h42.30.138,empathy_intonation_perc,2024.1.4,Win32,59.88023952,,,,,,,,,,,,,,14,clamor,,,,,,107.7565,108.3724,1,0,0.09,,0,51,51,13,1,two_way_cognate,1,REAL,FALSA
,,,,,,,,,637d4793730be3ac44f5a4a5,001,2024-06-03_09h42.30.138,empathy_intonation_perc,2024.1.4,Win32,59.88023952,,,,,,,,,,,,,,62,sujo,,,,,,108.3727,109.0884,1,0,0.1848,,0,52,52,61,1,pseudoword,0,REAL,FALSA
,,,,,,,,,637d4793730be3ac44f5a4a5,001,2024-06-03_09h42.30.138,empathy_intonation_perc,2024.1.4,Win32,59.88023952,,,,,,,,,,,,,,22,pasta,,,,,,109.0888,109.6213,1,0,0.0035,,0,53,53,21,1,two_way_cognate,1,REAL,FALSA
,,,,,,,,,637d4793730be3ac44f5a4a5,001,2024-06-03_09h42.30.138,empathy_intonation_perc,2024.1.4,Win32,59.88023952,,,,,,,,,,,,,,34,sermón,,,,,,109.6215,110.1377,1,0,0.0003,,0,54,54,33,1,non_cognate,1,REAL,FALSA
,,,,,,,,,637d4793730be3ac44f5a4a5,001,2024-06-03_09h42.30.138,empathy_intonation_perc,2024.1.4,Win32,59.88023952,,,,,,,,,,,,,,29,cesta,,,,,,110.138,110.6706,1,0,0.0045,,0,55,55,28,1,non_cognate,1,REAL,FALSA
,,,,,,,,,637d4793730be3ac44f5a4a5,001,2024-06-03_09h42.30.138,empathy_intonation_perc,2024.1.4,Win32,59.88023952,,,,,,,,,,,,,,45,viga,,,,,,110.671,111.387,0,1,0.1812,,0,56,56,44,1,non_cognate,1,REAL,FALSA
,,,,,,,,,637d4793730be3ac44f5a4a5,001,2024-06-03_09h42.30.138,empathy_intonation_perc,2024.1.4,Win32,59.88023952,,,,,,,,,,,,,,7,retina,,,,,,111.3873,112.0872,0,1,0.1644,,0,57,57,6,1,three_way_cognate,1,REAL,FALSA
,,,,,,,,,637d4793730be3ac44f5a4a5,001,2024-06-03_09h42.30.138,empathy_intonation_perc,2024.1.4,Win32,59.88023952,,,,,,,,,,,,,,25,exigir,,,,,,112.0876,112.7032,0,1,0.0881,,0,58,58,24,1,non_cognate,1,REAL,FALSA
,,,,,,,,,637d4793730be3ac44f5a4a5,001,2024-06-03_09h42.30.138,empathy_intonation_perc,2024.1.4,Win32,59.88023952,,,,,,,,,,,,,,37,delito,,,,,,112.7035,113.3698,0,1,0.1369,,0,59,59,36,1,non_cognate,1,REAL,FALSA
,,,,,,,,,637d4793730be3ac44f5a4a5,001,2024-06-03_09h42.30.138,empathy_intonation_perc,2024.1.4,Win32,59.88023952,,,,,,,,,,,,,,50,suaja,,,,,,113.3702,114.0694,1,0,0.1644,,0,60,60,49,1,pseudoword,0,REAL,FALSA
,,,,,,,,,637d4793730be3ac44f5a4a5,001,2024-06-03_09h42.30.138,empathy_intonation_perc,2024.1.4,Win32,59.88023952,,,,,,,,,,,,,,53,samón,,,,,,114.0699,117.384,1,0,2.786,,0,61,61,52,1,pseudoword,0,REAL,FALSA
,,,,,,,,,637d4793730be3ac44f5a4a5,001,2024-06-03_09h42.30.138,empathy_intonation_perc,2024.1.4,Win32,59.88023952,,,,,,,,,,,,,,94,bomos,,,,,,117.3913,117.9504,0,1,0.039,,0,62,62,93,1,pseudoword,0,REAL,FALSA
,,,,,,,,,637d4793730be3ac44f5a4a5,001,2024-06-03_09h42.30.138,empathy_intonation_perc,2024.1.4,Win32,59.88023952,,,,,,,,,,,,,,8,solar,,,,,,117.9509,118.4837,0,1,0.0002,,0,63,63,7,1,three_way_cognate,1,REAL,FALSA
,,,,,,,,,637d4793730be3ac44f5a4a5,001,2024-06-03_09h42.30.138,empathy_intonation_perc,2024.1.4,Win32,59.88023952,,,,,,,,,,,,,,79,filte,,,,,,118.4841,119.1164,1,0,0.0998,,0,64,64,78,1,pseudoword,0,REAL,FALSA
,,,,,,,,,637d4793730be3ac44f5a4a5,001,2024-06-03_09h42.30.138,empathy_intonation_perc,2024.1.4,Win32,59.88023952,,,,,,,,,,,,,,39,pista,,,,,,119.1169,119.6493,0,1,0.0062,,0,65,65,38,1,non_cognate,1,REAL,FALSA
,,,,,,,,,637d4793730be3ac44f5a4a5,001,2024-06-03_09h42.30.138,empathy_intonation_perc,2024.1.4,Win32,59.88023952,,,,,,,,,,,,,,32,caro,,,,,,119.6499,120.3988,1,0,0.2219,,0,66,66,31,1,non_cognate,1,REAL,FALSA
,,,,,,,,,637d4793730be3ac44f5a4a5,001,2024-06-03_09h42.30.138,empathy_intonation_perc,2024.1.4,Win32,59.88023952,,,,,,,,,,,,,,5,fauna,,,,,,120.3991,120.9983,0,1,0.0771,,0,67,67,4,1,three_way_cognate,1,REAL,FALSA
,,,,,,,,,637d4793730be3ac44f5a4a5,001,2024-06-03_09h42.30.138,empathy_intonation_perc,2024.1.4,Win32,59.88023952,,,,,,,,,,,,,,72,diguán,,,,,,120.9985,121.6314,0,1,0.116,,0,68,68,71,1,pseudoword,0,REAL,FALSA
,,,,,,,,,637d4793730be3ac44f5a4a5,001,2024-06-03_09h42.30.138,empathy_intonation_perc,2024.1.4,Win32,59.88023952,,,,,,,,,,,,,,21,casual,,,,,,121.6318,122.1815,1,0,0.0169,,0,69,69,20,1,two_way_cognate,1,REAL,FALSA
,,,,,,,,,637d4793730be3ac44f5a4a5,001,2024-06-03_09h42.30.138,empathy_intonation_perc,2024.1.4,Win32,59.88023952,,,,,,,,,,,,,,48,taza,,,,,,122.1819,122.8475,1,0,0.142,,0,70,70,47,1,non_cognate,1,REAL,FALSA
,,,,,,,,,637d4793730be3ac44f5a4a5,001,2024-06-03_09h42.30.138,empathy_intonation_perc,2024.1.4,Win32,59.88023952,,,,,,,,,,,,,,73,meolar,,,,,,122.8478,123.4971,1,0,0.1147,,0,71,71,72,1,pseudoword,0,REAL,FALSA
,,,,,,,,,637d4793730be3ac44f5a4a5,001,2024-06-03_09h42.30.138,empathy_intonation_perc,2024.1.4,Win32,59.88023952,,,,,,,,,,,,,,42,premio,,,,,,123.4973,124.1302,1,0,0.0979,,0,72,72,41,1,non_cognate,1,REAL,FALSA
,,,,,,,,,637d4793730be3ac44f5a4a5,001,2024-06-03_09h42.30.138,empathy_intonation_perc,2024.1.4,Win32,59.88023952,,,,,,,,,,,,,,78,alzán,,,,,,124.1306,124.7968,1,0,0.1328,,0,73,73,77,1,pseudoword,0,REAL,FALSA
,,,,,,,,,637d4793730be3ac44f5a4a5,001,2024-06-03_09h42.30.138,empathy_intonation_perc,2024.1.4,Win32,59.88023952,,,,,,,,,,,,,,40,cuento,,,,,,124.7973,125.4962,1,0,0.1641,,0,74,74,39,1,non_cognate,1,REAL,FALSA
,,,,,,,,,637d4793730be3ac44f5a4a5,001,2024-06-03_09h42.30.138,empathy_intonation_perc,2024.1.4,Win32,59.88023952,,,,,,,,,,,,,,33,latón,,,,,,125.4965,126.0292,0,1,0.0002,,0,75,75,32,1,non_cognate,1,REAL,FALSA
,,,,,,,,,637d4793730be3ac44f5a4a5,001,2024-06-03_09h42.30.138,empathy_intonation_perc,2024.1.4,Win32,59.88023952,,,,,,,,,,,,,,10,tango,,,,,,126.0295,126.5622,0,1,0.009,,0,76,76,9,1,three_way_cognate,1,REAL,FALSA
,,,,,,,,,637d4793730be3ac44f5a4a5,001,2024-06-03_09h42.30.138,empathy_intonation_perc,2024.1.4,Win32,59.88023952,,,,,,,,,,,,,,38,trenza,,,,,,126.5625,127.2455,1,0,0.1502,,0,77,77,37,1,non_cognate,1,REAL,FALSA
,,,,,,,,,637d4793730be3ac44f5a4a5,001,2024-06-03_09h42.30.138,empathy_intonation_perc,2024.1.4,Win32,59.88023952,,,,,,,,,,,,,,49,diebro,,,,,,127.2459,127.9112,1,0,0.1452,,0,78,78,48,1,pseudoword,0,REAL,FALSA
,,,,,,,,,637d4793730be3ac44f5a4a5,001,2024-06-03_09h42.30.138,empathy_intonation_perc,2024.1.4,Win32,59.88023952,,,,,,,,,,,,,,1,torso,,,,,,127.9116,128.6109,1,0,0.1652,,0,79,79,0,1,three_way_cognate,1,REAL,FALSA
,,,,,,,,,637d4793730be3ac44f5a4a5,001,2024-06-03_09h42.30.138,empathy_intonation_perc,2024.1.4,Win32,59.88023952,,,,,,,,,,,,,,13,aurora,,,,,,128.6112,129.3271,0,1,0.1946,,0,80,80,12,1,two_way_cognate,1,REAL,FALSA
,,,,,,,,,637d4793730be3ac44f5a4a5,001,2024-06-03_09h42.30.138,empathy_intonation_perc,2024.1.4,Win32,59.88023952,,,,,,,,,,,,,,41,salto,,,,,,129.3274,129.8774,1,0,0.0171,,0,81,81,40,1,non_cognate,1,REAL,FALSA
,,,,,,,,,637d4793730be3ac44f5a4a5,001,2024-06-03_09h42.30.138,empathy_intonation_perc,2024.1.4,Win32,59.88023952,,,,,,,,,,,,,,69,vemua,,,,,,129.8777,130.5602,0,1,0.1522,,0,82,82,68,1,pseudoword,0,REAL,FALSA
,,,,,,,,,637d4793730be3ac44f5a4a5,001,2024-06-03_09h42.30.138,empathy_intonation_perc,2024.1.4,Win32,59.88023952,,,,,,,,,,,,,,51,tandir,,,,,,130.5606,131.1431,0,1,0.0476,,0,83,83,50,1,pseudoword,0,REAL,FALSA
,,,,,,,,,637d4793730be3ac44f5a4a5,001,2024-06-03_09h42.30.138,empathy_intonation_perc,2024.1.4,Win32,59.88023952,,,,,,,,,,,,,,23,editor,,,,,,131.1434,131.7091,0,1,0.0326,,0,84,84,22,1,two_way_cognate,1,REAL,FALSA
,,,,,,,,,637d4793730be3ac44f5a4a5,001,2024-06-03_09h42.30.138,empathy_intonation_perc,2024.1.4,Win32,59.88023952,,,,,,,,,,,,,,70,hunten,,,,,,131.7094,132.2592,1,0,0.0144,,0,85,85,69,1,pseudoword,0,REAL,FALSA
,,,,,,,,,637d4793730be3ac44f5a4a5,001,2024-06-03_09h42.30.138,empathy_intonation_perc,2024.1.4,Win32,59.88023952,,,,,,,,,,,,,,15,actor,,,,,,132.2594,132.8917,0,1,0.1079,,0,86,86,14,1,two_way_cognate,1,REAL,FALSA
,,,,,,,,,637d4793730be3ac44f5a4a5,001,2024-06-03_09h42.30.138,empathy_intonation_perc,2024.1.4,Win32,59.88023952,,,,,,,,,,,,,,60,debada,,,,,,132.8921,133.4087,0,1,0.0003,,0,87,87,59,1,pseudoword,0,REAL,FALSA
,,,,,,,,,637d4793730be3ac44f5a4a5,001,2024-06-03_09h42.30.138,empathy_intonation_perc,2024.1.4,Win32,59.88023952,,,,,,,,,,,,,,16,animal,,,,,,133.4091,134.0579,0,1,0.1149,,0,88,88,15,1,two_way_cognate,1,REAL,FALSA
,,,,,,,,,637d4793730be3ac44f5a4a5,001,2024-06-03_09h42.30.138,empathy_intonation_perc,2024.1.4,Win32,59.88023952,,,,,,,,,,,,,,93,caemal,,,,,,134.0582,134.6912,0,1,0.1102,,0,89,89,92,1,pseudoword,0,REAL,FALSA
,,,,,,,,,637d4793730be3ac44f5a4a5,001,2024-06-03_09h42.30.138,empathy_intonation_perc,2024.1.4,Win32,59.88023952,,,,,,,,,,,,,,11,sauna,,,,,,134.6915,135.2908,0,1,0.0749,,0,90,90,10,1,three_way_cognate,1,REAL,FALSA
,,,,,,,,,637d4793730be3ac44f5a4a5,001,2024-06-03_09h42.30.138,empathy_intonation_perc,2024.1.4,Win32,59.88023952,,,,,,,,,,,,,,80,suelet,,,,,,135.291,135.9242,0,1,0.1067,,0,91,91,79,1,pseudoword,0,REAL,FALSA
,,,,,,,,,637d4793730be3ac44f5a4a5,001,2024-06-03_09h42.30.138,empathy_intonation_perc,2024.1.4,Win32,59.88023952,,,,,,,,,,,,,,44,llamar,,,,,,135.9247,136.507,1,0,0.0615,,0,92,92,43,1,non_cognate,1,REAL,FALSA
,,,,,,,,,637d4793730be3ac44f5a4a5,001,2024-06-03_09h42.30.138,empathy_intonation_perc,2024.1.4,Win32,59.88023952,,,,,,,,,,,,,,76,orida,,,,,,136.5073,137.256,0,1,0.2267,,0,93,93,75,1,pseudoword,0,REAL,FALSA
,,,,,,,,,637d4793730be3ac44f5a4a5,001,2024-06-03_09h42.30.138,empathy_intonation_perc,2024.1.4,Win32,59.88023952,,,,,,,,,,,,,,24,civil,,,,,,137.2562,137.9225,1,0,0.1314,,0,94,94,23,1,two_way_cognate,1,REAL,FALSA
,,,,,,,,,637d4793730be3ac44f5a4a5,001,2024-06-03_09h42.30.138,empathy_intonation_perc,2024.1.4,Win32,59.88023952,,,,,,,,,,,,,,17,enigma,,,,,,137.9228,138.4557,0,1,0.0003,,0,95,95,16,1,two_way_cognate,1,REAL,FALSA
