lextale_instructions.started,lextale_instructions.stopped,lextale_instructions_loop.thisRepN,lextale_instructions_loop.thisTrialN,lextale_instructions_loop.thisN,lextale_instructions_loop.thisIndex,lextale_instructions_loop.ran,instructions_text,continue_text,participant,session,date,expName,psychopyVersion,OS,frameRate,lextale_practice.started,lextale_practice.stopped,key_resp_lextale_practice.keys,key_resp_lextale_practice.corr,key_resp_lextale_practice.rt,key_resp_lextale_practice.duration,lextale_practice_feedback.started,lextale_practice_feedback.stopped,lextale_practice_trials.thisRepN,lextale_practice_trials.thisTrialN,lextale_practice_trials.thisN,lextale_practice_trials.thisIndex,lextale_practice_trials.ran,stim,word,correct_response,prac_button_real,prac_button_false,lextale_check.started,lextale_check.stopped,lextale_trial.started,lextale_trial.stopped,key_resp_lextale_trial.keys,key_resp_lextale_trial.corr,key_resp_lextale_trial.rt,key_resp_lextale_trial.duration,lextail_trials.thisRepN,lextail_trials.thisTrialN,lextail_trials.thisN,lextail_trials.thisIndex,lextail_trials.ran,type,correct_reponse,button_real,button_false
0.0208,6.0456,0,0,0,0,1,"Este es un test de vocabulario en español. 
  
  A continuación vas a ver 90 secuencias de letras que parecen 'españolas'.
  
  Solo algunas de ellas son palabras de verdad.",(presiona la barra espaciadora para continuar),63e646333cb69048119b58c5,001,2024-06-07_12h01.22.599,empathy_intonation_perc,2024.1.4,Win32,59.88023952,,,,,,,,,,,,,,,,,,,,,,,,,,,,,,,,,,,
6.0465,6.9538,0,1,1,1,1,"Por favor, señala las palabras que tú conoces (aquellas que estás convencido que son palabras españolas, incluso aunque no seas capaz de dar el significado preciso).",(presiona la barra espaciadora para continuar),63e646333cb69048119b58c5,001,2024-06-07_12h01.22.599,empathy_intonation_perc,2024.1.4,Win32,59.88023952,,,,,,,,,,,,,,,,,,,,,,,,,,,,,,,,,,,
6.9541,7.8529,0,2,2,2,1,Pero cuidado: los errores se penalizan. Por eso no tiene sentido tratar de incrementar tu puntuación marcando como reales palabras que nunca has visto.,(presiona la barra espaciadora para continuar),63e646333cb69048119b58c5,001,2024-06-07_12h01.22.599,empathy_intonation_perc,2024.1.4,Win32,59.88023952,,,,,,,,,,,,,,,,,,,,,,,,,,,,,,,,,,,
7.8532,9.6839,0,3,3,3,1,"Presiona la tecla 1 si piensas que es una palabra real y la tecla 
  0 si piensas que es una palabra falsa. 
  
  Vamos a practicar un poco...",(presiona la barra espaciadora para continuar),63e646333cb69048119b58c5,001,2024-06-07_12h01.22.599,empathy_intonation_perc,2024.1.4,Win32,59.88023952,,,,,,,,,,,,,,,,,,,,,,,,,,,,,,,,,,,
,,,,,,,,,63e646333cb69048119b58c5,001,2024-06-07_12h01.22.599,empathy_intonation_perc,2024.1.4,Win32,59.88023952,9.6891,10.8154,1,0,0.5981,,10.8161,11.8139,0,0,0,0,1,0,depiste,0,REAL,FALSA,,,,,,,,,,,,,,,,,
,,,,,,,,,63e646333cb69048119b58c5,001,2024-06-07_12h01.22.599,empathy_intonation_perc,2024.1.4,Win32,59.88023952,11.8152,12.6959,1,1,0.3463,,12.6959,13.6947,0,1,1,1,1,0,sí,1,REAL,FALSA,,,,,,,,,,,,,,,,,
,,,,,,,,,63e646333cb69048119b58c5,001,2024-06-07_12h01.22.599,empathy_intonation_perc,2024.1.4,Win32,59.88023952,13.6952,14.6286,1,0,0.4022,,14.6287,15.6271,0,2,2,2,1,0,coné,0,REAL,FALSA,,,,,,,,,,,,,,,,,
,,,,,,,,,63e646333cb69048119b58c5,001,2024-06-07_12h01.22.599,empathy_intonation_perc,2024.1.4,Win32,59.88023952,15.6275,16.8924,0,1,0.7318,,16.8924,17.8916,0,3,3,3,1,0,calpar,0,REAL,FALSA,,,,,,,,,,,,,,,,,
,,,,,,,,,63e646333cb69048119b58c5,001,2024-06-07_12h01.22.599,empathy_intonation_perc,2024.1.4,Win32,59.88023952,17.8919,19.1733,1,0,0.7452,,19.1733,20.1706,0,4,4,4,1,0,joten,0,REAL,FALSA,,,,,,,,,,,,,,,,,
,,,,,,,,,63e646333cb69048119b58c5,001,2024-06-07_12h01.22.599,empathy_intonation_perc,2024.1.4,Win32,59.88023952,20.171,21.371,1,1,0.6824,,21.371,22.3682,0,5,5,5,1,0,sacapuntas,1,REAL,FALSA,,,,,,,,,,,,,,,,,
,,,,,,,,,63e646333cb69048119b58c5,001,2024-06-07_12h01.22.599,empathy_intonation_perc,2024.1.4,Win32,59.88023952,22.3686,23.7349,0,1,0.8503,,23.7349,24.7323,0,6,6,6,1,0,priba,0,REAL,FALSA,,,,,,,,,,,,,,,,,
,,,,,,,,,63e646333cb69048119b58c5,001,2024-06-07_12h01.22.599,empathy_intonation_perc,2024.1.4,Win32,59.88023952,24.7328,25.8825,0,1,0.6325,,25.8825,26.8813,0,7,7,7,1,0,pelasula,0,REAL,FALSA,,,,,,,,,,,,,,,,,
,,,,,,,,,63e646333cb69048119b58c5,001,2024-06-07_12h01.22.599,empathy_intonation_perc,2024.1.4,Win32,59.88023952,26.8816,28.1452,1,1,0.7287,,28.1453,29.1439,0,8,8,8,1,0,bien,1,REAL,FALSA,,,,,,,,,,,,,,,,,
,,,,,,,,,63e646333cb69048119b58c5,001,2024-06-07_12h01.22.599,empathy_intonation_perc,2024.1.4,Win32,59.88023952,29.1445,30.3091,1,1,0.6357,,30.3092,31.3082,0,9,9,9,1,0,casa,1,REAL,FALSA,,,,,,,,,,,,,,,,,
,,,,,,,,,63e646333cb69048119b58c5,001,2024-06-07_12h01.22.599,empathy_intonation_perc,2024.1.4,Win32,59.88023952,31.3086,32.5238,0,1,0.6955,,32.524,33.5226,0,10,10,10,1,0,lejo,0,REAL,FALSA,,,,,,,,,,,,,,,,,
,,,,,,,,,63e646333cb69048119b58c5,001,2024-06-07_12h01.22.599,empathy_intonation_perc,2024.1.4,Win32,59.88023952,33.5236,34.721,0,1,0.6655,,34.721,35.7197,0,11,11,11,1,0,pretantas,0,REAL,FALSA,,,,,,,,,,,,,,,,,
,,,,,,,,,63e646333cb69048119b58c5,001,2024-06-07_12h01.22.599,empathy_intonation_perc,2024.1.4,Win32,59.88023952,,,,,,,,,,,,,,,,,,,35.72,38.1347,,,,,,,,,,,,,,,
,,,,,,,,,63e646333cb69048119b58c5,001,2024-06-07_12h01.22.599,empathy_intonation_perc,2024.1.4,Win32,59.88023952,,,,,,,,,,,,,,119,esís,,,,,,38.1551,39.2351,1,0,0.5354,,0,0,0,118,1,pseudoword,0,REAL,FALSA
,,,,,,,,,63e646333cb69048119b58c5,001,2024-06-07_12h01.22.599,empathy_intonation_perc,2024.1.4,Win32,59.88023952,,,,,,,,,,,,,,19,trauma,,,,,,39.2355,39.9851,1,0,0.2114,,0,1,1,18,1,three_way_cognate,1,REAL,FALSA
,,,,,,,,,63e646333cb69048119b58c5,001,2024-06-07_12h01.22.599,empathy_intonation_perc,2024.1.4,Win32,59.88023952,,,,,,,,,,,,,,68,puñal,,,,,,39.9855,40.8882,1,0,0.3652,,0,2,2,67,1,non_cognate,1,REAL,FALSA
,,,,,,,,,63e646333cb69048119b58c5,001,2024-06-07_12h01.22.599,empathy_intonation_perc,2024.1.4,Win32,59.88023952,,,,,,,,,,,,,,10,golf,,,,,,40.8886,41.9462,1,0,0.5187,,0,3,3,9,1,three_way_cognate,1,REAL,FALSA
,,,,,,,,,63e646333cb69048119b58c5,001,2024-06-07_12h01.22.599,empathy_intonation_perc,2024.1.4,Win32,59.88023952,,,,,,,,,,,,,,75,patada,,,,,,41.9469,42.5973,0,1,0.1176,,0,4,4,74,1,non_cognate,1,REAL,FALSA
,,,,,,,,,63e646333cb69048119b58c5,001,2024-06-07_12h01.22.599,empathy_intonation_perc,2024.1.4,Win32,59.88023952,,,,,,,,,,,,,,44,editor,,,,,,42.598,43.5275,0,1,0.3828,,0,5,5,43,1,two_way_cognate,1,REAL,FALSA
,,,,,,,,,63e646333cb69048119b58c5,001,2024-06-07_12h01.22.599,empathy_intonation_perc,2024.1.4,Win32,59.88023952,,,,,,,,,,,,,,3,flora,,,,,,43.5281,44.4118,1,0,0.3491,,0,6,6,2,1,three_way_cognate,1,REAL,FALSA
,,,,,,,,,63e646333cb69048119b58c5,001,2024-06-07_12h01.22.599,empathy_intonation_perc,2024.1.4,Win32,59.88023952,,,,,,,,,,,,,,8,portal,,,,,,44.4127,45.0092,1,0,0.0535,,0,7,7,7,1,three_way_cognate,1,REAL,FALSA
,,,,,,,,,63e646333cb69048119b58c5,001,2024-06-07_12h01.22.599,empathy_intonation_perc,2024.1.4,Win32,59.88023952,,,,,,,,,,,,,,51,listo,,,,,,45.0095,45.659,1,0,0.1196,,0,8,8,50,1,non_cognate,1,REAL,FALSA
,,,,,,,,,63e646333cb69048119b58c5,001,2024-06-07_12h01.22.599,empathy_intonation_perc,2024.1.4,Win32,59.88023952,,,,,,,,,,,,,,64,rizado,,,,,,45.6604,46.293,1,0,0.0911,,0,9,9,63,1,non_cognate,1,REAL,FALSA
,,,,,,,,,63e646333cb69048119b58c5,001,2024-06-07_12h01.22.599,empathy_intonation_perc,2024.1.4,Win32,59.88023952,,,,,,,,,,,,,,131,fuar,,,,,,46.2938,46.9237,1,0,0.0868,,0,10,10,130,1,pseudoword,0,REAL,FALSA
,,,,,,,,,63e646333cb69048119b58c5,001,2024-06-07_12h01.22.599,empathy_intonation_perc,2024.1.4,Win32,59.88023952,,,,,,,,,,,,,,41,pasta,,,,,,46.924,47.5751,0,1,0.1023,,0,11,11,40,1,two_way_cognate,1,REAL,FALSA
,,,,,,,,,63e646333cb69048119b58c5,001,2024-06-07_12h01.22.599,empathy_intonation_perc,2024.1.4,Win32,59.88023952,,,,,,,,,,,,,,112,cituló,,,,,,47.5758,48.2389,1,0,0.1162,,0,12,12,111,1,pseudoword,0,REAL,FALSA
,,,,,,,,,63e646333cb69048119b58c5,001,2024-06-07_12h01.22.599,empathy_intonation_perc,2024.1.4,Win32,59.88023952,,,,,,,,,,,,,,69,tiza,,,,,,48.2392,48.8049,0,1,0.0214,,0,13,13,68,1,non_cognate,1,REAL,FALSA
,,,,,,,,,63e646333cb69048119b58c5,001,2024-06-07_12h01.22.599,empathy_intonation_perc,2024.1.4,Win32,59.88023952,,,,,,,,,,,,,,113,difrás,,,,,,48.8053,49.5911,1,0,0.245,,0,14,14,112,1,pseudoword,0,REAL,FALSA
,,,,,,,,,63e646333cb69048119b58c5,001,2024-06-07_12h01.22.599,empathy_intonation_perc,2024.1.4,Win32,59.88023952,,,,,,,,,,,,,,140,vapen,,,,,,49.5913,50.3941,1,0,0.2655,,0,15,15,139,1,pseudoword,0,REAL,FALSA
,,,,,,,,,63e646333cb69048119b58c5,001,2024-06-07_12h01.22.599,empathy_intonation_perc,2024.1.4,Win32,59.88023952,,,,,,,,,,,,,,29,clamor,,,,,,50.3944,50.9706,0,1,0.0331,,0,16,16,28,1,two_way_cognate,1,REAL,FALSA
,,,,,,,,,63e646333cb69048119b58c5,001,2024-06-07_12h01.22.599,empathy_intonation_perc,2024.1.4,Win32,59.88023952,,,,,,,,,,,,,,63,hilo,,,,,,50.9717,58.2125,1,0,6.6969,,0,17,17,62,1,non_cognate,1,REAL,FALSA
,,,,,,,,,63e646333cb69048119b58c5,001,2024-06-07_12h01.22.599,empathy_intonation_perc,2024.1.4,Win32,59.88023952,,,,,,,,,,,,,,22,plural,,,,,,58.2266,59.977,0,1,1.2351,,0,18,18,21,1,three_way_cognate,1,REAL,FALSA
,,,,,,,,,63e646333cb69048119b58c5,001,2024-06-07_12h01.22.599,empathy_intonation_perc,2024.1.4,Win32,59.88023952,,,,,,,,,,,,,,35,aurora,,,,,,59.9775,60.66,1,0,0.1441,,0,19,19,34,1,two_way_cognate,1,REAL,FALSA
,,,,,,,,,63e646333cb69048119b58c5,001,2024-06-07_12h01.22.599,empathy_intonation_perc,2024.1.4,Win32,59.88023952,,,,,,,,,,,,,,144,piria,,,,,,60.6603,61.3924,0,1,0.1872,,0,20,20,143,1,pseudoword,0,REAL,FALSA
,,,,,,,,,63e646333cb69048119b58c5,001,2024-06-07_12h01.22.599,empathy_intonation_perc,2024.1.4,Win32,59.88023952,,,,,,,,,,,,,,17,altar,,,,,,61.3927,64.5214,1,0,2.5957,,0,21,21,16,1,three_way_cognate,1,REAL,FALSA
,,,,,,,,,63e646333cb69048119b58c5,001,2024-06-07_12h01.22.599,empathy_intonation_perc,2024.1.4,Win32,59.88023952,,,,,,,,,,,,,,73,llevar,,,,,,64.5327,65.7202,1,0,0.662,,0,22,22,72,1,non_cognate,1,REAL,FALSA
,,,,,,,,,63e646333cb69048119b58c5,001,2024-06-07_12h01.22.599,empathy_intonation_perc,2024.1.4,Win32,59.88023952,,,,,,,,,,,,,,15,chat,,,,,,65.7209,67.2191,0,1,0.9615,,0,23,23,14,1,three_way_cognate,1,REAL,FALSA
,,,,,,,,,63e646333cb69048119b58c5,001,2024-06-07_12h01.22.599,empathy_intonation_perc,2024.1.4,Win32,59.88023952,,,,,,,,,,,,,,80,cuenco,,,,,,67.2194,70.1142,1,0,2.3629,,0,24,24,79,1,non_cognate,1,REAL,FALSA
,,,,,,,,,63e646333cb69048119b58c5,001,2024-06-07_12h01.22.599,empathy_intonation_perc,2024.1.4,Win32,59.88023952,,,,,,,,,,,,,,85,enorme,,,,,,70.1241,70.8633,1,0,0.2125,,0,25,25,84,1,non_cognate,1,REAL,FALSA
,,,,,,,,,63e646333cb69048119b58c5,001,2024-06-07_12h01.22.599,empathy_intonation_perc,2024.1.4,Win32,59.88023952,,,,,,,,,,,,,,142,viseña,,,,,,70.8638,71.7791,1,0,0.3789,,0,26,26,141,1,pseudoword,0,REAL,FALSA
,,,,,,,,,63e646333cb69048119b58c5,001,2024-06-07_12h01.22.599,empathy_intonation_perc,2024.1.4,Win32,59.88023952,,,,,,,,,,,,,,118,bará,,,,,,71.78,72.4616,0,1,0.1473,,0,27,27,117,1,pseudoword,0,REAL,FALSA
,,,,,,,,,63e646333cb69048119b58c5,001,2024-06-07_12h01.22.599,empathy_intonation_perc,2024.1.4,Win32,59.88023952,,,,,,,,,,,,,,130,dubo,,,,,,72.4619,73.1946,1,0,0.203,,0,28,28,129,1,pseudoword,0,REAL,FALSA
,,,,,,,,,63e646333cb69048119b58c5,001,2024-06-07_12h01.22.599,empathy_intonation_perc,2024.1.4,Win32,59.88023952,,,,,,,,,,,,,,108,viarle,,,,,,73.1955,74.0435,0,1,0.3159,,0,29,29,107,1,pseudoword,0,REAL,FALSA
,,,,,,,,,63e646333cb69048119b58c5,001,2024-06-07_12h01.22.599,empathy_intonation_perc,2024.1.4,Win32,59.88023952,,,,,,,,,,,,,,67,llamar,,,,,,74.0445,74.8423,1,0,0.2624,,0,30,30,66,1,non_cognate,1,REAL,FALSA
,,,,,,,,,63e646333cb69048119b58c5,001,2024-06-07_12h01.22.599,empathy_intonation_perc,2024.1.4,Win32,59.88023952,,,,,,,,,,,,,,50,sierra,,,,,,74.843,75.6582,1,0,0.2803,,0,31,31,49,1,non_cognate,1,REAL,FALSA
,,,,,,,,,63e646333cb69048119b58c5,001,2024-06-07_12h01.22.599,empathy_intonation_perc,2024.1.4,Win32,59.88023952,,,,,,,,,,,,,,2,disco,,,,,,75.6591,76.5739,1,0,0.3821,,0,32,32,1,1,three_way_cognate,1,REAL,FALSA
,,,,,,,,,63e646333cb69048119b58c5,001,2024-06-07_12h01.22.599,empathy_intonation_perc,2024.1.4,Win32,59.88023952,,,,,,,,,,,,,,72,rostro,,,,,,76.5749,77.5236,1,0,0.4157,,0,33,33,71,1,non_cognate,1,REAL,FALSA
,,,,,,,,,63e646333cb69048119b58c5,001,2024-06-07_12h01.22.599,empathy_intonation_perc,2024.1.4,Win32,59.88023952,,,,,,,,,,,,,,141,sumer,,,,,,77.5241,78.4064,0,1,0.3489,,0,34,34,140,1,pseudoword,0,REAL,FALSA
,,,,,,,,,63e646333cb69048119b58c5,001,2024-06-07_12h01.22.599,empathy_intonation_perc,2024.1.4,Win32,59.88023952,,,,,,,,,,,,,,82,brillo,,,,,,78.4067,79.3046,0,1,0.3629,,0,35,35,81,1,non_cognate,1,REAL,FALSA
,,,,,,,,,63e646333cb69048119b58c5,001,2024-06-07_12h01.22.599,empathy_intonation_perc,2024.1.4,Win32,59.88023952,,,,,,,,,,,,,,90,venado,,,,,,79.3053,80.3031,1,0,0.4656,,0,36,36,89,1,non_cognate,1,REAL,FALSA
,,,,,,,,,63e646333cb69048119b58c5,001,2024-06-07_12h01.22.599,empathy_intonation_perc,2024.1.4,Win32,59.88023952,,,,,,,,,,,,,,55,maldad,,,,,,80.3041,81.1865,1,0,0.3473,,0,37,37,54,1,non_cognate,1,REAL,FALSA
,,,,,,,,,63e646333cb69048119b58c5,001,2024-06-07_12h01.22.599,empathy_intonation_perc,2024.1.4,Win32,59.88023952,,,,,,,,,,,,,,28,ardor,,,,,,81.1868,82.0356,0,1,0.3139,,0,38,38,27,1,two_way_cognate,1,REAL,FALSA
,,,,,,,,,63e646333cb69048119b58c5,001,2024-06-07_12h01.22.599,empathy_intonation_perc,2024.1.4,Win32,59.88023952,,,,,,,,,,,,,,123,escare,,,,,,82.0361,83.3173,1,0,0.7505,,0,39,39,122,1,pseudoword,0,REAL,FALSA
,,,,,,,,,63e646333cb69048119b58c5,001,2024-06-07_12h01.22.599,empathy_intonation_perc,2024.1.4,Win32,59.88023952,,,,,,,,,,,,,,133,tirafa,,,,,,83.3176,84.3827,1,0,0.5287,,0,40,40,132,1,pseudoword,0,REAL,FALSA
,,,,,,,,,63e646333cb69048119b58c5,001,2024-06-07_12h01.22.599,empathy_intonation_perc,2024.1.4,Win32,59.88023952,,,,,,,,,,,,,,139,furbos,,,,,,84.383,85.3135,0,1,0.4002,,0,41,41,138,1,pseudoword,0,REAL,FALSA
,,,,,,,,,63e646333cb69048119b58c5,001,2024-06-07_12h01.22.599,empathy_intonation_perc,2024.1.4,Win32,59.88023952,,,,,,,,,,,,,,32,animal,,,,,,85.314,86.4637,1,0,0.6123,,0,42,42,31,1,two_way_cognate,1,REAL,FALSA
,,,,,,,,,63e646333cb69048119b58c5,001,2024-06-07_12h01.22.599,empathy_intonation_perc,2024.1.4,Win32,59.88023952,,,,,,,,,,,,,,56,pico,,,,,,86.4642,87.7447,0,1,0.7551,,0,43,43,55,1,non_cognate,1,REAL,FALSA
,,,,,,,,,63e646333cb69048119b58c5,001,2024-06-07_12h01.22.599,empathy_intonation_perc,2024.1.4,Win32,59.88023952,,,,,,,,,,,,,,16,clan,,,,,,87.7456,89.111,1,0,0.8316,,0,44,44,15,1,three_way_cognate,1,REAL,FALSA
,,,,,,,,,63e646333cb69048119b58c5,001,2024-06-07_12h01.22.599,empathy_intonation_perc,2024.1.4,Win32,59.88023952,,,,,,,,,,,,,,93,tapa,,,,,,89.1115,90.708,1,0,1.068,,0,45,45,92,1,non_cognate,1,REAL,FALSA
,,,,,,,,,63e646333cb69048119b58c5,001,2024-06-07_12h01.22.599,empathy_intonation_perc,2024.1.4,Win32,59.88023952,,,,,,,,,,,,,,71,torta,,,,,,90.7092,91.6414,1,0,0.3957,,0,46,46,70,1,non_cognate,1,REAL,FALSA
,,,,,,,,,63e646333cb69048119b58c5,001,2024-06-07_12h01.22.599,empathy_intonation_perc,2024.1.4,Win32,59.88023952,,,,,,,,,,,,,,120,hierno,,,,,,91.6417,92.4238,0,1,0.2563,,0,47,47,119,1,pseudoword,0,REAL,FALSA
,,,,,,,,,63e646333cb69048119b58c5,001,2024-06-07_12h01.22.599,empathy_intonation_perc,2024.1.4,Win32,59.88023952,,,,,,,,,,,,,,78,rendir,,,,,,92.4241,93.2545,1,0,0.2962,,0,48,48,77,1,non_cognate,1,REAL,FALSA
,,,,,,,,,63e646333cb69048119b58c5,001,2024-06-07_12h01.22.599,empathy_intonation_perc,2024.1.4,Win32,59.88023952,,,,,,,,,,,,,,79,suelo,,,,,,93.255,94.0208,1,0,0.2326,,0,49,49,78,1,non_cognate,1,REAL,FALSA
,,,,,,,,,63e646333cb69048119b58c5,001,2024-06-07_12h01.22.599,empathy_intonation_perc,2024.1.4,Win32,59.88023952,,,,,,,,,,,,,,138,glural,,,,,,94.0217,94.8711,1,0,0.3227,,0,50,50,137,1,pseudoword,0,REAL,FALSA
,,,,,,,,,63e646333cb69048119b58c5,001,2024-06-07_12h01.22.599,empathy_intonation_perc,2024.1.4,Win32,59.88023952,,,,,,,,,,,,,,38,halo,,,,,,94.8715,95.8033,1,0,0.4032,,0,51,51,37,1,two_way_cognate,1,REAL,FALSA
,,,,,,,,,63e646333cb69048119b58c5,001,2024-06-07_12h01.22.599,empathy_intonation_perc,2024.1.4,Win32,59.88023952,,,,,,,,,,,,,,49,teñir,,,,,,95.8036,96.4693,1,0,0.1297,,0,52,52,48,1,non_cognate,1,REAL,FALSA
,,,,,,,,,63e646333cb69048119b58c5,001,2024-06-07_12h01.22.599,empathy_intonation_perc,2024.1.4,Win32,59.88023952,,,,,,,,,,,,,,53,punta,,,,,,96.4695,97.1352,0,1,0.1325,,0,53,53,52,1,non_cognate,1,REAL,FALSA
,,,,,,,,,63e646333cb69048119b58c5,001,2024-06-07_12h01.22.599,empathy_intonation_perc,2024.1.4,Win32,59.88023952,,,,,,,,,,,,,,100,medón,,,,,,97.1356,97.8994,1,0,0.2345,,0,54,54,99,1,pseudoword,0,REAL,FALSA
,,,,,,,,,63e646333cb69048119b58c5,001,2024-06-07_12h01.22.599,empathy_intonation_perc,2024.1.4,Win32,59.88023952,,,,,,,,,,,,,,6,albino,,,,,,97.9,98.6826,1,0,0.2456,,0,55,55,5,1,three_way_cognate,1,REAL,FALSA
,,,,,,,,,63e646333cb69048119b58c5,001,2024-06-07_12h01.22.599,empathy_intonation_perc,2024.1.4,Win32,59.88023952,,,,,,,,,,,,,,89,muñeca,,,,,,98.6835,99.5144,1,0,0.2993,,0,56,56,88,1,non_cognate,1,REAL,FALSA
,,,,,,,,,63e646333cb69048119b58c5,001,2024-06-07_12h01.22.599,empathy_intonation_perc,2024.1.4,Win32,59.88023952,,,,,,,,,,,,,,70,ánimo,,,,,,99.5153,100.1986,0,1,0.1499,,0,57,57,69,1,non_cognate,1,REAL,FALSA
,,,,,,,,,63e646333cb69048119b58c5,001,2024-06-07_12h01.22.599,empathy_intonation_perc,2024.1.4,Win32,59.88023952,,,,,,,,,,,,,,125,ceme,,,,,,100.1989,101.1126,0,1,0.3874,,0,58,58,124,1,pseudoword,0,REAL,FALSA
,,,,,,,,,63e646333cb69048119b58c5,001,2024-06-07_12h01.22.599,empathy_intonation_perc,2024.1.4,Win32,59.88023952,,,,,,,,,,,,,,12,plan,,,,,,101.1136,102.2778,0,1,0.6293,,0,59,59,11,1,three_way_cognate,1,REAL,FALSA
,,,,,,,,,63e646333cb69048119b58c5,001,2024-06-07_12h01.22.599,empathy_intonation_perc,2024.1.4,Win32,59.88023952,,,,,,,,,,,,,,143,pledú,,,,,,102.2782,103.4099,0,1,0.5986,,0,60,60,142,1,pseudoword,0,REAL,FALSA
,,,,,,,,,63e646333cb69048119b58c5,001,2024-06-07_12h01.22.599,empathy_intonation_perc,2024.1.4,Win32,59.88023952,,,,,,,,,,,,,,127,vien,,,,,,103.4104,104.4421,1,0,0.4999,,0,61,61,126,1,pseudoword,0,REAL,FALSA
,,,,,,,,,63e646333cb69048119b58c5,001,2024-06-07_12h01.22.599,empathy_intonation_perc,2024.1.4,Win32,59.88023952,,,,,,,,,,,,,,92,flecha,,,,,,104.4426,105.4242,1,0,0.4457,,0,62,62,91,1,non_cognate,1,REAL,FALSA
,,,,,,,,,63e646333cb69048119b58c5,001,2024-06-07_12h01.22.599,empathy_intonation_perc,2024.1.4,Win32,59.88023952,,,,,,,,,,,,,,126,anicio,,,,,,105.4246,106.4911,1,0,0.5329,,0,63,63,125,1,pseudoword,0,REAL,FALSA
,,,,,,,,,63e646333cb69048119b58c5,001,2024-06-07_12h01.22.599,empathy_intonation_perc,2024.1.4,Win32,59.88023952,,,,,,,,,,,,,,77,suave,,,,,,106.4915,107.6724,0,1,0.6486,,0,64,64,76,1,non_cognate,1,REAL,FALSA
,,,,,,,,,63e646333cb69048119b58c5,001,2024-06-07_12h01.22.599,empathy_intonation_perc,2024.1.4,Win32,59.88023952,,,,,,,,,,,,,,106,baurá,,,,,,107.6733,108.5211,1,0,0.3157,,0,65,65,105,1,pseudoword,0,REAL,FALSA
,,,,,,,,,63e646333cb69048119b58c5,001,2024-06-07_12h01.22.599,empathy_intonation_perc,2024.1.4,Win32,59.88023952,,,,,,,,,,,,,,52,blando,,,,,,108.5222,155.8083,1,0,46.7607,,0,66,66,51,1,non_cognate,1,REAL,FALSA
,,,,,,,,,63e646333cb69048119b58c5,001,2024-06-07_12h01.22.599,empathy_intonation_perc,2024.1.4,Win32,59.88023952,,,,,,,,,,,,,,76,chocar,,,,,,155.8086,156.7181,1,0,0.3635,,0,67,67,75,1,non_cognate,1,REAL,FALSA
,,,,,,,,,63e646333cb69048119b58c5,001,2024-06-07_12h01.22.599,empathy_intonation_perc,2024.1.4,Win32,59.88023952,,,,,,,,,,,,,,95,listo,,,,,,156.7193,157.7322,1,0,0.481,,0,68,68,94,1,non_cognate,1,REAL,FALSA
,,,,,,,,,63e646333cb69048119b58c5,001,2024-06-07_12h01.22.599,empathy_intonation_perc,2024.1.4,Win32,59.88023952,,,,,,,,,,,,,,7,kilo,,,,,,157.7331,158.8153,0,1,0.5386,,0,69,69,6,1,three_way_cognate,1,REAL,FALSA
,,,,,,,,,63e646333cb69048119b58c5,001,2024-06-07_12h01.22.599,empathy_intonation_perc,2024.1.4,Win32,59.88023952,,,,,,,,,,,,,,24,retina,,,,,,158.8157,160.1804,0,1,0.8376,,0,70,70,23,1,three_way_cognate,1,REAL,FALSA
,,,,,,,,,63e646333cb69048119b58c5,001,2024-06-07_12h01.22.599,empathy_intonation_perc,2024.1.4,Win32,59.88023952,,,,,,,,,,,,,,88,percha,,,,,,160.1807,161.3791,1,0,0.6653,,0,71,71,87,1,non_cognate,1,REAL,FALSA
,,,,,,,,,63e646333cb69048119b58c5,001,2024-06-07_12h01.22.599,empathy_intonation_perc,2024.1.4,Win32,59.88023952,,,,,,,,,,,,,,9,drama,,,,,,161.3794,162.8607,1,0,0.952,,0,72,72,8,1,three_way_cognate,1,REAL,FALSA
,,,,,,,,,63e646333cb69048119b58c5,001,2024-06-07_12h01.22.599,empathy_intonation_perc,2024.1.4,Win32,59.88023952,,,,,,,,,,,,,,135,macayó,,,,,,162.861,164.0418,1,0,0.651,,0,73,73,134,1,pseudoword,0,REAL,FALSA
,,,,,,,,,63e646333cb69048119b58c5,001,2024-06-07_12h01.22.599,empathy_intonation_perc,2024.1.4,Win32,59.88023952,,,,,,,,,,,,,,83,hálito,,,,,,164.0427,165.8569,1,0,1.2778,,0,74,74,82,1,non_cognate,1,REAL,FALSA
,,,,,,,,,63e646333cb69048119b58c5,001,2024-06-07_12h01.22.599,empathy_intonation_perc,2024.1.4,Win32,59.88023952,,,,,,,,,,,,,,66,aleta,,,,,,165.8575,167.8713,1,0,1.4835,,0,75,75,65,1,non_cognate,1,REAL,FALSA
,,,,,,,,,63e646333cb69048119b58c5,001,2024-06-07_12h01.22.599,empathy_intonation_perc,2024.1.4,Win32,59.88023952,,,,,,,,,,,,,,23,porno,,,,,,167.8718,168.9693,0,1,0.5656,,0,76,76,22,1,three_way_cognate,1,REAL,FALSA
,,,,,,,,,63e646333cb69048119b58c5,001,2024-06-07_12h01.22.599,empathy_intonation_perc,2024.1.4,Win32,59.88023952,,,,,,,,,,,,,,96,caro,,,,,,168.9704,170.284,1,0,0.7789,,0,77,77,95,1,non_cognate,1,REAL,FALSA
,,,,,,,,,63e646333cb69048119b58c5,001,2024-06-07_12h01.22.599,empathy_intonation_perc,2024.1.4,Win32,59.88023952,,,,,,,,,,,,,,99,mieris,,,,,,170.2845,171.3169,1,0,0.4959,,0,78,78,98,1,pseudoword,0,REAL,FALSA
,,,,,,,,,63e646333cb69048119b58c5,001,2024-06-07_12h01.22.599,empathy_intonation_perc,2024.1.4,Win32,59.88023952,,,,,,,,,,,,,,61,aduana,,,,,,171.3179,172.5322,1,0,0.679,,0,79,79,60,1,non_cognate,1,REAL,FALSA
,,,,,,,,,63e646333cb69048119b58c5,001,2024-06-07_12h01.22.599,empathy_intonation_perc,2024.1.4,Win32,59.88023952,,,,,,,,,,,,,,122,gravés,,,,,,172.5331,174.4295,1,0,1.365,,0,80,80,121,1,pseudoword,0,REAL,FALSA
,,,,,,,,,63e646333cb69048119b58c5,001,2024-06-07_12h01.22.599,empathy_intonation_perc,2024.1.4,Win32,59.88023952,,,,,,,,,,,,,,59,feo,,,,,,174.4301,175.4797,1,0,0.5135,,0,81,81,58,1,non_cognate,1,REAL,FALSA
,,,,,,,,,63e646333cb69048119b58c5,001,2024-06-07_12h01.22.599,empathy_intonation_perc,2024.1.4,Win32,59.88023952,,,,,,,,,,,,,,43,honor,,,,,,175.4801,177.8593,1,0,1.8479,,0,82,82,42,1,two_way_cognate,1,REAL,FALSA
,,,,,,,,,63e646333cb69048119b58c5,001,2024-06-07_12h01.22.599,empathy_intonation_perc,2024.1.4,Win32,59.88023952,,,,,,,,,,,,,,39,casual,,,,,,177.8604,178.9589,1,0,0.5708,,0,83,83,38,1,two_way_cognate,1,REAL,FALSA
,,,,,,,,,63e646333cb69048119b58c5,001,2024-06-07_12h01.22.599,empathy_intonation_perc,2024.1.4,Win32,59.88023952,,,,,,,,,,,,,,101,fertes,,,,,,178.9593,180.5724,0,1,1.0783,,0,84,84,100,1,pseudoword,0,REAL,FALSA
,,,,,,,,,63e646333cb69048119b58c5,001,2024-06-07_12h01.22.599,empathy_intonation_perc,2024.1.4,Win32,59.88023952,,,,,,,,,,,,,,57,regalo,,,,,,180.5729,182.3208,0,1,1.2313,,0,85,85,56,1,non_cognate,1,REAL,FALSA
,,,,,,,,,63e646333cb69048119b58c5,001,2024-06-07_12h01.22.599,empathy_intonation_perc,2024.1.4,Win32,59.88023952,,,,,,,,,,,,,,128,pelí,,,,,,182.3217,183.5539,1,0,0.6975,,0,86,86,127,1,pseudoword,0,REAL,FALSA
,,,,,,,,,63e646333cb69048119b58c5,001,2024-06-07_12h01.22.599,empathy_intonation_perc,2024.1.4,Win32,59.88023952,,,,,,,,,,,,,,54,tapón,,,,,,183.5542,184.6361,1,0,0.5462,,0,87,87,53,1,non_cognate,1,REAL,FALSA
,,,,,,,,,63e646333cb69048119b58c5,001,2024-06-07_12h01.22.599,empathy_intonation_perc,2024.1.4,Win32,59.88023952,,,,,,,,,,,,,,11,dogma,,,,,,184.6365,185.8665,1,0,0.6974,,0,88,88,10,1,three_way_cognate,1,REAL,FALSA
,,,,,,,,,63e646333cb69048119b58c5,001,2024-06-07_12h01.22.599,empathy_intonation_perc,2024.1.4,Win32,59.88023952,,,,,,,,,,,,,,1,tumor,,,,,,185.867,189.1643,1,0,2.7647,,0,89,89,0,1,three_way_cognate,1,REAL,FALSA
,,,,,,,,,63e646333cb69048119b58c5,001,2024-06-07_12h01.22.599,empathy_intonation_perc,2024.1.4,Win32,59.88023952,,,,,,,,,,,,,,116,crene,,,,,,189.176,190.5115,1,0,0.8147,,0,90,90,115,1,pseudoword,0,REAL,FALSA
,,,,,,,,,63e646333cb69048119b58c5,001,2024-06-07_12h01.22.599,empathy_intonation_perc,2024.1.4,Win32,59.88023952,,,,,,,,,,,,,,94,forro,,,,,,190.5124,192.2441,1,0,1.1985,,0,91,91,93,1,non_cognate,1,REAL,FALSA
,,,,,,,,,63e646333cb69048119b58c5,001,2024-06-07_12h01.22.599,empathy_intonation_perc,2024.1.4,Win32,59.88023952,,,,,,,,,,,,,,98,erede,,,,,,192.2445,193.1248,0,1,0.35,,0,92,92,97,1,pseudoword,0,REAL,FALSA
,,,,,,,,,63e646333cb69048119b58c5,001,2024-06-07_12h01.22.599,empathy_intonation_perc,2024.1.4,Win32,59.88023952,,,,,,,,,,,,,,5,horror,,,,,,193.1254,194.1739,1,0,0.5165,,0,93,93,4,1,three_way_cognate,1,REAL,FALSA
,,,,,,,,,63e646333cb69048119b58c5,001,2024-06-07_12h01.22.599,empathy_intonation_perc,2024.1.4,Win32,59.88023952,,,,,,,,,,,,,,48,pelvis,,,,,,194.1746,195.3226,1,0,0.6174,,0,94,94,47,1,two_way_cognate,1,REAL,FALSA
,,,,,,,,,63e646333cb69048119b58c5,001,2024-06-07_12h01.22.599,empathy_intonation_perc,2024.1.4,Win32,59.88023952,,,,,,,,,,,,,,60,siglo,,,,,,195.3236,197.2051,1,0,1.3446,,0,95,95,59,1,non_cognate,1,REAL,FALSA
,,,,,,,,,63e646333cb69048119b58c5,001,2024-06-07_12h01.22.599,empathy_intonation_perc,2024.1.4,Win32,59.88023952,,,,,,,,,,,,,,13,aura,,,,,,197.2055,198.5522,1,0,0.815,,0,96,96,12,1,three_way_cognate,1,REAL,FALSA
,,,,,,,,,63e646333cb69048119b58c5,001,2024-06-07_12h01.22.599,empathy_intonation_perc,2024.1.4,Win32,59.88023952,,,,,,,,,,,,,,65,guerra,,,,,,198.5527,199.4514,0,1,0.3647,,0,97,97,64,1,non_cognate,1,REAL,FALSA
,,,,,,,,,63e646333cb69048119b58c5,001,2024-06-07_12h01.22.599,empathy_intonation_perc,2024.1.4,Win32,59.88023952,,,,,,,,,,,,,,137,unglés,,,,,,199.4524,200.8011,0,1,0.8116,,0,98,98,136,1,pseudoword,0,REAL,FALSA
,,,,,,,,,63e646333cb69048119b58c5,001,2024-06-07_12h01.22.599,empathy_intonation_perc,2024.1.4,Win32,59.88023952,,,,,,,,,,,,,,25,vigor,,,,,,200.8014,203.0972,0,1,1.7651,,0,99,99,24,1,two_way_cognate,1,REAL,FALSA
,,,,,,,,,63e646333cb69048119b58c5,001,2024-06-07_12h01.22.599,empathy_intonation_perc,2024.1.4,Win32,59.88023952,,,,,,,,,,,,,,40,pelvis,,,,,,203.0981,204.0473,1,0,0.4171,,0,100,100,39,1,two_way_cognate,1,REAL,FALSA
,,,,,,,,,63e646333cb69048119b58c5,001,2024-06-07_12h01.22.599,empathy_intonation_perc,2024.1.4,Win32,59.88023952,,,,,,,,,,,,,,124,lobe,,,,,,204.0476,204.9293,0,1,0.3454,,0,101,101,123,1,pseudoword,0,REAL,FALSA
,,,,,,,,,63e646333cb69048119b58c5,001,2024-06-07_12h01.22.599,empathy_intonation_perc,2024.1.4,Win32,59.88023952,,,,,,,,,,,,,,34,actor,,,,,,204.9298,206.3281,1,0,0.8672,,0,102,102,33,1,two_way_cognate,1,REAL,FALSA
,,,,,,,,,63e646333cb69048119b58c5,001,2024-06-07_12h01.22.599,empathy_intonation_perc,2024.1.4,Win32,59.88023952,,,,,,,,,,,,,,86,cuenco,,,,,,206.3285,207.5419,1,0,0.6788,,0,103,103,85,1,non_cognate,1,REAL,FALSA
,,,,,,,,,63e646333cb69048119b58c5,001,2024-06-07_12h01.22.599,empathy_intonation_perc,2024.1.4,Win32,59.88023952,,,,,,,,,,,,,,91,equipo,,,,,,207.5424,208.9247,0,1,0.8671,,0,104,104,90,1,non_cognate,1,REAL,FALSA
,,,,,,,,,63e646333cb69048119b58c5,001,2024-06-07_12h01.22.599,empathy_intonation_perc,2024.1.4,Win32,59.88023952,,,,,,,,,,,,,,46,mortal,,,,,,208.9254,211.1878,1,0,1.7318,,0,105,105,45,1,two_way_cognate,1,REAL,FALSA
,,,,,,,,,63e646333cb69048119b58c5,001,2024-06-07_12h01.22.599,empathy_intonation_perc,2024.1.4,Win32,59.88023952,,,,,,,,,,,,,,110,vacapó,,,,,,211.1973,212.7202,0,1,0.9952,,0,106,106,109,1,pseudoword,0,REAL,FALSA
,,,,,,,,,63e646333cb69048119b58c5,001,2024-06-07_12h01.22.599,empathy_intonation_perc,2024.1.4,Win32,59.88023952,,,,,,,,,,,,,,111,vibler,,,,,,212.7211,213.9695,1,0,0.719,,0,107,107,110,1,pseudoword,0,REAL,FALSA
,,,,,,,,,63e646333cb69048119b58c5,001,2024-06-07_12h01.22.599,empathy_intonation_perc,2024.1.4,Win32,59.88023952,,,,,,,,,,,,,,36,viable,,,,,,213.9699,215.6678,1,0,1.1627,,0,108,108,35,1,two_way_cognate,1,REAL,FALSA
,,,,,,,,,63e646333cb69048119b58c5,001,2024-06-07_12h01.22.599,empathy_intonation_perc,2024.1.4,Win32,59.88023952,,,,,,,,,,,,,,107,plamos,,,,,,215.6682,216.8151,1,0,0.6155,,0,109,109,106,1,pseudoword,0,REAL,FALSA
,,,,,,,,,63e646333cb69048119b58c5,001,2024-06-07_12h01.22.599,empathy_intonation_perc,2024.1.4,Win32,59.88023952,,,,,,,,,,,,,,136,sopleó,,,,,,216.8162,217.7978,0,1,0.4486,,0,110,110,135,1,pseudoword,0,REAL,FALSA
,,,,,,,,,63e646333cb69048119b58c5,001,2024-06-07_12h01.22.599,empathy_intonation_perc,2024.1.4,Win32,59.88023952,,,,,,,,,,,,,,33,collar,,,,,,217.7986,218.7795,1,0,0.4499,,0,111,111,32,1,two_way_cognate,1,REAL,FALSA
,,,,,,,,,63e646333cb69048119b58c5,001,2024-06-07_12h01.22.599,empathy_intonation_perc,2024.1.4,Win32,59.88023952,,,,,,,,,,,,,,37,torso,,,,,,218.7805,219.8285,1,0,0.5183,,0,112,112,36,1,two_way_cognate,1,REAL,FALSA
,,,,,,,,,63e646333cb69048119b58c5,001,2024-06-07_12h01.22.599,empathy_intonation_perc,2024.1.4,Win32,59.88023952,,,,,,,,,,,,,,4,extra,,,,,,219.8296,220.7947,1,0,0.4332,,0,113,113,3,1,three_way_cognate,1,REAL,FALSA
,,,,,,,,,63e646333cb69048119b58c5,001,2024-06-07_12h01.22.599,empathy_intonation_perc,2024.1.4,Win32,59.88023952,,,,,,,,,,,,,,103,babes,,,,,,220.7953,221.859,0,1,0.5335,,0,114,114,102,1,pseudoword,0,REAL,FALSA
,,,,,,,,,63e646333cb69048119b58c5,001,2024-06-07_12h01.22.599,empathy_intonation_perc,2024.1.4,Win32,59.88023952,,,,,,,,,,,,,,14,test,,,,,,221.8595,223.8569,1,0,1.4686,,0,115,115,13,1,three_way_cognate,1,REAL,FALSA
,,,,,,,,,63e646333cb69048119b58c5,001,2024-06-07_12h01.22.599,empathy_intonation_perc,2024.1.4,Win32,59.88023952,,,,,,,,,,,,,,21,mango,,,,,,223.8573,225.4887,1,0,1.1152,,0,116,116,20,1,three_way_cognate,1,REAL,FALSA
,,,,,,,,,63e646333cb69048119b58c5,001,2024-06-07_12h01.22.599,empathy_intonation_perc,2024.1.4,Win32,59.88023952,,,,,,,,,,,,,,62,pegar,,,,,,225.4896,226.6874,1,0,0.6629,,0,117,117,61,1,non_cognate,1,REAL,FALSA
,,,,,,,,,63e646333cb69048119b58c5,001,2024-06-07_12h01.22.599,empathy_intonation_perc,2024.1.4,Win32,59.88023952,,,,,,,,,,,,,,97,hufón,,,,,,226.6883,228.8018,1,0,1.5839,,0,118,118,96,1,pseudoword,0,REAL,FALSA
,,,,,,,,,63e646333cb69048119b58c5,001,2024-06-07_12h01.22.599,empathy_intonation_perc,2024.1.4,Win32,59.88023952,,,,,,,,,,,,,,26,enigma,,,,,,228.8027,229.5005,0,1,0.1627,,0,119,119,25,1,two_way_cognate,1,REAL,FALSA
,,,,,,,,,63e646333cb69048119b58c5,001,2024-06-07_12h01.22.599,empathy_intonation_perc,2024.1.4,Win32,59.88023952,,,,,,,,,,,,,,74,ala,,,,,,229.501,235.4109,1,0,5.377,,0,120,120,73,1,non_cognate,1,REAL,FALSA
,,,,,,,,,63e646333cb69048119b58c5,001,2024-06-07_12h01.22.599,empathy_intonation_perc,2024.1.4,Win32,59.88023952,,,,,,,,,,,,,,117,apunan,,,,,,235.4209,238.1924,1,0,2.2517,,0,121,121,116,1,pseudoword,0,REAL,FALSA
,,,,,,,,,63e646333cb69048119b58c5,001,2024-06-07_12h01.22.599,empathy_intonation_perc,2024.1.4,Win32,59.88023952,,,,,,,,,,,,,,134,fruzas,,,,,,238.1928,239.2733,1,0,0.5411,,0,122,122,133,1,pseudoword,0,REAL,FALSA
,,,,,,,,,63e646333cb69048119b58c5,001,2024-06-07_12h01.22.599,empathy_intonation_perc,2024.1.4,Win32,59.88023952,,,,,,,,,,,,,,87,muleta,,,,,,239.2743,240.2389,1,0,0.4251,,0,123,123,86,1,non_cognate,1,REAL,FALSA
,,,,,,,,,63e646333cb69048119b58c5,001,2024-06-07_12h01.22.599,empathy_intonation_perc,2024.1.4,Win32,59.88023952,,,,,,,,,,,,,,132,nocó,,,,,,240.2398,242.6704,1,0,1.9025,,0,124,124,131,1,pseudoword,0,REAL,FALSA
,,,,,,,,,63e646333cb69048119b58c5,001,2024-06-07_12h01.22.599,empathy_intonation_perc,2024.1.4,Win32,59.88023952,,,,,,,,,,,,,,105,curgué,,,,,,242.6707,243.6345,0,1,0.4371,,0,125,125,104,1,pseudoword,0,REAL,FALSA
,,,,,,,,,63e646333cb69048119b58c5,001,2024-06-07_12h01.22.599,empathy_intonation_perc,2024.1.4,Win32,59.88023952,,,,,,,,,,,,,,81,sacar,,,,,,243.635,245.1994,1,0,1.0347,,0,126,126,80,1,non_cognate,1,REAL,FALSA
,,,,,,,,,63e646333cb69048119b58c5,001,2024-06-07_12h01.22.599,empathy_intonation_perc,2024.1.4,Win32,59.88023952,,,,,,,,,,,,,,42,rumor,,,,,,245.2001,246.3156,1,0,0.5828,,0,127,127,41,1,two_way_cognate,1,REAL,FALSA
,,,,,,,,,63e646333cb69048119b58c5,001,2024-06-07_12h01.22.599,empathy_intonation_perc,2024.1.4,Win32,59.88023952,,,,,,,,,,,,,,121,rombar,,,,,,246.3165,247.3805,0,1,0.5351,,0,128,128,120,1,pseudoword,0,REAL,FALSA
,,,,,,,,,63e646333cb69048119b58c5,001,2024-06-07_12h01.22.599,empathy_intonation_perc,2024.1.4,Win32,59.88023952,,,,,,,,,,,,,,47,color,,,,,,247.3816,248.3625,1,0,0.45,,0,129,129,46,1,two_way_cognate,1,REAL,FALSA
,,,,,,,,,63e646333cb69048119b58c5,001,2024-06-07_12h01.22.599,empathy_intonation_perc,2024.1.4,Win32,59.88023952,,,,,,,,,,,,,,115,civas,,,,,,248.3635,249.1464,1,0,0.2456,,0,130,130,114,1,pseudoword,0,REAL,FALSA
,,,,,,,,,63e646333cb69048119b58c5,001,2024-06-07_12h01.22.599,empathy_intonation_perc,2024.1.4,Win32,59.88023952,,,,,,,,,,,,,,129,suchas,,,,,,249.1468,249.8441,1,0,0.1677,,0,131,131,128,1,pseudoword,0,REAL,FALSA
,,,,,,,,,63e646333cb69048119b58c5,001,2024-06-07_12h01.22.599,empathy_intonation_perc,2024.1.4,Win32,59.88023952,,,,,,,,,,,,,,58,colcha,,,,,,249.8446,250.7435,1,0,0.3659,,0,132,132,57,1,non_cognate,1,REAL,FALSA
,,,,,,,,,63e646333cb69048119b58c5,001,2024-06-07_12h01.22.599,empathy_intonation_perc,2024.1.4,Win32,59.88023952,,,,,,,,,,,,,,102,coyo,,,,,,250.7445,251.6257,1,0,0.3536,,0,133,133,101,1,pseudoword,0,REAL,FALSA
,,,,,,,,,63e646333cb69048119b58c5,001,2024-06-07_12h01.22.599,empathy_intonation_perc,2024.1.4,Win32,59.88023952,,,,,,,,,,,,,,114,potos,,,,,,251.6268,252.4746,0,1,0.3165,,0,134,134,113,1,pseudoword,0,REAL,FALSA
,,,,,,,,,63e646333cb69048119b58c5,001,2024-06-07_12h01.22.599,empathy_intonation_perc,2024.1.4,Win32,59.88023952,,,,,,,,,,,,,,18,mafia,,,,,,252.4754,253.4733,1,0,0.4709,,0,135,135,17,1,three_way_cognate,1,REAL,FALSA
,,,,,,,,,63e646333cb69048119b58c5,001,2024-06-07_12h01.22.599,empathy_intonation_perc,2024.1.4,Win32,59.88023952,,,,,,,,,,,,,,30,fiscal,,,,,,253.4739,254.3572,0,1,0.3499,,0,136,136,29,1,two_way_cognate,1,REAL,FALSA
,,,,,,,,,63e646333cb69048119b58c5,001,2024-06-07_12h01.22.599,empathy_intonation_perc,2024.1.4,Win32,59.88023952,,,,,,,,,,,,,,45,total,,,,,,254.3575,255.3379,1,0,0.4455,,0,137,137,44,1,two_way_cognate,1,REAL,FALSA
,,,,,,,,,63e646333cb69048119b58c5,001,2024-06-07_12h01.22.599,empathy_intonation_perc,2024.1.4,Win32,59.88023952,,,,,,,,,,,,,,20,hotel,,,,,,255.3384,256.5039,1,0,0.6457,,0,138,138,19,1,three_way_cognate,1,REAL,FALSA
,,,,,,,,,63e646333cb69048119b58c5,001,2024-06-07_12h01.22.599,empathy_intonation_perc,2024.1.4,Win32,59.88023952,,,,,,,,,,,,,,104,vitra,,,,,,256.5047,257.8187,1,0,0.7771,,0,139,139,103,1,pseudoword,0,REAL,FALSA
,,,,,,,,,63e646333cb69048119b58c5,001,2024-06-07_12h01.22.599,empathy_intonation_perc,2024.1.4,Win32,59.88023952,,,,,,,,,,,,,,109,hágino,,,,,,257.8197,259.1335,0,1,0.7806,,0,140,140,108,1,pseudoword,0,REAL,FALSA
,,,,,,,,,63e646333cb69048119b58c5,001,2024-06-07_12h01.22.599,empathy_intonation_perc,2024.1.4,Win32,59.88023952,,,,,,,,,,,,,,84,aviso,,,,,,259.134,260.5334,0,1,0.8722,,0,141,141,83,1,non_cognate,1,REAL,FALSA
,,,,,,,,,63e646333cb69048119b58c5,001,2024-06-07_12h01.22.599,empathy_intonation_perc,2024.1.4,Win32,59.88023952,,,,,,,,,,,,,,27,piano,,,,,,260.5339,263.5468,1,0,2.4792,,0,142,142,26,1,two_way_cognate,1,REAL,FALSA
,,,,,,,,,63e646333cb69048119b58c5,001,2024-06-07_12h01.22.599,empathy_intonation_perc,2024.1.4,Win32,59.88023952,,,,,,,,,,,,,,31,civil,,,,,,263.5562,264.8274,1,0,0.7468,,0,143,143,30,1,two_way_cognate,1,REAL,FALSA
