lextale_instructions.started,lextale_instructions.stopped,lextale_instructions_loop.thisRepN,lextale_instructions_loop.thisTrialN,lextale_instructions_loop.thisN,lextale_instructions_loop.thisIndex,lextale_instructions_loop.ran,instructions_text,continue_text,participant,session,date,expName,psychopyVersion,OS,frameRate,lextale_practice.started,lextale_practice.stopped,key_resp_lextale_practice.keys,key_resp_lextale_practice.corr,key_resp_lextale_practice.rt,key_resp_lextale_practice.duration,lextale_practice_feedback.started,lextale_practice_feedback.stopped,lextale_practice_trials.thisRepN,lextale_practice_trials.thisTrialN,lextale_practice_trials.thisN,lextale_practice_trials.thisIndex,lextale_practice_trials.ran,stim,word,correct_response,prac_button_real,prac_button_false,lextale_check.started,lextale_check.stopped,lextale_trial.started,lextale_trial.stopped,key_resp_lextale_trial.keys,key_resp_lextale_trial.corr,key_resp_lextale_trial.rt,key_resp_lextale_trial.duration,lextail_trials.thisRepN,lextail_trials.thisTrialN,lextail_trials.thisN,lextail_trials.thisIndex,lextail_trials.ran,type,correct_reponse,button_real,button_false
0.0053,35.43,0,0,0,0,1,"Este es un test de vocabulario en español. 
  
  A continuación vas a ver 90 secuencias de letras que parecen 'españolas'.
  
  Solo algunas de ellas son palabras de verdad.",(presiona la barra espaciadora para continuar),63e646333cb69048119b58c5,001,2024-06-07_11h55.50.760,empathy_intonation_perc,2024.1.4,Win32,59.88023952,,,,,,,,,,,,,,,,,,,,,,,,,,,,,,,,,,,
35.4306,38.0389,0,1,1,1,1,"Por favor, señala las palabras que tú conoces (aquellas que estás convencido que son palabras españolas, incluso aunque no seas capaz de dar el significado preciso).",(presiona la barra espaciadora para continuar),63e646333cb69048119b58c5,001,2024-06-07_11h55.50.760,empathy_intonation_perc,2024.1.4,Win32,59.88023952,,,,,,,,,,,,,,,,,,,,,,,,,,,,,,,,,,,
38.0392,41.4846,0,2,2,2,1,Pero cuidado: los errores se penalizan. Por eso no tiene sentido tratar de incrementar tu puntuación marcando como reales palabras que nunca has visto.,(presiona la barra espaciadora para continuar),63e646333cb69048119b58c5,001,2024-06-07_11h55.50.760,empathy_intonation_perc,2024.1.4,Win32,59.88023952,,,,,,,,,,,,,,,,,,,,,,,,,,,,,,,,,,,
41.4939,45.9962,0,3,3,3,1,"Presiona la tecla 1 si piensas que es una palabra real y la tecla 
  0 si piensas que es una palabra falsa. 
  
  Vamos a practicar un poco...",(presiona la barra espaciadora para continuar),63e646333cb69048119b58c5,001,2024-06-07_11h55.50.760,empathy_intonation_perc,2024.1.4,Win32,59.88023952,,,,,,,,,,,,,,,,,,,,,,,,,,,,,,,,,,,
,,,,,,,,,63e646333cb69048119b58c5,001,2024-06-07_11h55.50.760,empathy_intonation_perc,2024.1.4,Win32,59.88023952,46.0211,47.1853,1,0,0.632,,47.1855,48.1832,0,0,0,0,1,0,depiste,0,REAL,FALSA,,,,,,,,,,,,,,,,,
,,,,,,,,,63e646333cb69048119b58c5,001,2024-06-07_11h55.50.760,empathy_intonation_perc,2024.1.4,Win32,59.88023952,48.1836,49.5487,1,1,0.8317,,49.5488,50.5405,0,1,1,1,1,0,sí,1,REAL,FALSA,,,,,,,,,,,,,,,,,
,,,,,,,,,63e646333cb69048119b58c5,001,2024-06-07_11h55.50.760,empathy_intonation_perc,2024.1.4,Win32,59.88023952,50.5419,52.6614,1,0,1.5803,,52.6614,53.6598,0,2,2,2,1,0,coné,0,REAL,FALSA,,,,,,,,,,,,,,,,,
,,,,,,,,,63e646333cb69048119b58c5,001,2024-06-07_11h55.50.760,empathy_intonation_perc,2024.1.4,Win32,59.88023952,53.6707,56.974,0,1,2.763,,56.9741,57.9661,0,3,3,3,1,0,calpar,0,REAL,FALSA,,,,,,,,,,,,,,,,,
,,,,,,,,,63e646333cb69048119b58c5,001,2024-06-07_11h55.50.760,empathy_intonation_perc,2024.1.4,Win32,59.88023952,57.9763,59.4204,0,1,0.9146,,59.4204,60.4149,0,4,4,4,1,0,joten,0,REAL,FALSA,,,,,,,,,,,,,,,,,
,,,,,,,,,63e646333cb69048119b58c5,001,2024-06-07_11h55.50.760,empathy_intonation_perc,2024.1.4,Win32,59.88023952,60.4153,61.9456,1,1,0.987,,61.946,62.9442,0,5,5,5,1,0,sacapuntas,1,REAL,FALSA,,,,,,,,,,,,,,,,,
,,,,,,,,,63e646333cb69048119b58c5,001,2024-06-07_11h55.50.760,empathy_intonation_perc,2024.1.4,Win32,59.88023952,62.9448,64.3816,1,0,0.8982,,64.3817,65.3799,0,6,6,6,1,0,priba,0,REAL,FALSA,,,,,,,,,,,,,,,,,
,,,,,,,,,63e646333cb69048119b58c5,001,2024-06-07_11h55.50.760,empathy_intonation_perc,2024.1.4,Win32,59.88023952,65.3803,66.4231,1,0,0.4991,,66.4235,67.4111,0,7,7,7,1,0,pelasula,0,REAL,FALSA,,,,,,,,,,,,,,,,,
,,,,,,,,,63e646333cb69048119b58c5,001,2024-06-07_11h55.50.760,empathy_intonation_perc,2024.1.4,Win32,59.88023952,67.4115,68.8596,1,1,0.9143,,68.8598,69.851,0,8,8,8,1,0,bien,1,REAL,FALSA,,,,,,,,,,,,,,,,,
,,,,,,,,,63e646333cb69048119b58c5,001,2024-06-07_11h55.50.760,empathy_intonation_perc,2024.1.4,Win32,59.88023952,69.8623,71.3324,1,1,0.9317,,71.3325,72.3332,0,9,9,9,1,0,casa,1,REAL,FALSA,,,,,,,,,,,,,,,,,
,,,,,,,,,63e646333cb69048119b58c5,001,2024-06-07_11h55.50.760,empathy_intonation_perc,2024.1.4,Win32,59.88023952,72.3343,73.5303,0,1,0.6541,,73.5303,74.5356,0,10,10,10,1,0,lejo,0,REAL,FALSA,,,,,,,,,,,,,,,,,
,,,,,,,,,63e646333cb69048119b58c5,001,2024-06-07_11h55.50.760,empathy_intonation_perc,2024.1.4,Win32,59.88023952,74.5359,75.9946,0,1,0.9154,,75.9947,76.9837,0,11,11,11,1,0,pretantas,0,REAL,FALSA,,,,,,,,,,,,,,,,,
,,,,,,,,,63e646333cb69048119b58c5,001,2024-06-07_11h55.50.760,empathy_intonation_perc,2024.1.4,Win32,59.88023952,,,,,,,,,,,,,,,,,,,76.9843,78.9934,,,,,,,,,,,,,,,
,,,,,,,,,63e646333cb69048119b58c5,001,2024-06-07_11h55.50.760,empathy_intonation_perc,2024.1.4,Win32,59.88023952,,,,,,,,,,,,,,7,kilo,,,,,,79.0151,80.3264,0,1,0.7775,,0,0,0,6,1,three_way_cognate,1,REAL,FALSA
,,,,,,,,,63e646333cb69048119b58c5,001,2024-06-07_11h55.50.760,empathy_intonation_perc,2024.1.4,Win32,59.88023952,,,,,,,,,,,,,,119,esís,,,,,,80.3268,81.8399,1,0,0.9732,,0,1,1,118,1,pseudoword,0,REAL,FALSA
,,,,,,,,,63e646333cb69048119b58c5,001,2024-06-07_11h55.50.760,empathy_intonation_perc,2024.1.4,Win32,59.88023952,,,,,,,,,,,,,,48,pelvis,,,,,,81.8404,82.9442,1,0,0.5818,,0,2,2,47,1,two_way_cognate,1,REAL,FALSA
,,,,,,,,,63e646333cb69048119b58c5,001,2024-06-07_11h55.50.760,empathy_intonation_perc,2024.1.4,Win32,59.88023952,,,,,,,,,,,,,,112,cituló,,,,,,82.9445,84.0515,0,1,0.5736,,0,3,3,111,1,pseudoword,0,REAL,FALSA
,,,,,,,,,63e646333cb69048119b58c5,001,2024-06-07_11h55.50.760,empathy_intonation_perc,2024.1.4,Win32,59.88023952,,,,,,,,,,,,,,38,halo,,,,,,84.052,85.45,0,1,0.871,,0,4,4,37,1,two_way_cognate,1,REAL,FALSA
,,,,,,,,,63e646333cb69048119b58c5,001,2024-06-07_11h55.50.760,empathy_intonation_perc,2024.1.4,Win32,59.88023952,,,,,,,,,,,,,,131,fuar,,,,,,85.4503,86.9059,0,1,0.9312,,0,5,5,130,1,pseudoword,0,REAL,FALSA
,,,,,,,,,63e646333cb69048119b58c5,001,2024-06-07_11h55.50.760,empathy_intonation_perc,2024.1.4,Win32,59.88023952,,,,,,,,,,,,,,75,patada,,,,,,86.9063,88.4883,1,0,1.0483,,0,6,6,74,1,non_cognate,1,REAL,FALSA
,,,,,,,,,63e646333cb69048119b58c5,001,2024-06-07_11h55.50.760,empathy_intonation_perc,2024.1.4,Win32,59.88023952,,,,,,,,,,,,,,71,torta,,,,,,88.4886,89.5371,1,0,0.5154,,0,7,7,70,1,non_cognate,1,REAL,FALSA
,,,,,,,,,63e646333cb69048119b58c5,001,2024-06-07_11h55.50.760,empathy_intonation_perc,2024.1.4,Win32,59.88023952,,,,,,,,,,,,,,82,brillo,,,,,,89.5375,90.5296,0,1,0.4495,,0,8,8,81,1,non_cognate,1,REAL,FALSA
,,,,,,,,,63e646333cb69048119b58c5,001,2024-06-07_11h55.50.760,empathy_intonation_perc,2024.1.4,Win32,59.88023952,,,,,,,,,,,,,,120,hierno,,,,,,90.5303,91.4335,0,1,0.3646,,0,9,9,119,1,pseudoword,0,REAL,FALSA
,,,,,,,,,63e646333cb69048119b58c5,001,2024-06-07_11h55.50.760,empathy_intonation_perc,2024.1.4,Win32,59.88023952,,,,,,,,,,,,,,140,vapen,,,,,,91.4338,92.5252,0,1,0.5546,,0,10,10,139,1,pseudoword,0,REAL,FALSA
,,,,,,,,,63e646333cb69048119b58c5,001,2024-06-07_11h55.50.760,empathy_intonation_perc,2024.1.4,Win32,59.88023952,,,,,,,,,,,,,,2,disco,,,,,,92.5256,93.5595,1,0,0.499,,0,11,11,1,1,three_way_cognate,1,REAL,FALSA
,,,,,,,,,63e646333cb69048119b58c5,001,2024-06-07_11h55.50.760,empathy_intonation_perc,2024.1.4,Win32,59.88023952,,,,,,,,,,,,,,114,potos,,,,,,93.5603,94.5917,1,0,0.5017,,0,12,12,113,1,pseudoword,0,REAL,FALSA
,,,,,,,,,63e646333cb69048119b58c5,001,2024-06-07_11h55.50.760,empathy_intonation_perc,2024.1.4,Win32,59.88023952,,,,,,,,,,,,,,144,piria,,,,,,94.5923,95.5464,0,1,0.4154,,0,13,13,143,1,pseudoword,0,REAL,FALSA
,,,,,,,,,63e646333cb69048119b58c5,001,2024-06-07_11h55.50.760,empathy_intonation_perc,2024.1.4,Win32,59.88023952,,,,,,,,,,,,,,116,crene,,,,,,95.5467,96.6208,0,1,0.5372,,0,14,14,115,1,pseudoword,0,REAL,FALSA
,,,,,,,,,63e646333cb69048119b58c5,001,2024-06-07_11h55.50.760,empathy_intonation_perc,2024.1.4,Win32,59.88023952,,,,,,,,,,,,,,19,trauma,,,,,,96.6215,97.6715,1,0,0.5186,,0,15,15,18,1,three_way_cognate,1,REAL,FALSA
,,,,,,,,,63e646333cb69048119b58c5,001,2024-06-07_11h55.50.760,empathy_intonation_perc,2024.1.4,Win32,59.88023952,,,,,,,,,,,,,,12,plan,,,,,,97.6723,98.9848,1,0,0.7829,,0,16,16,11,1,three_way_cognate,1,REAL,FALSA
,,,,,,,,,63e646333cb69048119b58c5,001,2024-06-07_11h55.50.760,empathy_intonation_perc,2024.1.4,Win32,59.88023952,,,,,,,,,,,,,,31,civil,,,,,,98.9853,100.3509,1,0,0.8157,,0,17,17,30,1,two_way_cognate,1,REAL,FALSA
,,,,,,,,,63e646333cb69048119b58c5,001,2024-06-07_11h55.50.760,empathy_intonation_perc,2024.1.4,Win32,59.88023952,,,,,,,,,,,,,,61,aduana,,,,,,100.3521,101.8493,1,0,0.9689,,0,18,18,60,1,non_cognate,1,REAL,FALSA
,,,,,,,,,63e646333cb69048119b58c5,001,2024-06-07_11h55.50.760,empathy_intonation_perc,2024.1.4,Win32,59.88023952,,,,,,,,,,,,,,84,aviso,,,,,,101.8507,103.3985,0,1,1.0234,,0,19,19,83,1,non_cognate,1,REAL,FALSA
,,,,,,,,,63e646333cb69048119b58c5,001,2024-06-07_11h55.50.760,empathy_intonation_perc,2024.1.4,Win32,59.88023952,,,,,,,,,,,,,,106,baurá,,,,,,103.3991,104.8465,0,1,0.8986,,0,20,20,105,1,pseudoword,0,REAL,FALSA
,,,,,,,,,63e646333cb69048119b58c5,001,2024-06-07_11h55.50.760,empathy_intonation_perc,2024.1.4,Win32,59.88023952,,,,,,,,,,,,,,46,mortal,,,,,,104.8475,106.3428,1,0,0.9651,,0,21,21,45,1,two_way_cognate,1,REAL,FALSA
,,,,,,,,,63e646333cb69048119b58c5,001,2024-06-07_11h55.50.760,empathy_intonation_perc,2024.1.4,Win32,59.88023952,,,,,,,,,,,,,,103,babes,,,,,,106.3432,107.917,1,0,1.0488,,0,22,22,102,1,pseudoword,0,REAL,FALSA
,,,,,,,,,63e646333cb69048119b58c5,001,2024-06-07_11h55.50.760,empathy_intonation_perc,2024.1.4,Win32,59.88023952,,,,,,,,,,,,,,30,fiscal,,,,,,107.9173,109.1601,1,0,0.711,,0,23,23,29,1,two_way_cognate,1,REAL,FALSA
,,,,,,,,,63e646333cb69048119b58c5,001,2024-06-07_11h55.50.760,empathy_intonation_perc,2024.1.4,Win32,59.88023952,,,,,,,,,,,,,,52,blando,,,,,,109.1604,110.688,0,1,0.9853,,0,24,24,51,1,non_cognate,1,REAL,FALSA
,,,,,,,,,63e646333cb69048119b58c5,001,2024-06-07_11h55.50.760,empathy_intonation_perc,2024.1.4,Win32,59.88023952,,,,,,,,,,,,,,93,tapa,,,,,,110.6883,112.1881,1,0,0.9732,,0,25,25,92,1,non_cognate,1,REAL,FALSA
,,,,,,,,,63e646333cb69048119b58c5,001,2024-06-07_11h55.50.760,empathy_intonation_perc,2024.1.4,Win32,59.88023952,,,,,,,,,,,,,,26,enigma,,,,,,112.189,113.5717,1,0,0.8441,,0,26,26,25,1,two_way_cognate,1,REAL,FALSA
,,,,,,,,,63e646333cb69048119b58c5,001,2024-06-07_11h55.50.760,empathy_intonation_perc,2024.1.4,Win32,59.88023952,,,,,,,,,,,,,,121,rombar,,,,,,113.572,114.9847,1,0,0.8912,,0,27,27,120,1,pseudoword,0,REAL,FALSA
,,,,,,,,,63e646333cb69048119b58c5,001,2024-06-07_11h55.50.760,empathy_intonation_perc,2024.1.4,Win32,59.88023952,,,,,,,,,,,,,,124,lobe,,,,,,114.9859,116.5333,1,0,1.0025,,0,28,28,123,1,pseudoword,0,REAL,FALSA
,,,,,,,,,63e646333cb69048119b58c5,001,2024-06-07_11h55.50.760,empathy_intonation_perc,2024.1.4,Win32,59.88023952,,,,,,,,,,,,,,5,horror,,,,,,116.534,117.8139,1,0,0.7356,,0,29,29,4,1,three_way_cognate,1,REAL,FALSA
,,,,,,,,,63e646333cb69048119b58c5,001,2024-06-07_11h55.50.760,empathy_intonation_perc,2024.1.4,Win32,59.88023952,,,,,,,,,,,,,,74,ala,,,,,,117.8155,119.1635,0,1,0.8001,,0,30,30,73,1,non_cognate,1,REAL,FALSA
,,,,,,,,,63e646333cb69048119b58c5,001,2024-06-07_11h55.50.760,empathy_intonation_perc,2024.1.4,Win32,59.88023952,,,,,,,,,,,,,,35,aurora,,,,,,119.1644,120.5173,1,0,0.8146,,0,31,31,34,1,two_way_cognate,1,REAL,FALSA
,,,,,,,,,63e646333cb69048119b58c5,001,2024-06-07_11h55.50.760,empathy_intonation_perc,2024.1.4,Win32,59.88023952,,,,,,,,,,,,,,13,aura,,,,,,120.5177,122.0113,0,1,0.9492,,0,32,32,12,1,three_way_cognate,1,REAL,FALSA
,,,,,,,,,63e646333cb69048119b58c5,001,2024-06-07_11h55.50.760,empathy_intonation_perc,2024.1.4,Win32,59.88023952,,,,,,,,,,,,,,69,tiza,,,,,,122.0119,123.6492,1,0,1.116,,0,33,33,68,1,non_cognate,1,REAL,FALSA
,,,,,,,,,63e646333cb69048119b58c5,001,2024-06-07_11h55.50.760,empathy_intonation_perc,2024.1.4,Win32,59.88023952,,,,,,,,,,,,,,70,ánimo,,,,,,123.6496,125.3886,1,0,1.1982,,0,34,34,69,1,non_cognate,1,REAL,FALSA
,,,,,,,,,63e646333cb69048119b58c5,001,2024-06-07_11h55.50.760,empathy_intonation_perc,2024.1.4,Win32,59.88023952,,,,,,,,,,,,,,118,bará,,,,,,125.3901,126.5778,1,0,0.6485,,0,35,35,117,1,pseudoword,0,REAL,FALSA
,,,,,,,,,63e646333cb69048119b58c5,001,2024-06-07_11h55.50.760,empathy_intonation_perc,2024.1.4,Win32,59.88023952,,,,,,,,,,,,,,49,teñir,,,,,,126.5781,127.9537,0,1,0.8371,,0,36,36,48,1,non_cognate,1,REAL,FALSA
,,,,,,,,,63e646333cb69048119b58c5,001,2024-06-07_11h55.50.760,empathy_intonation_perc,2024.1.4,Win32,59.88023952,,,,,,,,,,,,,,98,erede,,,,,,127.9544,129.0252,1,0,0.5489,,0,37,37,97,1,pseudoword,0,REAL,FALSA
,,,,,,,,,63e646333cb69048119b58c5,001,2024-06-07_11h55.50.760,empathy_intonation_perc,2024.1.4,Win32,59.88023952,,,,,,,,,,,,,,95,listo,,,,,,129.0256,130.1165,1,0,0.5492,,0,38,38,94,1,non_cognate,1,REAL,FALSA
,,,,,,,,,63e646333cb69048119b58c5,001,2024-06-07_11h55.50.760,empathy_intonation_perc,2024.1.4,Win32,59.88023952,,,,,,,,,,,,,,141,sumer,,,,,,130.1178,131.2667,0,1,0.6026,,0,39,39,140,1,pseudoword,0,REAL,FALSA
,,,,,,,,,63e646333cb69048119b58c5,001,2024-06-07_11h55.50.760,empathy_intonation_perc,2024.1.4,Win32,59.88023952,,,,,,,,,,,,,,60,siglo,,,,,,131.2674,132.8648,0,1,1.0486,,0,40,40,59,1,non_cognate,1,REAL,FALSA
,,,,,,,,,63e646333cb69048119b58c5,001,2024-06-07_11h55.50.760,empathy_intonation_perc,2024.1.4,Win32,59.88023952,,,,,,,,,,,,,,43,honor,,,,,,132.8657,133.8466,1,0,0.4338,,0,41,41,42,1,two_way_cognate,1,REAL,FALSA
,,,,,,,,,63e646333cb69048119b58c5,001,2024-06-07_11h55.50.760,empathy_intonation_perc,2024.1.4,Win32,59.88023952,,,,,,,,,,,,,,97,hufón,,,,,,133.8478,135.1272,0,1,0.7327,,0,42,42,96,1,pseudoword,0,REAL,FALSA
,,,,,,,,,63e646333cb69048119b58c5,001,2024-06-07_11h55.50.760,empathy_intonation_perc,2024.1.4,Win32,59.88023952,,,,,,,,,,,,,,56,pico,,,,,,135.1275,137.0101,0,1,1.3516,,0,43,43,55,1,non_cognate,1,REAL,FALSA
,,,,,,,,,63e646333cb69048119b58c5,001,2024-06-07_11h55.50.760,empathy_intonation_perc,2024.1.4,Win32,59.88023952,,,,,,,,,,,,,,130,dubo,,,,,,137.0108,138.1425,0,1,0.586,,0,44,44,129,1,pseudoword,0,REAL,FALSA
,,,,,,,,,63e646333cb69048119b58c5,001,2024-06-07_11h55.50.760,empathy_intonation_perc,2024.1.4,Win32,59.88023952,,,,,,,,,,,,,,55,maldad,,,,,,138.1431,139.089,1,0,0.3992,,0,45,45,54,1,non_cognate,1,REAL,FALSA
,,,,,,,,,63e646333cb69048119b58c5,001,2024-06-07_11h55.50.760,empathy_intonation_perc,2024.1.4,Win32,59.88023952,,,,,,,,,,,,,,94,forro,,,,,,139.0895,140.1295,1,0,0.5159,,0,46,46,93,1,non_cognate,1,REAL,FALSA
,,,,,,,,,63e646333cb69048119b58c5,001,2024-06-07_11h55.50.760,empathy_intonation_perc,2024.1.4,Win32,59.88023952,,,,,,,,,,,,,,57,regalo,,,,,,140.13,141.1387,1,0,0.4657,,0,47,47,56,1,non_cognate,1,REAL,FALSA
,,,,,,,,,63e646333cb69048119b58c5,001,2024-06-07_11h55.50.760,empathy_intonation_perc,2024.1.4,Win32,59.88023952,,,,,,,,,,,,,,115,civas,,,,,,141.1395,142.1699,0,1,0.486,,0,48,48,114,1,pseudoword,0,REAL,FALSA
,,,,,,,,,63e646333cb69048119b58c5,001,2024-06-07_11h55.50.760,empathy_intonation_perc,2024.1.4,Win32,59.88023952,,,,,,,,,,,,,,86,cuenco,,,,,,142.1711,143.2701,1,0,0.5492,,0,49,49,85,1,non_cognate,1,REAL,FALSA
,,,,,,,,,63e646333cb69048119b58c5,001,2024-06-07_11h55.50.760,empathy_intonation_perc,2024.1.4,Win32,59.88023952,,,,,,,,,,,,,,135,macayó,,,,,,143.2707,144.3348,0,1,0.5208,,0,50,50,134,1,pseudoword,0,REAL,FALSA
,,,,,,,,,63e646333cb69048119b58c5,001,2024-06-07_11h55.50.760,empathy_intonation_perc,2024.1.4,Win32,59.88023952,,,,,,,,,,,,,,107,plamos,,,,,,144.3358,145.2898,0,1,0.4321,,0,51,51,106,1,pseudoword,0,REAL,FALSA
,,,,,,,,,63e646333cb69048119b58c5,001,2024-06-07_11h55.50.760,empathy_intonation_perc,2024.1.4,Win32,59.88023952,,,,,,,,,,,,,,129,suchas,,,,,,145.2903,146.322,0,1,0.4986,,0,52,52,128,1,pseudoword,0,REAL,FALSA
,,,,,,,,,63e646333cb69048119b58c5,001,2024-06-07_11h55.50.760,empathy_intonation_perc,2024.1.4,Win32,59.88023952,,,,,,,,,,,,,,102,coyo,,,,,,146.3223,147.4317,0,1,0.5749,,0,53,53,101,1,pseudoword,0,REAL,FALSA
,,,,,,,,,63e646333cb69048119b58c5,001,2024-06-07_11h55.50.760,empathy_intonation_perc,2024.1.4,Win32,59.88023952,,,,,,,,,,,,,,108,viarle,,,,,,147.4325,148.4968,1,0,0.525,,0,54,54,107,1,pseudoword,0,REAL,FALSA
,,,,,,,,,63e646333cb69048119b58c5,001,2024-06-07_11h55.50.760,empathy_intonation_perc,2024.1.4,Win32,59.88023952,,,,,,,,,,,,,,41,pasta,,,,,,148.498,149.5682,1,0,0.5321,,0,55,55,40,1,two_way_cognate,1,REAL,FALSA
,,,,,,,,,63e646333cb69048119b58c5,001,2024-06-07_11h55.50.760,empathy_intonation_perc,2024.1.4,Win32,59.88023952,,,,,,,,,,,,,,40,pelvis,,,,,,149.5685,150.5779,0,1,0.4734,,0,56,56,39,1,two_way_cognate,1,REAL,FALSA
,,,,,,,,,63e646333cb69048119b58c5,001,2024-06-07_11h55.50.760,empathy_intonation_perc,2024.1.4,Win32,59.88023952,,,,,,,,,,,,,,81,sacar,,,,,,150.579,151.9585,0,1,0.8332,,0,57,57,80,1,non_cognate,1,REAL,FALSA
,,,,,,,,,63e646333cb69048119b58c5,001,2024-06-07_11h55.50.760,empathy_intonation_perc,2024.1.4,Win32,59.88023952,,,,,,,,,,,,,,101,fertes,,,,,,151.9595,152.9745,0,1,0.4645,,0,58,58,100,1,pseudoword,0,REAL,FALSA
,,,,,,,,,63e646333cb69048119b58c5,001,2024-06-07_11h55.50.760,empathy_intonation_perc,2024.1.4,Win32,59.88023952,,,,,,,,,,,,,,22,plural,,,,,,152.9759,154.3564,1,0,0.84,,0,59,59,21,1,three_way_cognate,1,REAL,FALSA
,,,,,,,,,63e646333cb69048119b58c5,001,2024-06-07_11h55.50.760,empathy_intonation_perc,2024.1.4,Win32,59.88023952,,,,,,,,,,,,,,54,tapón,,,,,,154.3578,155.7055,0,1,0.7987,,0,60,60,53,1,non_cognate,1,REAL,FALSA
,,,,,,,,,63e646333cb69048119b58c5,001,2024-06-07_11h55.50.760,empathy_intonation_perc,2024.1.4,Win32,59.88023952,,,,,,,,,,,,,,28,ardor,,,,,,155.7064,156.9261,1,0,0.6811,,0,61,61,27,1,two_way_cognate,1,REAL,FALSA
,,,,,,,,,63e646333cb69048119b58c5,001,2024-06-07_11h55.50.760,empathy_intonation_perc,2024.1.4,Win32,59.88023952,,,,,,,,,,,,,,139,furbos,,,,,,156.9264,158.0843,1,0,0.6235,,0,62,62,138,1,pseudoword,0,REAL,FALSA
,,,,,,,,,63e646333cb69048119b58c5,001,2024-06-07_11h55.50.760,empathy_intonation_perc,2024.1.4,Win32,59.88023952,,,,,,,,,,,,,,134,fruzas,,,,,,158.0846,159.6991,0,1,1.0817,,0,63,63,133,1,pseudoword,0,REAL,FALSA
,,,,,,,,,63e646333cb69048119b58c5,001,2024-06-07_11h55.50.760,empathy_intonation_perc,2024.1.4,Win32,59.88023952,,,,,,,,,,,,,,21,mango,,,,,,159.6995,161.0054,1,0,0.765,,0,64,64,20,1,three_way_cognate,1,REAL,FALSA
,,,,,,,,,63e646333cb69048119b58c5,001,2024-06-07_11h55.50.760,empathy_intonation_perc,2024.1.4,Win32,59.88023952,,,,,,,,,,,,,,59,feo,,,,,,161.0057,162.2971,0,1,0.7552,,0,65,65,58,1,non_cognate,1,REAL,FALSA
,,,,,,,,,63e646333cb69048119b58c5,001,2024-06-07_11h55.50.760,empathy_intonation_perc,2024.1.4,Win32,59.88023952,,,,,,,,,,,,,,58,colcha,,,,,,162.2983,163.4632,0,1,0.6348,,0,66,66,57,1,non_cognate,1,REAL,FALSA
,,,,,,,,,63e646333cb69048119b58c5,001,2024-06-07_11h55.50.760,empathy_intonation_perc,2024.1.4,Win32,59.88023952,,,,,,,,,,,,,,34,actor,,,,,,163.4642,164.5631,1,0,0.5489,,0,67,67,33,1,two_way_cognate,1,REAL,FALSA
,,,,,,,,,63e646333cb69048119b58c5,001,2024-06-07_11h55.50.760,empathy_intonation_perc,2024.1.4,Win32,59.88023952,,,,,,,,,,,,,,4,extra,,,,,,164.5637,165.6277,1,0,0.5226,,0,68,68,3,1,three_way_cognate,1,REAL,FALSA
,,,,,,,,,63e646333cb69048119b58c5,001,2024-06-07_11h55.50.760,empathy_intonation_perc,2024.1.4,Win32,59.88023952,,,,,,,,,,,,,,73,llevar,,,,,,165.6285,166.8928,0,1,0.7191,,0,69,69,72,1,non_cognate,1,REAL,FALSA
,,,,,,,,,63e646333cb69048119b58c5,001,2024-06-07_11h55.50.760,empathy_intonation_perc,2024.1.4,Win32,59.88023952,,,,,,,,,,,,,,39,casual,,,,,,166.8937,168.2063,1,0,0.771,,0,70,70,38,1,two_way_cognate,1,REAL,FALSA
,,,,,,,,,63e646333cb69048119b58c5,001,2024-06-07_11h55.50.760,empathy_intonation_perc,2024.1.4,Win32,59.88023952,,,,,,,,,,,,,,117,apunan,,,,,,168.207,169.49,0,1,0.7371,,0,71,71,116,1,pseudoword,0,REAL,FALSA
,,,,,,,,,63e646333cb69048119b58c5,001,2024-06-07_11h55.50.760,empathy_intonation_perc,2024.1.4,Win32,59.88023952,,,,,,,,,,,,,,133,tirafa,,,,,,169.4908,170.9375,0,1,0.9241,,0,72,72,132,1,pseudoword,0,REAL,FALSA
,,,,,,,,,63e646333cb69048119b58c5,001,2024-06-07_11h55.50.760,empathy_intonation_perc,2024.1.4,Win32,59.88023952,,,,,,,,,,,,,,125,ceme,,,,,,170.939,172.5699,0,1,1.0876,,0,73,73,124,1,pseudoword,0,REAL,FALSA
,,,,,,,,,63e646333cb69048119b58c5,001,2024-06-07_11h55.50.760,empathy_intonation_perc,2024.1.4,Win32,59.88023952,,,,,,,,,,,,,,20,hotel,,,,,,172.5707,173.8241,1,0,0.715,,0,74,74,19,1,three_way_cognate,1,REAL,FALSA
,,,,,,,,,63e646333cb69048119b58c5,001,2024-06-07_11h55.50.760,empathy_intonation_perc,2024.1.4,Win32,59.88023952,,,,,,,,,,,,,,113,difrás,,,,,,173.8245,175.2561,1,0,0.8983,,0,75,75,112,1,pseudoword,0,REAL,FALSA
,,,,,,,,,63e646333cb69048119b58c5,001,2024-06-07_11h55.50.760,empathy_intonation_perc,2024.1.4,Win32,59.88023952,,,,,,,,,,,,,,138,glural,,,,,,175.2563,176.4663,1,0,0.6761,,0,76,76,137,1,pseudoword,0,REAL,FALSA
,,,,,,,,,63e646333cb69048119b58c5,001,2024-06-07_11h55.50.760,empathy_intonation_perc,2024.1.4,Win32,59.88023952,,,,,,,,,,,,,,87,muleta,,,,,,176.4666,177.8125,0,1,0.8021,,0,77,77,86,1,non_cognate,1,REAL,FALSA
,,,,,,,,,63e646333cb69048119b58c5,001,2024-06-07_11h55.50.760,empathy_intonation_perc,2024.1.4,Win32,59.88023952,,,,,,,,,,,,,,90,venado,,,,,,177.8141,179.0849,1,0,0.7483,,0,78,78,89,1,non_cognate,1,REAL,FALSA
,,,,,,,,,63e646333cb69048119b58c5,001,2024-06-07_11h55.50.760,empathy_intonation_perc,2024.1.4,Win32,59.88023952,,,,,,,,,,,,,,11,dogma,,,,,,179.0853,180.2268,0,1,0.6049,,0,79,79,10,1,three_way_cognate,1,REAL,FALSA
,,,,,,,,,63e646333cb69048119b58c5,001,2024-06-07_11h55.50.760,empathy_intonation_perc,2024.1.4,Win32,59.88023952,,,,,,,,,,,,,,122,gravés,,,,,,180.228,182.0075,0,1,1.2563,,0,80,80,121,1,pseudoword,0,REAL,FALSA
,,,,,,,,,63e646333cb69048119b58c5,001,2024-06-07_11h55.50.760,empathy_intonation_perc,2024.1.4,Win32,59.88023952,,,,,,,,,,,,,,88,percha,,,,,,182.0085,183.2244,1,0,0.6913,,0,81,81,87,1,non_cognate,1,REAL,FALSA
,,,,,,,,,63e646333cb69048119b58c5,001,2024-06-07_11h55.50.760,empathy_intonation_perc,2024.1.4,Win32,59.88023952,,,,,,,,,,,,,,105,curgué,,,,,,183.2253,184.6566,0,1,0.8919,,0,82,82,104,1,pseudoword,0,REAL,FALSA
,,,,,,,,,63e646333cb69048119b58c5,001,2024-06-07_11h55.50.760,empathy_intonation_perc,2024.1.4,Win32,59.88023952,,,,,,,,,,,,,,23,porno,,,,,,184.6572,186.038,1,0,0.8324,,0,83,83,22,1,three_way_cognate,1,REAL,FALSA
,,,,,,,,,63e646333cb69048119b58c5,001,2024-06-07_11h55.50.760,empathy_intonation_perc,2024.1.4,Win32,59.88023952,,,,,,,,,,,,,,64,rizado,,,,,,186.0388,187.4365,0,1,0.851,,0,84,84,63,1,non_cognate,1,REAL,FALSA
,,,,,,,,,63e646333cb69048119b58c5,001,2024-06-07_11h55.50.760,empathy_intonation_perc,2024.1.4,Win32,59.88023952,,,,,,,,,,,,,,104,vitra,,,,,,187.4373,189.4507,1,0,1.4652,,0,85,85,103,1,pseudoword,0,REAL,FALSA
,,,,,,,,,63e646333cb69048119b58c5,001,2024-06-07_11h55.50.760,empathy_intonation_perc,2024.1.4,Win32,59.88023952,,,,,,,,,,,,,,65,guerra,,,,,,189.4515,190.6493,1,0,0.6544,,0,86,86,64,1,non_cognate,1,REAL,FALSA
,,,,,,,,,63e646333cb69048119b58c5,001,2024-06-07_11h55.50.760,empathy_intonation_perc,2024.1.4,Win32,59.88023952,,,,,,,,,,,,,,79,suelo,,,,,,190.6502,191.7704,0,1,0.5815,,0,87,87,78,1,non_cognate,1,REAL,FALSA
,,,,,,,,,63e646333cb69048119b58c5,001,2024-06-07_11h55.50.760,empathy_intonation_perc,2024.1.4,Win32,59.88023952,,,,,,,,,,,,,,24,retina,,,,,,191.7707,193.1193,1,0,0.8153,,0,88,88,23,1,three_way_cognate,1,REAL,FALSA
,,,,,,,,,63e646333cb69048119b58c5,001,2024-06-07_11h55.50.760,empathy_intonation_perc,2024.1.4,Win32,59.88023952,,,,,,,,,,,,,,78,rendir,,,,,,193.1197,194.2952,0,1,0.6405,,0,89,89,77,1,non_cognate,1,REAL,FALSA
,,,,,,,,,63e646333cb69048119b58c5,001,2024-06-07_11h55.50.760,empathy_intonation_perc,2024.1.4,Win32,59.88023952,,,,,,,,,,,,,,80,cuenco,,,,,,194.296,195.5498,0,1,0.715,,0,90,90,79,1,non_cognate,1,REAL,FALSA
,,,,,,,,,63e646333cb69048119b58c5,001,2024-06-07_11h55.50.760,empathy_intonation_perc,2024.1.4,Win32,59.88023952,,,,,,,,,,,,,,25,vigor,,,,,,195.5501,196.8931,1,0,0.8088,,0,91,91,24,1,two_way_cognate,1,REAL,FALSA
,,,,,,,,,63e646333cb69048119b58c5,001,2024-06-07_11h55.50.760,empathy_intonation_perc,2024.1.4,Win32,59.88023952,,,,,,,,,,,,,,85,enorme,,,,,,196.8933,198.057,1,0,0.6154,,0,92,92,84,1,non_cognate,1,REAL,FALSA
,,,,,,,,,63e646333cb69048119b58c5,001,2024-06-07_11h55.50.760,empathy_intonation_perc,2024.1.4,Win32,59.88023952,,,,,,,,,,,,,,27,piano,,,,,,198.0582,199.1398,1,0,0.5541,,0,93,93,26,1,two_way_cognate,1,REAL,FALSA
,,,,,,,,,63e646333cb69048119b58c5,001,2024-06-07_11h55.50.760,empathy_intonation_perc,2024.1.4,Win32,59.88023952,,,,,,,,,,,,,,110,vacapó,,,,,,199.1408,200.3054,0,1,0.6238,,0,94,94,109,1,pseudoword,0,REAL,FALSA
,,,,,,,,,63e646333cb69048119b58c5,001,2024-06-07_11h55.50.760,empathy_intonation_perc,2024.1.4,Win32,59.88023952,,,,,,,,,,,,,,76,chocar,,,,,,200.306,201.7039,1,0,0.8482,,0,95,95,75,1,non_cognate,1,REAL,FALSA
,,,,,,,,,63e646333cb69048119b58c5,001,2024-06-07_11h55.50.760,empathy_intonation_perc,2024.1.4,Win32,59.88023952,,,,,,,,,,,,,,17,altar,,,,,,201.7046,202.9841,1,0,0.7554,,0,96,96,16,1,three_way_cognate,1,REAL,FALSA
,,,,,,,,,63e646333cb69048119b58c5,001,2024-06-07_11h55.50.760,empathy_intonation_perc,2024.1.4,Win32,59.88023952,,,,,,,,,,,,,,68,puñal,,,,,,202.9856,204.1822,0,1,0.6491,,0,97,97,67,1,non_cognate,1,REAL,FALSA
,,,,,,,,,63e646333cb69048119b58c5,001,2024-06-07_11h55.50.760,empathy_intonation_perc,2024.1.4,Win32,59.88023952,,,,,,,,,,,,,,53,punta,,,,,,204.1826,205.2553,0,1,0.5487,,0,98,98,52,1,non_cognate,1,REAL,FALSA
,,,,,,,,,63e646333cb69048119b58c5,001,2024-06-07_11h55.50.760,empathy_intonation_perc,2024.1.4,Win32,59.88023952,,,,,,,,,,,,,,83,hálito,,,,,,205.2558,206.3374,0,1,0.5485,,0,99,99,82,1,non_cognate,1,REAL,FALSA
,,,,,,,,,63e646333cb69048119b58c5,001,2024-06-07_11h55.50.760,empathy_intonation_perc,2024.1.4,Win32,59.88023952,,,,,,,,,,,,,,136,sopleó,,,,,,206.3377,207.6691,0,1,0.7982,,0,100,100,135,1,pseudoword,0,REAL,FALSA
,,,,,,,,,63e646333cb69048119b58c5,001,2024-06-07_11h55.50.760,empathy_intonation_perc,2024.1.4,Win32,59.88023952,,,,,,,,,,,,,,100,medón,,,,,,207.6695,208.6272,0,1,0.4228,,0,101,101,99,1,pseudoword,0,REAL,FALSA
,,,,,,,,,63e646333cb69048119b58c5,001,2024-06-07_11h55.50.760,empathy_intonation_perc,2024.1.4,Win32,59.88023952,,,,,,,,,,,,,,143,pledú,,,,,,208.6275,209.6113,0,1,0.4493,,0,102,102,142,1,pseudoword,0,REAL,FALSA
,,,,,,,,,63e646333cb69048119b58c5,001,2024-06-07_11h55.50.760,empathy_intonation_perc,2024.1.4,Win32,59.88023952,,,,,,,,,,,,,,15,chat,,,,,,209.6121,210.7451,1,0,0.5946,,0,103,103,14,1,three_way_cognate,1,REAL,FALSA
,,,,,,,,,63e646333cb69048119b58c5,001,2024-06-07_11h55.50.760,empathy_intonation_perc,2024.1.4,Win32,59.88023952,,,,,,,,,,,,,,50,sierra,,,,,,210.7453,212.0143,0,1,0.7314,,0,104,104,49,1,non_cognate,1,REAL,FALSA
,,,,,,,,,63e646333cb69048119b58c5,001,2024-06-07_11h55.50.760,empathy_intonation_perc,2024.1.4,Win32,59.88023952,,,,,,,,,,,,,,51,listo,,,,,,212.0145,212.939,1,0,0.383,,0,105,105,50,1,non_cognate,1,REAL,FALSA
,,,,,,,,,63e646333cb69048119b58c5,001,2024-06-07_11h55.50.760,empathy_intonation_perc,2024.1.4,Win32,59.88023952,,,,,,,,,,,,,,77,suave,,,,,,212.9392,213.8455,1,0,0.3821,,0,106,106,76,1,non_cognate,1,REAL,FALSA
,,,,,,,,,63e646333cb69048119b58c5,001,2024-06-07_11h55.50.760,empathy_intonation_perc,2024.1.4,Win32,59.88023952,,,,,,,,,,,,,,142,viseña,,,,,,213.8458,214.8725,1,0,0.4916,,0,107,107,141,1,pseudoword,0,REAL,FALSA
,,,,,,,,,63e646333cb69048119b58c5,001,2024-06-07_11h55.50.760,empathy_intonation_perc,2024.1.4,Win32,59.88023952,,,,,,,,,,,,,,8,portal,,,,,,214.873,215.9393,1,0,0.528,,0,108,108,7,1,three_way_cognate,1,REAL,FALSA
,,,,,,,,,63e646333cb69048119b58c5,001,2024-06-07_11h55.50.760,empathy_intonation_perc,2024.1.4,Win32,59.88023952,,,,,,,,,,,,,,96,caro,,,,,,215.9396,217.0521,0,1,0.5661,,0,109,109,95,1,non_cognate,1,REAL,FALSA
,,,,,,,,,63e646333cb69048119b58c5,001,2024-06-07_11h55.50.760,empathy_intonation_perc,2024.1.4,Win32,59.88023952,,,,,,,,,,,,,,10,golf,,,,,,217.0533,218.0403,1,0,0.4468,,0,110,110,9,1,three_way_cognate,1,REAL,FALSA
,,,,,,,,,63e646333cb69048119b58c5,001,2024-06-07_11h55.50.760,empathy_intonation_perc,2024.1.4,Win32,59.88023952,,,,,,,,,,,,,,47,color,,,,,,218.0406,219.2331,1,0,0.6495,,0,111,111,46,1,two_way_cognate,1,REAL,FALSA
,,,,,,,,,63e646333cb69048119b58c5,001,2024-06-07_11h55.50.760,empathy_intonation_perc,2024.1.4,Win32,59.88023952,,,,,,,,,,,,,,67,llamar,,,,,,219.2342,220.3828,0,1,0.605,,0,112,112,66,1,non_cognate,1,REAL,FALSA
,,,,,,,,,63e646333cb69048119b58c5,001,2024-06-07_11h55.50.760,empathy_intonation_perc,2024.1.4,Win32,59.88023952,,,,,,,,,,,,,,6,albino,,,,,,220.3833,221.598,1,0,0.6651,,0,113,113,5,1,three_way_cognate,1,REAL,FALSA
,,,,,,,,,63e646333cb69048119b58c5,001,2024-06-07_11h55.50.760,empathy_intonation_perc,2024.1.4,Win32,59.88023952,,,,,,,,,,,,,,89,muñeca,,,,,,221.5986,222.9445,0,1,0.8037,,0,114,114,88,1,non_cognate,1,REAL,FALSA
,,,,,,,,,63e646333cb69048119b58c5,001,2024-06-07_11h55.50.760,empathy_intonation_perc,2024.1.4,Win32,59.88023952,,,,,,,,,,,,,,123,escare,,,,,,222.9451,223.8119,1,0,0.3198,,0,115,115,122,1,pseudoword,0,REAL,FALSA
,,,,,,,,,63e646333cb69048119b58c5,001,2024-06-07_11h55.50.760,empathy_intonation_perc,2024.1.4,Win32,59.88023952,,,,,,,,,,,,,,9,drama,,,,,,223.8128,224.6592,1,0,0.2999,,0,116,116,8,1,three_way_cognate,1,REAL,FALSA
,,,,,,,,,63e646333cb69048119b58c5,001,2024-06-07_11h55.50.760,empathy_intonation_perc,2024.1.4,Win32,59.88023952,,,,,,,,,,,,,,91,equipo,,,,,,224.6599,226.0074,1,0,0.8151,,0,117,117,90,1,non_cognate,1,REAL,FALSA
,,,,,,,,,63e646333cb69048119b58c5,001,2024-06-07_11h55.50.760,empathy_intonation_perc,2024.1.4,Win32,59.88023952,,,,,,,,,,,,,,66,aleta,,,,,,226.0078,227.458,1,0,0.9051,,0,118,118,65,1,non_cognate,1,REAL,FALSA
,,,,,,,,,63e646333cb69048119b58c5,001,2024-06-07_11h55.50.760,empathy_intonation_perc,2024.1.4,Win32,59.88023952,,,,,,,,,,,,,,16,clan,,,,,,227.4586,228.5563,0,1,0.5523,,0,119,119,15,1,three_way_cognate,1,REAL,FALSA
,,,,,,,,,63e646333cb69048119b58c5,001,2024-06-07_11h55.50.760,empathy_intonation_perc,2024.1.4,Win32,59.88023952,,,,,,,,,,,,,,37,torso,,,,,,228.5573,229.5612,1,0,0.4653,,0,120,120,36,1,two_way_cognate,1,REAL,FALSA
,,,,,,,,,63e646333cb69048119b58c5,001,2024-06-07_11h55.50.760,empathy_intonation_perc,2024.1.4,Win32,59.88023952,,,,,,,,,,,,,,3,flora,,,,,,229.5614,230.5697,0,1,0.4661,,0,121,121,2,1,three_way_cognate,1,REAL,FALSA
,,,,,,,,,63e646333cb69048119b58c5,001,2024-06-07_11h55.50.760,empathy_intonation_perc,2024.1.4,Win32,59.88023952,,,,,,,,,,,,,,29,clamor,,,,,,230.5711,231.3257,1,0,0.2149,,0,122,122,28,1,two_way_cognate,1,REAL,FALSA
,,,,,,,,,63e646333cb69048119b58c5,001,2024-06-07_11h55.50.760,empathy_intonation_perc,2024.1.4,Win32,59.88023952,,,,,,,,,,,,,,72,rostro,,,,,,231.326,232.3914,1,0,0.532,,0,123,123,71,1,non_cognate,1,REAL,FALSA
,,,,,,,,,63e646333cb69048119b58c5,001,2024-06-07_11h55.50.760,empathy_intonation_perc,2024.1.4,Win32,59.88023952,,,,,,,,,,,,,,62,pegar,,,,,,232.3917,233.3844,1,0,0.4494,,0,124,124,61,1,non_cognate,1,REAL,FALSA
,,,,,,,,,63e646333cb69048119b58c5,001,2024-06-07_11h55.50.760,empathy_intonation_perc,2024.1.4,Win32,59.88023952,,,,,,,,,,,,,,127,vien,,,,,,233.3852,234.3148,0,1,0.389,,0,125,125,126,1,pseudoword,0,REAL,FALSA
,,,,,,,,,63e646333cb69048119b58c5,001,2024-06-07_11h55.50.760,empathy_intonation_perc,2024.1.4,Win32,59.88023952,,,,,,,,,,,,,,137,unglés,,,,,,234.3155,235.5818,1,0,0.7201,,0,126,126,136,1,pseudoword,0,REAL,FALSA
,,,,,,,,,63e646333cb69048119b58c5,001,2024-06-07_11h55.50.760,empathy_intonation_perc,2024.1.4,Win32,59.88023952,,,,,,,,,,,,,,32,animal,,,,,,235.5827,236.4866,0,1,0.3653,,0,127,127,31,1,two_way_cognate,1,REAL,FALSA
,,,,,,,,,63e646333cb69048119b58c5,001,2024-06-07_11h55.50.760,empathy_intonation_perc,2024.1.4,Win32,59.88023952,,,,,,,,,,,,,,63,hilo,,,,,,236.4868,237.5789,1,0,0.5535,,0,128,128,62,1,non_cognate,1,REAL,FALSA
,,,,,,,,,63e646333cb69048119b58c5,001,2024-06-07_11h55.50.760,empathy_intonation_perc,2024.1.4,Win32,59.88023952,,,,,,,,,,,,,,1,tumor,,,,,,237.5802,238.8501,1,0,0.748,,0,129,129,0,1,three_way_cognate,1,REAL,FALSA
,,,,,,,,,63e646333cb69048119b58c5,001,2024-06-07_11h55.50.760,empathy_intonation_perc,2024.1.4,Win32,59.88023952,,,,,,,,,,,,,,45,total,,,,,,238.8505,240.0586,1,0,0.6654,,0,130,130,44,1,two_way_cognate,1,REAL,FALSA
,,,,,,,,,63e646333cb69048119b58c5,001,2024-06-07_11h55.50.760,empathy_intonation_perc,2024.1.4,Win32,59.88023952,,,,,,,,,,,,,,36,viable,,,,,,240.0597,240.9587,0,1,0.3656,,0,131,131,35,1,two_way_cognate,1,REAL,FALSA
,,,,,,,,,63e646333cb69048119b58c5,001,2024-06-07_11h55.50.760,empathy_intonation_perc,2024.1.4,Win32,59.88023952,,,,,,,,,,,,,,42,rumor,,,,,,240.9598,241.9083,1,0,0.3994,,0,132,132,41,1,two_way_cognate,1,REAL,FALSA
,,,,,,,,,63e646333cb69048119b58c5,001,2024-06-07_11h55.50.760,empathy_intonation_perc,2024.1.4,Win32,59.88023952,,,,,,,,,,,,,,109,hágino,,,,,,241.909,244.7695,1,0,2.3173,,0,133,133,108,1,pseudoword,0,REAL,FALSA
,,,,,,,,,63e646333cb69048119b58c5,001,2024-06-07_11h55.50.760,empathy_intonation_perc,2024.1.4,Win32,59.88023952,,,,,,,,,,,,,,14,test,,,,,,244.7798,246.0847,1,0,0.7701,,0,134,134,13,1,three_way_cognate,1,REAL,FALSA
,,,,,,,,,63e646333cb69048119b58c5,001,2024-06-07_11h55.50.760,empathy_intonation_perc,2024.1.4,Win32,59.88023952,,,,,,,,,,,,,,99,mieris,,,,,,246.0851,247.3245,0,1,0.7151,,0,135,135,98,1,pseudoword,0,REAL,FALSA
,,,,,,,,,63e646333cb69048119b58c5,001,2024-06-07_11h55.50.760,empathy_intonation_perc,2024.1.4,Win32,59.88023952,,,,,,,,,,,,,,33,collar,,,,,,247.3248,248.7509,0,1,0.8914,,0,136,136,32,1,two_way_cognate,1,REAL,FALSA
,,,,,,,,,63e646333cb69048119b58c5,001,2024-06-07_11h55.50.760,empathy_intonation_perc,2024.1.4,Win32,59.88023952,,,,,,,,,,,,,,111,vibler,,,,,,248.7514,249.7487,1,0,0.4659,,0,137,137,110,1,pseudoword,0,REAL,FALSA
,,,,,,,,,63e646333cb69048119b58c5,001,2024-06-07_11h55.50.760,empathy_intonation_perc,2024.1.4,Win32,59.88023952,,,,,,,,,,,,,,44,editor,,,,,,249.75,251.1125,0,1,0.8314,,0,138,138,43,1,two_way_cognate,1,REAL,FALSA
,,,,,,,,,63e646333cb69048119b58c5,001,2024-06-07_11h55.50.760,empathy_intonation_perc,2024.1.4,Win32,59.88023952,,,,,,,,,,,,,,18,mafia,,,,,,251.1129,252.4626,0,1,0.804,,0,139,139,17,1,three_way_cognate,1,REAL,FALSA
,,,,,,,,,63e646333cb69048119b58c5,001,2024-06-07_11h55.50.760,empathy_intonation_perc,2024.1.4,Win32,59.88023952,,,,,,,,,,,,,,126,anicio,,,,,,252.4637,253.9165,0,1,0.914,,0,140,140,125,1,pseudoword,0,REAL,FALSA
,,,,,,,,,63e646333cb69048119b58c5,001,2024-06-07_11h55.50.760,empathy_intonation_perc,2024.1.4,Win32,59.88023952,,,,,,,,,,,,,,132,nocó,,,,,,253.9169,255.1322,1,0,0.6815,,0,141,141,131,1,pseudoword,0,REAL,FALSA
,,,,,,,,,63e646333cb69048119b58c5,001,2024-06-07_11h55.50.760,empathy_intonation_perc,2024.1.4,Win32,59.88023952,,,,,,,,,,,,,,128,pelí,,,,,,255.1325,256.1902,1,0,0.5161,,0,142,142,127,1,pseudoword,0,REAL,FALSA
,,,,,,,,,63e646333cb69048119b58c5,001,2024-06-07_11h55.50.760,empathy_intonation_perc,2024.1.4,Win32,59.88023952,,,,,,,,,,,,,,92,flecha,,,,,,256.1909,257.363,0,1,0.6317,,0,143,143,91,1,non_cognate,1,REAL,FALSA
