lextale_instructions.started,lextale_instructions.stopped,lextale_instructions_loop.thisRepN,lextale_instructions_loop.thisTrialN,lextale_instructions_loop.thisN,lextale_instructions_loop.thisIndex,lextale_instructions_loop.ran,instructions_text,continue_text,participant,session,date,expName,psychopyVersion,OS,frameRate,lextale_practice.started,lextale_practice.stopped,key_resp_lextale_practice.keys,key_resp_lextale_practice.corr,key_resp_lextale_practice.rt,key_resp_lextale_practice.duration,lextale_practice_feedback.started,lextale_practice_feedback.stopped,lextale_practice_trials.thisRepN,lextale_practice_trials.thisTrialN,lextale_practice_trials.thisN,lextale_practice_trials.thisIndex,lextale_practice_trials.ran,stim,word,correct_response,prac_button_real,prac_button_false,lextale_check.started,lextale_check.stopped,lextale_trial.started,lextale_trial.stopped,key_resp_lextale_trial.keys,key_resp_lextale_trial.corr,key_resp_lextale_trial.rt,key_resp_lextale_trial.duration,lextail_trials.thisRepN,lextail_trials.thisTrialN,lextail_trials.thisN,lextail_trials.thisIndex,lextail_trials.ran,type,correct_reponse,button_real,button_false
0.017,9.666,0,0,0,0,1,"Este es un test de vocabulario en español. 
  
  A continuación vas a ver 90 secuencias de letras que parecen 'españolas'.
  
  Solo algunas de ellas son palabras de verdad.",(presiona la barra espaciadora para continuar),641e62a8191451d08e6c08f7,001,2024-06-07_07h38.49.851,empathy_intonation_perc,2024.1.4,Win32,60.0240096,,,,,,,,,,,,,,,,,,,,,,,,,,,,,,,,,,,
9.667,17.309,0,1,1,1,1,"Por favor, señala las palabras que tú conoces (aquellas que estás convencido que son palabras españolas, incluso aunque no seas capaz de dar el significado preciso).",(presiona la barra espaciadora para continuar),641e62a8191451d08e6c08f7,001,2024-06-07_07h38.49.851,empathy_intonation_perc,2024.1.4,Win32,60.0240096,,,,,,,,,,,,,,,,,,,,,,,,,,,,,,,,,,,
17.31,23.86,0,2,2,2,1,Pero cuidado: los errores se penalizan. Por eso no tiene sentido tratar de incrementar tu puntuación marcando como reales palabras que nunca has visto.,(presiona la barra espaciadora para continuar),641e62a8191451d08e6c08f7,001,2024-06-07_07h38.49.851,empathy_intonation_perc,2024.1.4,Win32,60.0240096,,,,,,,,,,,,,,,,,,,,,,,,,,,,,,,,,,,
23.866,31.408,0,3,3,3,1,"Presiona la tecla 1 si piensas que es una palabra real y la tecla 
  0 si piensas que es una palabra falsa. 
  
  Vamos a practicar un poco...",(presiona la barra espaciadora para continuar),641e62a8191451d08e6c08f7,001,2024-06-07_07h38.49.851,empathy_intonation_perc,2024.1.4,Win32,60.0240096,,,,,,,,,,,,,,,,,,,,,,,,,,,,,,,,,,,
,,,,,,,,,641e62a8191451d08e6c08f7,001,2024-06-07_07h38.49.851,empathy_intonation_perc,2024.1.4,Win32,60.0240096,31.418,35.399,0,1,3.436,,35.399,36.378,0,0,0,0,1,0,depiste,0,REAL,FALSA,,,,,,,,,,,,,,,,,
,,,,,,,,,641e62a8191451d08e6c08f7,001,2024-06-07_07h38.49.851,empathy_intonation_perc,2024.1.4,Win32,60.0240096,36.379,40.96,1,1,4.044,,40.96,41.961,0,1,1,1,1,0,sí,1,REAL,FALSA,,,,,,,,,,,,,,,,,
,,,,,,,,,641e62a8191451d08e6c08f7,001,2024-06-07_07h38.49.851,empathy_intonation_perc,2024.1.4,Win32,60.0240096,41.963,47.077,1,0,4.579,,47.077,48.081,0,2,2,2,1,0,coné,0,REAL,FALSA,,,,,,,,,,,,,,,,,
,,,,,,,,,641e62a8191451d08e6c08f7,001,2024-06-07_07h38.49.851,empathy_intonation_perc,2024.1.4,Win32,60.0240096,48.083,51.36,0,1,2.739,,51.36,52.353,0,3,3,3,1,0,calpar,0,REAL,FALSA,,,,,,,,,,,,,,,,,
,,,,,,,,,641e62a8191451d08e6c08f7,001,2024-06-07_07h38.49.851,empathy_intonation_perc,2024.1.4,Win32,60.0240096,52.36,54.152,0,1,1.247,,54.153,55.147,0,4,4,4,1,0,joten,0,REAL,FALSA,,,,,,,,,,,,,,,,,
,,,,,,,,,641e62a8191451d08e6c08f7,001,2024-06-07_07h38.49.851,empathy_intonation_perc,2024.1.4,Win32,60.0240096,55.15,56.816,1,1,1.111,,56.817,57.819,0,5,5,5,1,0,sacapuntas,1,REAL,FALSA,,,,,,,,,,,,,,,,,
,,,,,,,,,641e62a8191451d08e6c08f7,001,2024-06-07_07h38.49.851,empathy_intonation_perc,2024.1.4,Win32,60.0240096,57.823,61.13,0,1,2.764,,61.13,62.114,0,6,6,6,1,0,priba,0,REAL,FALSA,,,,,,,,,,,,,,,,,
,,,,,,,,,641e62a8191451d08e6c08f7,001,2024-06-07_07h38.49.851,empathy_intonation_perc,2024.1.4,Win32,60.0240096,62.115,64.25,0,1,1.585,,64.25,65.228,0,7,7,7,1,0,pelasula,0,REAL,FALSA,,,,,,,,,,,,,,,,,
,,,,,,,,,641e62a8191451d08e6c08f7,001,2024-06-07_07h38.49.851,empathy_intonation_perc,2024.1.4,Win32,60.0240096,65.23,66.778,1,1,1.009,,66.778,67.771,0,8,8,8,1,0,bien,1,REAL,FALSA,,,,,,,,,,,,,,,,,
,,,,,,,,,641e62a8191451d08e6c08f7,001,2024-06-07_07h38.49.851,empathy_intonation_perc,2024.1.4,Win32,60.0240096,67.775,71.51,1,1,3.19,,71.51,72.512,0,9,9,9,1,0,casa,1,REAL,FALSA,,,,,,,,,,,,,,,,,
,,,,,,,,,641e62a8191451d08e6c08f7,001,2024-06-07_07h38.49.851,empathy_intonation_perc,2024.1.4,Win32,60.0240096,72.513,75.907,0,1,2.848,,75.907,76.906,0,10,10,10,1,0,lejo,0,REAL,FALSA,,,,,,,,,,,,,,,,,
,,,,,,,,,641e62a8191451d08e6c08f7,001,2024-06-07_07h38.49.851,empathy_intonation_perc,2024.1.4,Win32,60.0240096,76.909,78.911,0,1,1.472,,78.911,79.905,0,11,11,11,1,0,pretantas,0,REAL,FALSA,,,,,,,,,,,,,,,,,
,,,,,,,,,641e62a8191451d08e6c08f7,001,2024-06-07_07h38.49.851,empathy_intonation_perc,2024.1.4,Win32,60.0240096,,,,,,,,,,,,,,,,,,,79.907,81.894,,,,,,,,,,,,,,,
,,,,,,,,,641e62a8191451d08e6c08f7,001,2024-06-07_07h38.49.851,empathy_intonation_perc,2024.1.4,Win32,60.0240096,,,,,,,,,,,,,,6,albino,,,,,,81.938,83.9,1,0,1.421,,0,0,0,5,1,three_way_cognate,1,REAL,FALSA
,,,,,,,,,641e62a8191451d08e6c08f7,001,2024-06-07_07h38.49.851,empathy_intonation_perc,2024.1.4,Win32,60.0240096,,,,,,,,,,,,,,22,plural,,,,,,83.901,86.456,1,0,2.001,,0,1,1,21,1,three_way_cognate,1,REAL,FALSA
,,,,,,,,,641e62a8191451d08e6c08f7,001,2024-06-07_07h38.49.851,empathy_intonation_perc,2024.1.4,Win32,60.0240096,,,,,,,,,,,,,,16,clan,,,,,,86.463,88.44,1,0,1.423,,0,2,2,15,1,three_way_cognate,1,REAL,FALSA
,,,,,,,,,641e62a8191451d08e6c08f7,001,2024-06-07_07h38.49.851,empathy_intonation_perc,2024.1.4,Win32,60.0240096,,,,,,,,,,,,,,81,sacar,,,,,,88.446,89.903,1,0,0.919,,0,3,3,80,1,non_cognate,1,REAL,FALSA
,,,,,,,,,641e62a8191451d08e6c08f7,001,2024-06-07_07h38.49.851,empathy_intonation_perc,2024.1.4,Win32,60.0240096,,,,,,,,,,,,,,78,rendir,,,,,,89.904,91.149,1,0,0.713,,0,4,4,77,1,non_cognate,1,REAL,FALSA
,,,,,,,,,641e62a8191451d08e6c08f7,001,2024-06-07_07h38.49.851,empathy_intonation_perc,2024.1.4,Win32,60.0240096,,,,,,,,,,,,,,13,aura,,,,,,91.15,92.56,1,0,0.875,,0,5,5,12,1,three_way_cognate,1,REAL,FALSA
,,,,,,,,,641e62a8191451d08e6c08f7,001,2024-06-07_07h38.49.851,empathy_intonation_perc,2024.1.4,Win32,60.0240096,,,,,,,,,,,,,,103,babes,,,,,,92.562,94.286,0,1,1.189,,0,6,6,102,1,pseudoword,0,REAL,FALSA
,,,,,,,,,641e62a8191451d08e6c08f7,001,2024-06-07_07h38.49.851,empathy_intonation_perc,2024.1.4,Win32,60.0240096,,,,,,,,,,,,,,3,flora,,,,,,94.288,95.668,1,0,0.841,,0,7,7,2,1,three_way_cognate,1,REAL,FALSA
,,,,,,,,,641e62a8191451d08e6c08f7,001,2024-06-07_07h38.49.851,empathy_intonation_perc,2024.1.4,Win32,60.0240096,,,,,,,,,,,,,,134,fruzas,,,,,,95.669,97.204,0,1,0.995,,0,8,8,133,1,pseudoword,0,REAL,FALSA
,,,,,,,,,641e62a8191451d08e6c08f7,001,2024-06-07_07h38.49.851,empathy_intonation_perc,2024.1.4,Win32,60.0240096,,,,,,,,,,,,,,115,civas,,,,,,97.205,98.751,0,1,1.001,,0,9,9,114,1,pseudoword,0,REAL,FALSA
,,,,,,,,,641e62a8191451d08e6c08f7,001,2024-06-07_07h38.49.851,empathy_intonation_perc,2024.1.4,Win32,60.0240096,,,,,,,,,,,,,,142,viseña,,,,,,98.752,100.262,0,1,0.976,,0,10,10,141,1,pseudoword,0,REAL,FALSA
,,,,,,,,,641e62a8191451d08e6c08f7,001,2024-06-07_07h38.49.851,empathy_intonation_perc,2024.1.4,Win32,60.0240096,,,,,,,,,,,,,,59,feo,,,,,,100.263,101.568,1,0,0.759,,0,11,11,58,1,non_cognate,1,REAL,FALSA
,,,,,,,,,641e62a8191451d08e6c08f7,001,2024-06-07_07h38.49.851,empathy_intonation_perc,2024.1.4,Win32,60.0240096,,,,,,,,,,,,,,98,erede,,,,,,101.569,103.871,0,1,1.752,,0,12,12,97,1,pseudoword,0,REAL,FALSA
,,,,,,,,,641e62a8191451d08e6c08f7,001,2024-06-07_07h38.49.851,empathy_intonation_perc,2024.1.4,Win32,60.0240096,,,,,,,,,,,,,,14,test,,,,,,103.872,108.054,1,0,3.647,,0,13,13,13,1,three_way_cognate,1,REAL,FALSA
,,,,,,,,,641e62a8191451d08e6c08f7,001,2024-06-07_07h38.49.851,empathy_intonation_perc,2024.1.4,Win32,60.0240096,,,,,,,,,,,,,,35,aurora,,,,,,108.056,109.675,1,0,1.086,,0,14,14,34,1,two_way_cognate,1,REAL,FALSA
,,,,,,,,,641e62a8191451d08e6c08f7,001,2024-06-07_07h38.49.851,empathy_intonation_perc,2024.1.4,Win32,60.0240096,,,,,,,,,,,,,,109,hágino,,,,,,109.676,111.541,0,1,1.321,,0,15,15,108,1,pseudoword,0,REAL,FALSA
,,,,,,,,,641e62a8191451d08e6c08f7,001,2024-06-07_07h38.49.851,empathy_intonation_perc,2024.1.4,Win32,60.0240096,,,,,,,,,,,,,,104,vitra,,,,,,111.544,113.59,0,1,1.502,,0,16,16,103,1,pseudoword,0,REAL,FALSA
,,,,,,,,,641e62a8191451d08e6c08f7,001,2024-06-07_07h38.49.851,empathy_intonation_perc,2024.1.4,Win32,60.0240096,,,,,,,,,,,,,,57,regalo,,,,,,113.592,115.098,1,0,0.962,,0,17,17,56,1,non_cognate,1,REAL,FALSA
,,,,,,,,,641e62a8191451d08e6c08f7,001,2024-06-07_07h38.49.851,empathy_intonation_perc,2024.1.4,Win32,60.0240096,,,,,,,,,,,,,,41,pasta,,,,,,115.099,116.487,1,0,0.845,,0,18,18,40,1,two_way_cognate,1,REAL,FALSA
,,,,,,,,,641e62a8191451d08e6c08f7,001,2024-06-07_07h38.49.851,empathy_intonation_perc,2024.1.4,Win32,60.0240096,,,,,,,,,,,,,,69,tiza,,,,,,116.496,117.86,1,0,0.83,,0,19,19,68,1,non_cognate,1,REAL,FALSA
,,,,,,,,,641e62a8191451d08e6c08f7,001,2024-06-07_07h38.49.851,empathy_intonation_perc,2024.1.4,Win32,60.0240096,,,,,,,,,,,,,,47,color,,,,,,117.865,119.251,1,0,0.846,,0,20,20,46,1,two_way_cognate,1,REAL,FALSA
,,,,,,,,,641e62a8191451d08e6c08f7,001,2024-06-07_07h38.49.851,empathy_intonation_perc,2024.1.4,Win32,60.0240096,,,,,,,,,,,,,,34,actor,,,,,,119.252,120.7,1,0,0.897,,0,21,21,33,1,two_way_cognate,1,REAL,FALSA
,,,,,,,,,641e62a8191451d08e6c08f7,001,2024-06-07_07h38.49.851,empathy_intonation_perc,2024.1.4,Win32,60.0240096,,,,,,,,,,,,,,79,suelo,,,,,,120.702,122.493,1,0,1.258,,0,22,22,78,1,non_cognate,1,REAL,FALSA
,,,,,,,,,641e62a8191451d08e6c08f7,001,2024-06-07_07h38.49.851,empathy_intonation_perc,2024.1.4,Win32,60.0240096,,,,,,,,,,,,,,122,gravés,,,,,,122.495,124.277,0,1,1.239,,0,23,23,121,1,pseudoword,0,REAL,FALSA
,,,,,,,,,641e62a8191451d08e6c08f7,001,2024-06-07_07h38.49.851,empathy_intonation_perc,2024.1.4,Win32,60.0240096,,,,,,,,,,,,,,110,vacapó,,,,,,124.279,126.328,0,1,1.5,,0,24,24,109,1,pseudoword,0,REAL,FALSA
,,,,,,,,,641e62a8191451d08e6c08f7,001,2024-06-07_07h38.49.851,empathy_intonation_perc,2024.1.4,Win32,60.0240096,,,,,,,,,,,,,,97,hufón,,,,,,126.329,127.93,0,1,1.072,,0,25,25,96,1,pseudoword,0,REAL,FALSA
,,,,,,,,,641e62a8191451d08e6c08f7,001,2024-06-07_07h38.49.851,empathy_intonation_perc,2024.1.4,Win32,60.0240096,,,,,,,,,,,,,,137,unglés,,,,,,127.933,129.601,0,1,1.115,,0,26,26,136,1,pseudoword,0,REAL,FALSA
,,,,,,,,,641e62a8191451d08e6c08f7,001,2024-06-07_07h38.49.851,empathy_intonation_perc,2024.1.4,Win32,60.0240096,,,,,,,,,,,,,,19,trauma,,,,,,129.603,131.015,1,0,0.872,,0,27,27,18,1,three_way_cognate,1,REAL,FALSA
,,,,,,,,,641e62a8191451d08e6c08f7,001,2024-06-07_07h38.49.851,empathy_intonation_perc,2024.1.4,Win32,60.0240096,,,,,,,,,,,,,,76,chocar,,,,,,131.016,132.281,1,0,0.722,,0,28,28,75,1,non_cognate,1,REAL,FALSA
,,,,,,,,,641e62a8191451d08e6c08f7,001,2024-06-07_07h38.49.851,empathy_intonation_perc,2024.1.4,Win32,60.0240096,,,,,,,,,,,,,,87,muleta,,,,,,132.282,133.589,1,0,0.752,,0,29,29,86,1,non_cognate,1,REAL,FALSA
,,,,,,,,,641e62a8191451d08e6c08f7,001,2024-06-07_07h38.49.851,empathy_intonation_perc,2024.1.4,Win32,60.0240096,,,,,,,,,,,,,,131,fuar,,,,,,133.593,136.446,0,1,2.322,,0,30,30,130,1,pseudoword,0,REAL,FALSA
,,,,,,,,,641e62a8191451d08e6c08f7,001,2024-06-07_07h38.49.851,empathy_intonation_perc,2024.1.4,Win32,60.0240096,,,,,,,,,,,,,,44,editor,,,,,,136.447,137.854,1,0,0.871,,0,31,31,43,1,two_way_cognate,1,REAL,FALSA
,,,,,,,,,641e62a8191451d08e6c08f7,001,2024-06-07_07h38.49.851,empathy_intonation_perc,2024.1.4,Win32,60.0240096,,,,,,,,,,,,,,83,hálito,,,,,,137.855,139.348,1,0,0.944,,0,32,32,82,1,non_cognate,1,REAL,FALSA
,,,,,,,,,641e62a8191451d08e6c08f7,001,2024-06-07_07h38.49.851,empathy_intonation_perc,2024.1.4,Win32,60.0240096,,,,,,,,,,,,,,21,mango,,,,,,139.349,140.701,1,0,0.824,,0,33,33,20,1,three_way_cognate,1,REAL,FALSA
,,,,,,,,,641e62a8191451d08e6c08f7,001,2024-06-07_07h38.49.851,empathy_intonation_perc,2024.1.4,Win32,60.0240096,,,,,,,,,,,,,,85,enorme,,,,,,140.702,142.004,1,0,0.751,,0,34,34,84,1,non_cognate,1,REAL,FALSA
,,,,,,,,,641e62a8191451d08e6c08f7,001,2024-06-07_07h38.49.851,empathy_intonation_perc,2024.1.4,Win32,60.0240096,,,,,,,,,,,,,,20,hotel,,,,,,142.005,143.379,1,0,0.823,,0,35,35,19,1,three_way_cognate,1,REAL,FALSA
,,,,,,,,,641e62a8191451d08e6c08f7,001,2024-06-07_07h38.49.851,empathy_intonation_perc,2024.1.4,Win32,60.0240096,,,,,,,,,,,,,,49,teñir,,,,,,143.38,144.931,1,0,1.023,,0,36,36,48,1,non_cognate,1,REAL,FALSA
,,,,,,,,,641e62a8191451d08e6c08f7,001,2024-06-07_07h38.49.851,empathy_intonation_perc,2024.1.4,Win32,60.0240096,,,,,,,,,,,,,,141,sumer,,,,,,144.931,148.428,0,1,2.958,,0,37,37,140,1,pseudoword,0,REAL,FALSA
,,,,,,,,,641e62a8191451d08e6c08f7,001,2024-06-07_07h38.49.851,empathy_intonation_perc,2024.1.4,Win32,60.0240096,,,,,,,,,,,,,,132,nocó,,,,,,148.434,150.264,0,1,1.286,,0,38,38,131,1,pseudoword,0,REAL,FALSA
,,,,,,,,,641e62a8191451d08e6c08f7,001,2024-06-07_07h38.49.851,empathy_intonation_perc,2024.1.4,Win32,60.0240096,,,,,,,,,,,,,,26,enigma,,,,,,150.266,151.587,1,0,0.787,,0,39,39,25,1,two_way_cognate,1,REAL,FALSA
,,,,,,,,,641e62a8191451d08e6c08f7,001,2024-06-07_07h38.49.851,empathy_intonation_perc,2024.1.4,Win32,60.0240096,,,,,,,,,,,,,,80,cuenco,,,,,,151.588,153,1,0,0.865,,0,40,40,79,1,non_cognate,1,REAL,FALSA
,,,,,,,,,641e62a8191451d08e6c08f7,001,2024-06-07_07h38.49.851,empathy_intonation_perc,2024.1.4,Win32,60.0240096,,,,,,,,,,,,,,89,muñeca,,,,,,153.001,154.289,1,0,0.747,,0,41,41,88,1,non_cognate,1,REAL,FALSA
,,,,,,,,,641e62a8191451d08e6c08f7,001,2024-06-07_07h38.49.851,empathy_intonation_perc,2024.1.4,Win32,60.0240096,,,,,,,,,,,,,,114,potos,,,,,,154.292,156.79,0,1,1.963,,0,42,42,113,1,pseudoword,0,REAL,FALSA
,,,,,,,,,641e62a8191451d08e6c08f7,001,2024-06-07_07h38.49.851,empathy_intonation_perc,2024.1.4,Win32,60.0240096,,,,,,,,,,,,,,67,llamar,,,,,,156.796,158.184,1,0,0.847,,0,43,43,66,1,non_cognate,1,REAL,FALSA
,,,,,,,,,641e62a8191451d08e6c08f7,001,2024-06-07_07h38.49.851,empathy_intonation_perc,2024.1.4,Win32,60.0240096,,,,,,,,,,,,,,127,vien,,,,,,158.185,159.534,0,1,0.796,,0,44,44,126,1,pseudoword,0,REAL,FALSA
,,,,,,,,,641e62a8191451d08e6c08f7,001,2024-06-07_07h38.49.851,empathy_intonation_perc,2024.1.4,Win32,60.0240096,,,,,,,,,,,,,,30,fiscal,,,,,,159.535,160.83,1,0,0.756,,0,45,45,29,1,two_way_cognate,1,REAL,FALSA
,,,,,,,,,641e62a8191451d08e6c08f7,001,2024-06-07_07h38.49.851,empathy_intonation_perc,2024.1.4,Win32,60.0240096,,,,,,,,,,,,,,56,pico,,,,,,160.831,162.586,1,0,1.217,,0,46,46,55,1,non_cognate,1,REAL,FALSA
,,,,,,,,,641e62a8191451d08e6c08f7,001,2024-06-07_07h38.49.851,empathy_intonation_perc,2024.1.4,Win32,60.0240096,,,,,,,,,,,,,,8,portal,,,,,,162.586,163.851,1,0,0.718,,0,47,47,7,1,three_way_cognate,1,REAL,FALSA
,,,,,,,,,641e62a8191451d08e6c08f7,001,2024-06-07_07h38.49.851,empathy_intonation_perc,2024.1.4,Win32,60.0240096,,,,,,,,,,,,,,94,forro,,,,,,163.853,165.086,1,0,0.685,,0,48,48,93,1,non_cognate,1,REAL,FALSA
,,,,,,,,,641e62a8191451d08e6c08f7,001,2024-06-07_07h38.49.851,empathy_intonation_perc,2024.1.4,Win32,60.0240096,,,,,,,,,,,,,,117,apunan,,,,,,165.087,166.64,0,1,1.012,,0,49,49,116,1,pseudoword,0,REAL,FALSA
,,,,,,,,,641e62a8191451d08e6c08f7,001,2024-06-07_07h38.49.851,empathy_intonation_perc,2024.1.4,Win32,60.0240096,,,,,,,,,,,,,,32,animal,,,,,,166.642,167.956,1,0,0.768,,0,50,50,31,1,two_way_cognate,1,REAL,FALSA
,,,,,,,,,641e62a8191451d08e6c08f7,001,2024-06-07_07h38.49.851,empathy_intonation_perc,2024.1.4,Win32,60.0240096,,,,,,,,,,,,,,99,mieris,,,,,,167.957,169.597,0,1,1.101,,0,51,51,98,1,pseudoword,0,REAL,FALSA
,,,,,,,,,641e62a8191451d08e6c08f7,001,2024-06-07_07h38.49.851,empathy_intonation_perc,2024.1.4,Win32,60.0240096,,,,,,,,,,,,,,24,retina,,,,,,169.598,170.847,1,0,0.721,,0,52,52,23,1,three_way_cognate,1,REAL,FALSA
,,,,,,,,,641e62a8191451d08e6c08f7,001,2024-06-07_07h38.49.851,empathy_intonation_perc,2024.1.4,Win32,60.0240096,,,,,,,,,,,,,,70,ánimo,,,,,,170.848,172.738,1,0,1.35,,0,53,53,69,1,non_cognate,1,REAL,FALSA
,,,,,,,,,641e62a8191451d08e6c08f7,001,2024-06-07_07h38.49.851,empathy_intonation_perc,2024.1.4,Win32,60.0240096,,,,,,,,,,,,,,9,drama,,,,,,172.739,173.921,1,0,0.649,,0,54,54,8,1,three_way_cognate,1,REAL,FALSA
,,,,,,,,,641e62a8191451d08e6c08f7,001,2024-06-07_07h38.49.851,empathy_intonation_perc,2024.1.4,Win32,60.0240096,,,,,,,,,,,,,,12,plan,,,,,,173.922,175.048,1,0,0.586,,0,55,55,11,1,three_way_cognate,1,REAL,FALSA
,,,,,,,,,641e62a8191451d08e6c08f7,001,2024-06-07_07h38.49.851,empathy_intonation_perc,2024.1.4,Win32,60.0240096,,,,,,,,,,,,,,11,dogma,,,,,,175.049,176.572,1,0,0.971,,0,56,56,10,1,three_way_cognate,1,REAL,FALSA
,,,,,,,,,641e62a8191451d08e6c08f7,001,2024-06-07_07h38.49.851,empathy_intonation_perc,2024.1.4,Win32,60.0240096,,,,,,,,,,,,,,4,extra,,,,,,176.573,177.829,1,0,0.706,,0,57,57,3,1,three_way_cognate,1,REAL,FALSA
,,,,,,,,,641e62a8191451d08e6c08f7,001,2024-06-07_07h38.49.851,empathy_intonation_perc,2024.1.4,Win32,60.0240096,,,,,,,,,,,,,,51,listo,,,,,,177.829,179.289,1,0,0.915,,0,58,58,50,1,non_cognate,1,REAL,FALSA
,,,,,,,,,641e62a8191451d08e6c08f7,001,2024-06-07_07h38.49.851,empathy_intonation_perc,2024.1.4,Win32,60.0240096,,,,,,,,,,,,,,42,rumor,,,,,,179.291,180.539,1,0,0.712,,0,59,59,41,1,two_way_cognate,1,REAL,FALSA
,,,,,,,,,641e62a8191451d08e6c08f7,001,2024-06-07_07h38.49.851,empathy_intonation_perc,2024.1.4,Win32,60.0240096,,,,,,,,,,,,,,91,equipo,,,,,,180.54,181.78,1,0,0.71,,0,60,60,90,1,non_cognate,1,REAL,FALSA
,,,,,,,,,641e62a8191451d08e6c08f7,001,2024-06-07_07h38.49.851,empathy_intonation_perc,2024.1.4,Win32,60.0240096,,,,,,,,,,,,,,61,aduana,,,,,,181.781,183.128,1,0,0.813,,0,61,61,60,1,non_cognate,1,REAL,FALSA
,,,,,,,,,641e62a8191451d08e6c08f7,001,2024-06-07_07h38.49.851,empathy_intonation_perc,2024.1.4,Win32,60.0240096,,,,,,,,,,,,,,77,suave,,,,,,183.129,184.309,1,0,0.647,,0,62,62,76,1,non_cognate,1,REAL,FALSA
,,,,,,,,,641e62a8191451d08e6c08f7,001,2024-06-07_07h38.49.851,empathy_intonation_perc,2024.1.4,Win32,60.0240096,,,,,,,,,,,,,,100,medón,,,,,,184.311,185.665,0,1,0.793,,0,63,63,99,1,pseudoword,0,REAL,FALSA
,,,,,,,,,641e62a8191451d08e6c08f7,001,2024-06-07_07h38.49.851,empathy_intonation_perc,2024.1.4,Win32,60.0240096,,,,,,,,,,,,,,72,rostro,,,,,,185.672,186.949,1,0,0.731,,0,64,64,71,1,non_cognate,1,REAL,FALSA
,,,,,,,,,641e62a8191451d08e6c08f7,001,2024-06-07_07h38.49.851,empathy_intonation_perc,2024.1.4,Win32,60.0240096,,,,,,,,,,,,,,113,difrás,,,,,,186.949,188.552,0,1,1.062,,0,65,65,112,1,pseudoword,0,REAL,FALSA
,,,,,,,,,641e62a8191451d08e6c08f7,001,2024-06-07_07h38.49.851,empathy_intonation_perc,2024.1.4,Win32,60.0240096,,,,,,,,,,,,,,96,caro,,,,,,188.553,189.985,1,0,0.883,,0,66,66,95,1,non_cognate,1,REAL,FALSA
,,,,,,,,,641e62a8191451d08e6c08f7,001,2024-06-07_07h38.49.851,empathy_intonation_perc,2024.1.4,Win32,60.0240096,,,,,,,,,,,,,,46,mortal,,,,,,189.986,191.137,1,0,0.61,,0,67,67,45,1,two_way_cognate,1,REAL,FALSA
,,,,,,,,,641e62a8191451d08e6c08f7,001,2024-06-07_07h38.49.851,empathy_intonation_perc,2024.1.4,Win32,60.0240096,,,,,,,,,,,,,,37,torso,,,,,,191.138,192.431,1,0,0.755,,0,68,68,36,1,two_way_cognate,1,REAL,FALSA
,,,,,,,,,641e62a8191451d08e6c08f7,001,2024-06-07_07h38.49.851,empathy_intonation_perc,2024.1.4,Win32,60.0240096,,,,,,,,,,,,,,62,pegar,,,,,,192.433,193.818,1,0,0.852,,0,69,69,61,1,non_cognate,1,REAL,FALSA
,,,,,,,,,641e62a8191451d08e6c08f7,001,2024-06-07_07h38.49.851,empathy_intonation_perc,2024.1.4,Win32,60.0240096,,,,,,,,,,,,,,133,tirafa,,,,,,193.82,195.328,0,1,0.966,,0,70,70,132,1,pseudoword,0,REAL,FALSA
,,,,,,,,,641e62a8191451d08e6c08f7,001,2024-06-07_07h38.49.851,empathy_intonation_perc,2024.1.4,Win32,60.0240096,,,,,,,,,,,,,,86,cuenco,,,,,,195.331,196.657,1,0,0.795,,0,71,71,85,1,non_cognate,1,REAL,FALSA
,,,,,,,,,641e62a8191451d08e6c08f7,001,2024-06-07_07h38.49.851,empathy_intonation_perc,2024.1.4,Win32,60.0240096,,,,,,,,,,,,,,112,cituló,,,,,,196.658,198.788,0,1,1.582,,0,72,72,111,1,pseudoword,0,REAL,FALSA
,,,,,,,,,641e62a8191451d08e6c08f7,001,2024-06-07_07h38.49.851,empathy_intonation_perc,2024.1.4,Win32,60.0240096,,,,,,,,,,,,,,53,punta,,,,,,198.789,199.951,1,0,0.596,,0,73,73,52,1,non_cognate,1,REAL,FALSA
,,,,,,,,,641e62a8191451d08e6c08f7,001,2024-06-07_07h38.49.851,empathy_intonation_perc,2024.1.4,Win32,60.0240096,,,,,,,,,,,,,,102,coyo,,,,,,199.954,201.272,0,1,0.788,,0,74,74,101,1,pseudoword,0,REAL,FALSA
,,,,,,,,,641e62a8191451d08e6c08f7,001,2024-06-07_07h38.49.851,empathy_intonation_perc,2024.1.4,Win32,60.0240096,,,,,,,,,,,,,,63,hilo,,,,,,201.273,202.504,1,0,0.687,,0,75,75,62,1,non_cognate,1,REAL,FALSA
,,,,,,,,,641e62a8191451d08e6c08f7,001,2024-06-07_07h38.49.851,empathy_intonation_perc,2024.1.4,Win32,60.0240096,,,,,,,,,,,,,,33,collar,,,,,,202.505,206.701,1,0,3.653,,0,76,76,32,1,two_way_cognate,1,REAL,FALSA
,,,,,,,,,641e62a8191451d08e6c08f7,001,2024-06-07_07h38.49.851,empathy_intonation_perc,2024.1.4,Win32,60.0240096,,,,,,,,,,,,,,123,escare,,,,,,206.702,208.146,0,1,0.906,,0,77,77,122,1,pseudoword,0,REAL,FALSA
,,,,,,,,,641e62a8191451d08e6c08f7,001,2024-06-07_07h38.49.851,empathy_intonation_perc,2024.1.4,Win32,60.0240096,,,,,,,,,,,,,,25,vigor,,,,,,208.147,209.855,1,0,1.162,,0,78,78,24,1,two_way_cognate,1,REAL,FALSA
,,,,,,,,,641e62a8191451d08e6c08f7,001,2024-06-07_07h38.49.851,empathy_intonation_perc,2024.1.4,Win32,60.0240096,,,,,,,,,,,,,,120,hierno,,,,,,209.857,211.726,0,1,1.335,,0,79,79,119,1,pseudoword,0,REAL,FALSA
,,,,,,,,,641e62a8191451d08e6c08f7,001,2024-06-07_07h38.49.851,empathy_intonation_perc,2024.1.4,Win32,60.0240096,,,,,,,,,,,,,,1,tumor,,,,,,211.726,213.32,1,0,1.07,,0,80,80,0,1,three_way_cognate,1,REAL,FALSA
,,,,,,,,,641e62a8191451d08e6c08f7,001,2024-06-07_07h38.49.851,empathy_intonation_perc,2024.1.4,Win32,60.0240096,,,,,,,,,,,,,,126,anicio,,,,,,213.321,215.097,0,1,1.237,,0,81,81,125,1,pseudoword,0,REAL,FALSA
,,,,,,,,,641e62a8191451d08e6c08f7,001,2024-06-07_07h38.49.851,empathy_intonation_perc,2024.1.4,Win32,60.0240096,,,,,,,,,,,,,,73,llevar,,,,,,215.097,216.397,1,0,0.768,,0,82,82,72,1,non_cognate,1,REAL,FALSA
,,,,,,,,,641e62a8191451d08e6c08f7,001,2024-06-07_07h38.49.851,empathy_intonation_perc,2024.1.4,Win32,60.0240096,,,,,,,,,,,,,,10,golf,,,,,,216.398,217.834,1,0,0.912,,0,83,83,9,1,three_way_cognate,1,REAL,FALSA
,,,,,,,,,641e62a8191451d08e6c08f7,001,2024-06-07_07h38.49.851,empathy_intonation_perc,2024.1.4,Win32,60.0240096,,,,,,,,,,,,,,50,sierra,,,,,,217.835,219.198,1,0,0.822,,0,84,84,49,1,non_cognate,1,REAL,FALSA
,,,,,,,,,641e62a8191451d08e6c08f7,001,2024-06-07_07h38.49.851,empathy_intonation_perc,2024.1.4,Win32,60.0240096,,,,,,,,,,,,,,60,siglo,,,,,,219.204,220.36,1,0,0.62,,0,85,85,59,1,non_cognate,1,REAL,FALSA
,,,,,,,,,641e62a8191451d08e6c08f7,001,2024-06-07_07h38.49.851,empathy_intonation_perc,2024.1.4,Win32,60.0240096,,,,,,,,,,,,,,65,guerra,,,,,,220.362,221.602,1,0,0.684,,0,86,86,64,1,non_cognate,1,REAL,FALSA
,,,,,,,,,641e62a8191451d08e6c08f7,001,2024-06-07_07h38.49.851,empathy_intonation_perc,2024.1.4,Win32,60.0240096,,,,,,,,,,,,,,119,esís,,,,,,221.605,222.935,0,1,0.76,,0,87,87,118,1,pseudoword,0,REAL,FALSA
,,,,,,,,,641e62a8191451d08e6c08f7,001,2024-06-07_07h38.49.851,empathy_intonation_perc,2024.1.4,Win32,60.0240096,,,,,,,,,,,,,,88,percha,,,,,,222.937,224.832,1,0,1.362,,0,88,88,87,1,non_cognate,1,REAL,FALSA
,,,,,,,,,641e62a8191451d08e6c08f7,001,2024-06-07_07h38.49.851,empathy_intonation_perc,2024.1.4,Win32,60.0240096,,,,,,,,,,,,,,68,puñal,,,,,,224.833,226.997,1,0,1.612,,0,89,89,67,1,non_cognate,1,REAL,FALSA
,,,,,,,,,641e62a8191451d08e6c08f7,001,2024-06-07_07h38.49.851,empathy_intonation_perc,2024.1.4,Win32,60.0240096,,,,,,,,,,,,,,28,ardor,,,,,,226.999,228.17,1,0,0.63,,0,90,90,27,1,two_way_cognate,1,REAL,FALSA
,,,,,,,,,641e62a8191451d08e6c08f7,001,2024-06-07_07h38.49.851,empathy_intonation_perc,2024.1.4,Win32,60.0240096,,,,,,,,,,,,,,18,mafia,,,,,,228.172,229.419,1,0,0.708,,0,91,91,17,1,three_way_cognate,1,REAL,FALSA
,,,,,,,,,641e62a8191451d08e6c08f7,001,2024-06-07_07h38.49.851,empathy_intonation_perc,2024.1.4,Win32,60.0240096,,,,,,,,,,,,,,139,furbos,,,,,,229.42,230.789,0,1,0.816,,0,92,92,138,1,pseudoword,0,REAL,FALSA
,,,,,,,,,641e62a8191451d08e6c08f7,001,2024-06-07_07h38.49.851,empathy_intonation_perc,2024.1.4,Win32,60.0240096,,,,,,,,,,,,,,15,chat,,,,,,230.79,231.995,1,0,0.674,,0,93,93,14,1,three_way_cognate,1,REAL,FALSA
,,,,,,,,,641e62a8191451d08e6c08f7,001,2024-06-07_07h38.49.851,empathy_intonation_perc,2024.1.4,Win32,60.0240096,,,,,,,,,,,,,,75,patada,,,,,,231.997,233.53,1,0,0.987,,0,94,94,74,1,non_cognate,1,REAL,FALSA
,,,,,,,,,641e62a8191451d08e6c08f7,001,2024-06-07_07h38.49.851,empathy_intonation_perc,2024.1.4,Win32,60.0240096,,,,,,,,,,,,,,121,rombar,,,,,,233.533,234.987,0,1,0.913,,0,95,95,120,1,pseudoword,0,REAL,FALSA
,,,,,,,,,641e62a8191451d08e6c08f7,001,2024-06-07_07h38.49.851,empathy_intonation_perc,2024.1.4,Win32,60.0240096,,,,,,,,,,,,,,128,pelí,,,,,,234.988,236.928,0,1,1.404,,0,96,96,127,1,pseudoword,0,REAL,FALSA
,,,,,,,,,641e62a8191451d08e6c08f7,001,2024-06-07_07h38.49.851,empathy_intonation_perc,2024.1.4,Win32,60.0240096,,,,,,,,,,,,,,2,disco,,,,,,236.929,238.186,1,0,0.706,,0,97,97,1,1,three_way_cognate,1,REAL,FALSA
,,,,,,,,,641e62a8191451d08e6c08f7,001,2024-06-07_07h38.49.851,empathy_intonation_perc,2024.1.4,Win32,60.0240096,,,,,,,,,,,,,,136,sopleó,,,,,,238.187,240.116,0,1,1.387,,0,98,98,135,1,pseudoword,0,REAL,FALSA
,,,,,,,,,641e62a8191451d08e6c08f7,001,2024-06-07_07h38.49.851,empathy_intonation_perc,2024.1.4,Win32,60.0240096,,,,,,,,,,,,,,125,ceme,,,,,,240.118,241.568,0,1,0.918,,0,99,99,124,1,pseudoword,0,REAL,FALSA
,,,,,,,,,641e62a8191451d08e6c08f7,001,2024-06-07_07h38.49.851,empathy_intonation_perc,2024.1.4,Win32,60.0240096,,,,,,,,,,,,,,38,halo,,,,,,241.569,242.923,0,1,0.816,,0,100,100,37,1,two_way_cognate,1,REAL,FALSA
,,,,,,,,,641e62a8191451d08e6c08f7,001,2024-06-07_07h38.49.851,empathy_intonation_perc,2024.1.4,Win32,60.0240096,,,,,,,,,,,,,,66,aleta,,,,,,242.924,244.358,1,0,0.902,,0,101,101,65,1,non_cognate,1,REAL,FALSA
,,,,,,,,,641e62a8191451d08e6c08f7,001,2024-06-07_07h38.49.851,empathy_intonation_perc,2024.1.4,Win32,60.0240096,,,,,,,,,,,,,,23,porno,,,,,,244.359,245.504,1,0,0.615,,0,102,102,22,1,three_way_cognate,1,REAL,FALSA
,,,,,,,,,641e62a8191451d08e6c08f7,001,2024-06-07_07h38.49.851,empathy_intonation_perc,2024.1.4,Win32,60.0240096,,,,,,,,,,,,,,107,plamos,,,,,,245.505,247.096,0,1,1.049,,0,103,103,106,1,pseudoword,0,REAL,FALSA
,,,,,,,,,641e62a8191451d08e6c08f7,001,2024-06-07_07h38.49.851,empathy_intonation_perc,2024.1.4,Win32,60.0240096,,,,,,,,,,,,,,31,civil,,,,,,247.096,248.4,1,0,0.781,,0,104,104,30,1,two_way_cognate,1,REAL,FALSA
,,,,,,,,,641e62a8191451d08e6c08f7,001,2024-06-07_07h38.49.851,empathy_intonation_perc,2024.1.4,Win32,60.0240096,,,,,,,,,,,,,,54,tapón,,,,,,248.401,249.771,1,0,0.836,,0,105,105,53,1,non_cognate,1,REAL,FALSA
,,,,,,,,,641e62a8191451d08e6c08f7,001,2024-06-07_07h38.49.851,empathy_intonation_perc,2024.1.4,Win32,60.0240096,,,,,,,,,,,,,,45,total,,,,,,249.773,251.012,1,0,0.685,,0,106,106,44,1,two_way_cognate,1,REAL,FALSA
,,,,,,,,,641e62a8191451d08e6c08f7,001,2024-06-07_07h38.49.851,empathy_intonation_perc,2024.1.4,Win32,60.0240096,,,,,,,,,,,,,,140,vapen,,,,,,251.02,252.367,0,1,0.801,,0,107,107,139,1,pseudoword,0,REAL,FALSA
,,,,,,,,,641e62a8191451d08e6c08f7,001,2024-06-07_07h38.49.851,empathy_intonation_perc,2024.1.4,Win32,60.0240096,,,,,,,,,,,,,,143,pledú,,,,,,252.369,253.728,0,1,0.809,,0,108,108,142,1,pseudoword,0,REAL,FALSA
,,,,,,,,,641e62a8191451d08e6c08f7,001,2024-06-07_07h38.49.851,empathy_intonation_perc,2024.1.4,Win32,60.0240096,,,,,,,,,,,,,,105,curgué,,,,,,253.73,255.048,0,1,0.784,,0,109,109,104,1,pseudoword,0,REAL,FALSA
,,,,,,,,,641e62a8191451d08e6c08f7,001,2024-06-07_07h38.49.851,empathy_intonation_perc,2024.1.4,Win32,60.0240096,,,,,,,,,,,,,,17,altar,,,,,,255.05,256.248,1,0,0.647,,0,110,110,16,1,three_way_cognate,1,REAL,FALSA
,,,,,,,,,641e62a8191451d08e6c08f7,001,2024-06-07_07h38.49.851,empathy_intonation_perc,2024.1.4,Win32,60.0240096,,,,,,,,,,,,,,74,ala,,,,,,256.249,257.449,1,0,0.653,,0,111,111,73,1,non_cognate,1,REAL,FALSA
,,,,,,,,,641e62a8191451d08e6c08f7,001,2024-06-07_07h38.49.851,empathy_intonation_perc,2024.1.4,Win32,60.0240096,,,,,,,,,,,,,,101,fertes,,,,,,257.451,258.638,1,0,0.653,,0,112,112,100,1,pseudoword,0,REAL,FALSA
,,,,,,,,,641e62a8191451d08e6c08f7,001,2024-06-07_07h38.49.851,empathy_intonation_perc,2024.1.4,Win32,60.0240096,,,,,,,,,,,,,,58,colcha,,,,,,258.639,260.224,1,0,1.044,,0,113,113,57,1,non_cognate,1,REAL,FALSA
,,,,,,,,,641e62a8191451d08e6c08f7,001,2024-06-07_07h38.49.851,empathy_intonation_perc,2024.1.4,Win32,60.0240096,,,,,,,,,,,,,,82,brillo,,,,,,260.225,264.346,1,0,3.589,,0,114,114,81,1,non_cognate,1,REAL,FALSA
,,,,,,,,,641e62a8191451d08e6c08f7,001,2024-06-07_07h38.49.851,empathy_intonation_perc,2024.1.4,Win32,60.0240096,,,,,,,,,,,,,,129,suchas,,,,,,264.347,265.656,0,1,0.766,,0,115,115,128,1,pseudoword,0,REAL,FALSA
,,,,,,,,,641e62a8191451d08e6c08f7,001,2024-06-07_07h38.49.851,empathy_intonation_perc,2024.1.4,Win32,60.0240096,,,,,,,,,,,,,,138,glural,,,,,,265.657,267.173,0,1,0.97,,0,116,116,137,1,pseudoword,0,REAL,FALSA
,,,,,,,,,641e62a8191451d08e6c08f7,001,2024-06-07_07h38.49.851,empathy_intonation_perc,2024.1.4,Win32,60.0240096,,,,,,,,,,,,,,116,crene,,,,,,267.175,268.524,0,1,0.805,,0,117,117,115,1,pseudoword,0,REAL,FALSA
,,,,,,,,,641e62a8191451d08e6c08f7,001,2024-06-07_07h38.49.851,empathy_intonation_perc,2024.1.4,Win32,60.0240096,,,,,,,,,,,,,,36,viable,,,,,,268.525,269.969,1,0,0.909,,0,118,118,35,1,two_way_cognate,1,REAL,FALSA
,,,,,,,,,641e62a8191451d08e6c08f7,001,2024-06-07_07h38.49.851,empathy_intonation_perc,2024.1.4,Win32,60.0240096,,,,,,,,,,,,,,108,viarle,,,,,,269.971,271.514,0,1,0.992,,0,119,119,107,1,pseudoword,0,REAL,FALSA
,,,,,,,,,641e62a8191451d08e6c08f7,001,2024-06-07_07h38.49.851,empathy_intonation_perc,2024.1.4,Win32,60.0240096,,,,,,,,,,,,,,27,piano,,,,,,271.516,272.948,1,0,0.903,,0,120,120,26,1,two_way_cognate,1,REAL,FALSA
,,,,,,,,,641e62a8191451d08e6c08f7,001,2024-06-07_07h38.49.851,empathy_intonation_perc,2024.1.4,Win32,60.0240096,,,,,,,,,,,,,,7,kilo,,,,,,272.949,274.474,1,0,0.984,,0,121,121,6,1,three_way_cognate,1,REAL,FALSA
,,,,,,,,,641e62a8191451d08e6c08f7,001,2024-06-07_07h38.49.851,empathy_intonation_perc,2024.1.4,Win32,60.0240096,,,,,,,,,,,,,,71,torta,,,,,,274.475,275.638,1,0,0.626,,0,122,122,70,1,non_cognate,1,REAL,FALSA
,,,,,,,,,641e62a8191451d08e6c08f7,001,2024-06-07_07h38.49.851,empathy_intonation_perc,2024.1.4,Win32,60.0240096,,,,,,,,,,,,,,5,horror,,,,,,275.639,276.969,1,0,0.797,,0,123,123,4,1,three_way_cognate,1,REAL,FALSA
,,,,,,,,,641e62a8191451d08e6c08f7,001,2024-06-07_07h38.49.851,empathy_intonation_perc,2024.1.4,Win32,60.0240096,,,,,,,,,,,,,,29,clamor,,,,,,276.97,278.284,1,0,0.779,,0,124,124,28,1,two_way_cognate,1,REAL,FALSA
,,,,,,,,,641e62a8191451d08e6c08f7,001,2024-06-07_07h38.49.851,empathy_intonation_perc,2024.1.4,Win32,60.0240096,,,,,,,,,,,,,,48,pelvis,,,,,,278.285,279.627,1,0,0.799,,0,125,125,47,1,two_way_cognate,1,REAL,FALSA
,,,,,,,,,641e62a8191451d08e6c08f7,001,2024-06-07_07h38.49.851,empathy_intonation_perc,2024.1.4,Win32,60.0240096,,,,,,,,,,,,,,93,tapa,,,,,,279.628,280.84,1,0,0.676,,0,126,126,92,1,non_cognate,1,REAL,FALSA
,,,,,,,,,641e62a8191451d08e6c08f7,001,2024-06-07_07h38.49.851,empathy_intonation_perc,2024.1.4,Win32,60.0240096,,,,,,,,,,,,,,95,listo,,,,,,280.841,282.259,1,0,0.89,,0,127,127,94,1,non_cognate,1,REAL,FALSA
,,,,,,,,,641e62a8191451d08e6c08f7,001,2024-06-07_07h38.49.851,empathy_intonation_perc,2024.1.4,Win32,60.0240096,,,,,,,,,,,,,,52,blando,,,,,,282.26,283.883,1,0,1.061,,0,128,128,51,1,non_cognate,1,REAL,FALSA
,,,,,,,,,641e62a8191451d08e6c08f7,001,2024-06-07_07h38.49.851,empathy_intonation_perc,2024.1.4,Win32,60.0240096,,,,,,,,,,,,,,135,macayó,,,,,,283.887,285.384,0,1,0.943,,0,129,129,134,1,pseudoword,0,REAL,FALSA
,,,,,,,,,641e62a8191451d08e6c08f7,001,2024-06-07_07h38.49.851,empathy_intonation_perc,2024.1.4,Win32,60.0240096,,,,,,,,,,,,,,106,baurá,,,,,,285.389,286.771,0,1,0.84,,0,130,130,105,1,pseudoword,0,REAL,FALSA
,,,,,,,,,641e62a8191451d08e6c08f7,001,2024-06-07_07h38.49.851,empathy_intonation_perc,2024.1.4,Win32,60.0240096,,,,,,,,,,,,,,40,pelvis,,,,,,286.772,288.074,1,0,0.769,,0,131,131,39,1,two_way_cognate,1,REAL,FALSA
,,,,,,,,,641e62a8191451d08e6c08f7,001,2024-06-07_07h38.49.851,empathy_intonation_perc,2024.1.4,Win32,60.0240096,,,,,,,,,,,,,,130,dubo,,,,,,288.075,289.444,0,1,0.83,,0,132,132,129,1,pseudoword,0,REAL,FALSA
,,,,,,,,,641e62a8191451d08e6c08f7,001,2024-06-07_07h38.49.851,empathy_intonation_perc,2024.1.4,Win32,60.0240096,,,,,,,,,,,,,,92,flecha,,,,,,289.446,290.686,1,0,0.692,,0,133,133,91,1,non_cognate,1,REAL,FALSA
,,,,,,,,,641e62a8191451d08e6c08f7,001,2024-06-07_07h38.49.851,empathy_intonation_perc,2024.1.4,Win32,60.0240096,,,,,,,,,,,,,,55,maldad,,,,,,290.687,292.478,1,0,1.245,,0,134,134,54,1,non_cognate,1,REAL,FALSA
,,,,,,,,,641e62a8191451d08e6c08f7,001,2024-06-07_07h38.49.851,empathy_intonation_perc,2024.1.4,Win32,60.0240096,,,,,,,,,,,,,,111,vibler,,,,,,292.48,293.828,0,1,0.813,,0,135,135,110,1,pseudoword,0,REAL,FALSA
,,,,,,,,,641e62a8191451d08e6c08f7,001,2024-06-07_07h38.49.851,empathy_intonation_perc,2024.1.4,Win32,60.0240096,,,,,,,,,,,,,,39,casual,,,,,,293.829,295.084,1,0,0.714,,0,136,136,38,1,two_way_cognate,1,REAL,FALSA
,,,,,,,,,641e62a8191451d08e6c08f7,001,2024-06-07_07h38.49.851,empathy_intonation_perc,2024.1.4,Win32,60.0240096,,,,,,,,,,,,,,90,venado,,,,,,295.085,296.42,1,0,0.805,,0,137,137,89,1,non_cognate,1,REAL,FALSA
,,,,,,,,,641e62a8191451d08e6c08f7,001,2024-06-07_07h38.49.851,empathy_intonation_perc,2024.1.4,Win32,60.0240096,,,,,,,,,,,,,,84,aviso,,,,,,296.421,298.068,1,0,1.111,,0,138,138,83,1,non_cognate,1,REAL,FALSA
,,,,,,,,,641e62a8191451d08e6c08f7,001,2024-06-07_07h38.49.851,empathy_intonation_perc,2024.1.4,Win32,60.0240096,,,,,,,,,,,,,,43,honor,,,,,,298.069,299.469,1,0,0.854,,0,139,139,42,1,two_way_cognate,1,REAL,FALSA
,,,,,,,,,641e62a8191451d08e6c08f7,001,2024-06-07_07h38.49.851,empathy_intonation_perc,2024.1.4,Win32,60.0240096,,,,,,,,,,,,,,144,piria,,,,,,299.47,300.799,0,1,0.794,,0,140,140,143,1,pseudoword,0,REAL,FALSA
,,,,,,,,,641e62a8191451d08e6c08f7,001,2024-06-07_07h38.49.851,empathy_intonation_perc,2024.1.4,Win32,60.0240096,,,,,,,,,,,,,,64,rizado,,,,,,300.8,304.323,1,0,2.987,,0,141,141,63,1,non_cognate,1,REAL,FALSA
,,,,,,,,,641e62a8191451d08e6c08f7,001,2024-06-07_07h38.49.851,empathy_intonation_perc,2024.1.4,Win32,60.0240096,,,,,,,,,,,,,,124,lobe,,,,,,304.324,305.748,0,1,0.893,,0,142,142,123,1,pseudoword,0,REAL,FALSA
,,,,,,,,,641e62a8191451d08e6c08f7,001,2024-06-07_07h38.49.851,empathy_intonation_perc,2024.1.4,Win32,60.0240096,,,,,,,,,,,,,,118,bará,,,,,,305.749,307.274,0,1,0.993,,0,143,143,117,1,pseudoword,0,REAL,FALSA
