lextale_instructions.started,lextale_instructions.stopped,lextale_instructions_loop.thisRepN,lextale_instructions_loop.thisTrialN,lextale_instructions_loop.thisN,lextale_instructions_loop.thisIndex,lextale_instructions_loop.ran,instructions_text,continue_text,participant,session,date,expName,psychopyVersion,OS,frameRate,lextale_practice.started,lextale_practice.stopped,key_resp_lextale_practice.keys,key_resp_lextale_practice.corr,key_resp_lextale_practice.rt,key_resp_lextale_practice.duration,lextale_practice_feedback.started,lextale_practice_feedback.stopped,lextale_practice_trials.thisRepN,lextale_practice_trials.thisTrialN,lextale_practice_trials.thisN,lextale_practice_trials.thisIndex,lextale_practice_trials.ran,stim,word,correct_response,prac_button_real,prac_button_false,lextale_check.started,lextale_check.stopped,lextale_trial.started,lextale_trial.stopped,key_resp_lextale_trial.keys,key_resp_lextale_trial.corr,key_resp_lextale_trial.rt,key_resp_lextale_trial.duration,lextail_trials.thisRepN,lextail_trials.thisTrialN,lextail_trials.thisN,lextail_trials.thisIndex,lextail_trials.ran,type,correct_reponse,button_real,button_false
0.002,4.202,0,0,0,0,1,"Este es un test de vocabulario en español. 
  
  A continuación vas a ver 90 secuencias de letras que parecen 'españolas'.
  
  Solo algunas de ellas son palabras de verdad.",(presiona la barra espaciadora para continuar),6441356d5337fd4714939734,001,2024-06-07_07h45.59.001,empathy_intonation_perc,2024.1.4,MacIntel,60.0240096,,,,,,,,,,,,,,,,,,,,,,,,,,,,,,,,,,,
4.202,6.951,0,1,1,1,1,"Por favor, señala las palabras que tú conoces (aquellas que estás convencido que son palabras españolas, incluso aunque no seas capaz de dar el significado preciso).",(presiona la barra espaciadora para continuar),6441356d5337fd4714939734,001,2024-06-07_07h45.59.001,empathy_intonation_perc,2024.1.4,MacIntel,60.0240096,,,,,,,,,,,,,,,,,,,,,,,,,,,,,,,,,,,
6.952,9.234,0,2,2,2,1,Pero cuidado: los errores se penalizan. Por eso no tiene sentido tratar de incrementar tu puntuación marcando como reales palabras que nunca has visto.,(presiona la barra espaciadora para continuar),6441356d5337fd4714939734,001,2024-06-07_07h45.59.001,empathy_intonation_perc,2024.1.4,MacIntel,60.0240096,,,,,,,,,,,,,,,,,,,,,,,,,,,,,,,,,,,
9.235,16.351,0,3,3,3,1,"Presiona la tecla 1 si piensas que es una palabra real y la tecla 
  0 si piensas que es una palabra falsa. 
  
  Vamos a practicar un poco...",(presiona la barra espaciadora para continuar),6441356d5337fd4714939734,001,2024-06-07_07h45.59.001,empathy_intonation_perc,2024.1.4,MacIntel,60.0240096,,,,,,,,,,,,,,,,,,,,,,,,,,,,,,,,,,,
,,,,,,,,,6441356d5337fd4714939734,001,2024-06-07_07h45.59.001,empathy_intonation_perc,2024.1.4,MacIntel,60.0240096,16.356,19.251,1,0,2.365,,19.251,20.251,0,0,0,0,1,0,depiste,0,REAL,FALSA,,,,,,,,,,,,,,,,,
,,,,,,,,,6441356d5337fd4714939734,001,2024-06-07_07h45.59.001,empathy_intonation_perc,2024.1.4,MacIntel,60.0240096,20.252,21.934,0,0,1.146,,21.934,22.935,0,1,1,1,1,0,sí,1,REAL,FALSA,,,,,,,,,,,,,,,,,
,,,,,,,,,6441356d5337fd4714939734,001,2024-06-07_07h45.59.001,empathy_intonation_perc,2024.1.4,MacIntel,60.0240096,22.935,24.917,0,1,1.438,,24.917,25.918,0,2,2,2,1,0,coné,0,REAL,FALSA,,,,,,,,,,,,,,,,,
,,,,,,,,,6441356d5337fd4714939734,001,2024-06-07_07h45.59.001,empathy_intonation_perc,2024.1.4,MacIntel,60.0240096,25.921,27.535,0,1,1.073,,27.535,28.534,0,3,3,3,1,0,calpar,0,REAL,FALSA,,,,,,,,,,,,,,,,,
,,,,,,,,,6441356d5337fd4714939734,001,2024-06-07_07h45.59.001,empathy_intonation_perc,2024.1.4,MacIntel,60.0240096,28.536,29.901,0,1,0.828,,29.901,30.9,0,4,4,4,1,0,joten,0,REAL,FALSA,,,,,,,,,,,,,,,,,
,,,,,,,,,6441356d5337fd4714939734,001,2024-06-07_07h45.59.001,empathy_intonation_perc,2024.1.4,MacIntel,60.0240096,30.902,32.151,0,0,0.7,,32.151,33.151,0,5,5,5,1,0,sacapuntas,1,REAL,FALSA,,,,,,,,,,,,,,,,,
,,,,,,,,,6441356d5337fd4714939734,001,2024-06-07_07h45.59.001,empathy_intonation_perc,2024.1.4,MacIntel,60.0240096,33.151,34.801,1,0,1.11,,34.801,35.801,0,6,6,6,1,0,priba,0,REAL,FALSA,,,,,,,,,,,,,,,,,
,,,,,,,,,6441356d5337fd4714939734,001,2024-06-07_07h45.59.001,empathy_intonation_perc,2024.1.4,MacIntel,60.0240096,35.802,37.085,0,1,0.733,,37.085,38.084,0,7,7,7,1,0,pelasula,0,REAL,FALSA,,,,,,,,,,,,,,,,,
,,,,,,,,,6441356d5337fd4714939734,001,2024-06-07_07h45.59.001,empathy_intonation_perc,2024.1.4,MacIntel,60.0240096,38.085,39.584,1,1,0.952,,39.584,40.583,0,8,8,8,1,0,bien,1,REAL,FALSA,,,,,,,,,,,,,,,,,
,,,,,,,,,6441356d5337fd4714939734,001,2024-06-07_07h45.59.001,empathy_intonation_perc,2024.1.4,MacIntel,60.0240096,40.583,42.001,0,0,0.893,,42.001,43.003,0,9,9,9,1,0,casa,1,REAL,FALSA,,,,,,,,,,,,,,,,,
,,,,,,,,,6441356d5337fd4714939734,001,2024-06-07_07h45.59.001,empathy_intonation_perc,2024.1.4,MacIntel,60.0240096,43.005,44.301,1,0,0.762,,44.301,45.301,0,10,10,10,1,0,lejo,0,REAL,FALSA,,,,,,,,,,,,,,,,,
,,,,,,,,,6441356d5337fd4714939734,001,2024-06-07_07h45.59.001,empathy_intonation_perc,2024.1.4,MacIntel,60.0240096,45.302,46.635,0,1,0.798,,46.635,47.634,0,11,11,11,1,0,pretantas,0,REAL,FALSA,,,,,,,,,,,,,,,,,
,,,,,,,,,6441356d5337fd4714939734,001,2024-06-07_07h45.59.001,empathy_intonation_perc,2024.1.4,MacIntel,60.0240096,,,,,,,,,,,,,,,,,,,47.634,51.334,,,,,,,,,,,,,,,
,,,,,,,,,6441356d5337fd4714939734,001,2024-06-07_07h45.59.001,empathy_intonation_perc,2024.1.4,MacIntel,60.0240096,,,,,,,,,,,,,,35,aurora,,,,,,51.347,52.767,0,1,0.895,,0,0,0,34,1,two_way_cognate,1,REAL,FALSA
,,,,,,,,,6441356d5337fd4714939734,001,2024-06-07_07h45.59.001,empathy_intonation_perc,2024.1.4,MacIntel,60.0240096,,,,,,,,,,,,,,114,potos,,,,,,52.768,54.251,0,1,0.938,,0,1,1,113,1,pseudoword,0,REAL,FALSA
,,,,,,,,,6441356d5337fd4714939734,001,2024-06-07_07h45.59.001,empathy_intonation_perc,2024.1.4,MacIntel,60.0240096,,,,,,,,,,,,,,24,retina,,,,,,54.252,55.583,0,1,0.783,,0,2,2,23,1,three_way_cognate,1,REAL,FALSA
,,,,,,,,,6441356d5337fd4714939734,001,2024-06-07_07h45.59.001,empathy_intonation_perc,2024.1.4,MacIntel,60.0240096,,,,,,,,,,,,,,51,listo,,,,,,55.584,57.166,0,1,1.066,,0,3,3,50,1,non_cognate,1,REAL,FALSA
,,,,,,,,,6441356d5337fd4714939734,001,2024-06-07_07h45.59.001,empathy_intonation_perc,2024.1.4,MacIntel,60.0240096,,,,,,,,,,,,,,144,piria,,,,,,57.167,58.467,0,1,0.78,,0,4,4,143,1,pseudoword,0,REAL,FALSA
,,,,,,,,,6441356d5337fd4714939734,001,2024-06-07_07h45.59.001,empathy_intonation_perc,2024.1.4,MacIntel,60.0240096,,,,,,,,,,,,,,16,clan,,,,,,58.467,59.653,0,1,0.661,,0,5,5,15,1,three_way_cognate,1,REAL,FALSA
,,,,,,,,,6441356d5337fd4714939734,001,2024-06-07_07h45.59.001,empathy_intonation_perc,2024.1.4,MacIntel,60.0240096,,,,,,,,,,,,,,72,rostro,,,,,,59.655,60.967,0,1,0.769,,0,6,6,71,1,non_cognate,1,REAL,FALSA
,,,,,,,,,6441356d5337fd4714939734,001,2024-06-07_07h45.59.001,empathy_intonation_perc,2024.1.4,MacIntel,60.0240096,,,,,,,,,,,,,,87,muleta,,,,,,60.968,62.534,1,0,1.018,,0,7,7,86,1,non_cognate,1,REAL,FALSA
,,,,,,,,,6441356d5337fd4714939734,001,2024-06-07_07h45.59.001,empathy_intonation_perc,2024.1.4,MacIntel,60.0240096,,,,,,,,,,,,,,41,pasta,,,,,,62.535,63.717,1,0,0.644,,0,8,8,40,1,two_way_cognate,1,REAL,FALSA
,,,,,,,,,6441356d5337fd4714939734,001,2024-06-07_07h45.59.001,empathy_intonation_perc,2024.1.4,MacIntel,60.0240096,,,,,,,,,,,,,,14,test,,,,,,63.719,65.301,0,1,1.046,,0,9,9,13,1,three_way_cognate,1,REAL,FALSA
,,,,,,,,,6441356d5337fd4714939734,001,2024-06-07_07h45.59.001,empathy_intonation_perc,2024.1.4,MacIntel,60.0240096,,,,,,,,,,,,,,8,portal,,,,,,65.301,66.6,0,1,0.761,,0,10,10,7,1,three_way_cognate,1,REAL,FALSA
,,,,,,,,,6441356d5337fd4714939734,001,2024-06-07_07h45.59.001,empathy_intonation_perc,2024.1.4,MacIntel,60.0240096,,,,,,,,,,,,,,73,llevar,,,,,,66.601,68.134,0,1,0.989,,0,11,11,72,1,non_cognate,1,REAL,FALSA
,,,,,,,,,6441356d5337fd4714939734,001,2024-06-07_07h45.59.001,empathy_intonation_perc,2024.1.4,MacIntel,60.0240096,,,,,,,,,,,,,,117,apunan,,,,,,68.136,69.634,1,0,0.963,,0,12,12,116,1,pseudoword,0,REAL,FALSA
,,,,,,,,,6441356d5337fd4714939734,001,2024-06-07_07h45.59.001,empathy_intonation_perc,2024.1.4,MacIntel,60.0240096,,,,,,,,,,,,,,126,anicio,,,,,,69.634,70.851,0,1,0.678,,0,13,13,125,1,pseudoword,0,REAL,FALSA
,,,,,,,,,6441356d5337fd4714939734,001,2024-06-07_07h45.59.001,empathy_intonation_perc,2024.1.4,MacIntel,60.0240096,,,,,,,,,,,,,,65,guerra,,,,,,70.851,72.05,1,0,0.666,,0,14,14,64,1,non_cognate,1,REAL,FALSA
,,,,,,,,,6441356d5337fd4714939734,001,2024-06-07_07h45.59.001,empathy_intonation_perc,2024.1.4,MacIntel,60.0240096,,,,,,,,,,,,,,36,viable,,,,,,72.052,73.983,0,1,1.398,,0,15,15,35,1,two_way_cognate,1,REAL,FALSA
,,,,,,,,,6441356d5337fd4714939734,001,2024-06-07_07h45.59.001,empathy_intonation_perc,2024.1.4,MacIntel,60.0240096,,,,,,,,,,,,,,68,puñal,,,,,,73.984,76.283,0,1,1.779,,0,16,16,67,1,non_cognate,1,REAL,FALSA
,,,,,,,,,6441356d5337fd4714939734,001,2024-06-07_07h45.59.001,empathy_intonation_perc,2024.1.4,MacIntel,60.0240096,,,,,,,,,,,,,,115,civas,,,,,,76.285,78.001,1,0,1.177,,0,17,17,114,1,pseudoword,0,REAL,FALSA
,,,,,,,,,6441356d5337fd4714939734,001,2024-06-07_07h45.59.001,empathy_intonation_perc,2024.1.4,MacIntel,60.0240096,,,,,,,,,,,,,,101,fertes,,,,,,78.001,79.234,1,0,0.71,,0,18,18,100,1,pseudoword,0,REAL,FALSA
,,,,,,,,,6441356d5337fd4714939734,001,2024-06-07_07h45.59.001,empathy_intonation_perc,2024.1.4,MacIntel,60.0240096,,,,,,,,,,,,,,99,mieris,,,,,,79.234,80.251,0,1,0.494,,0,19,19,98,1,pseudoword,0,REAL,FALSA
,,,,,,,,,6441356d5337fd4714939734,001,2024-06-07_07h45.59.001,empathy_intonation_perc,2024.1.4,MacIntel,60.0240096,,,,,,,,,,,,,,45,total,,,,,,80.251,81.35,0,1,0.577,,0,20,20,44,1,two_way_cognate,1,REAL,FALSA
,,,,,,,,,6441356d5337fd4714939734,001,2024-06-07_07h45.59.001,empathy_intonation_perc,2024.1.4,MacIntel,60.0240096,,,,,,,,,,,,,,11,dogma,,,,,,81.351,82.734,0,1,0.845,,0,21,21,10,1,three_way_cognate,1,REAL,FALSA
,,,,,,,,,6441356d5337fd4714939734,001,2024-06-07_07h45.59.001,empathy_intonation_perc,2024.1.4,MacIntel,60.0240096,,,,,,,,,,,,,,61,aduana,,,,,,82.734,83.9,1,0,0.645,,0,22,22,60,1,non_cognate,1,REAL,FALSA
,,,,,,,,,6441356d5337fd4714939734,001,2024-06-07_07h45.59.001,empathy_intonation_perc,2024.1.4,MacIntel,60.0240096,,,,,,,,,,,,,,29,clamor,,,,,,83.901,85.351,0,1,0.909,,0,23,23,28,1,two_way_cognate,1,REAL,FALSA
,,,,,,,,,6441356d5337fd4714939734,001,2024-06-07_07h45.59.001,empathy_intonation_perc,2024.1.4,MacIntel,60.0240096,,,,,,,,,,,,,,1,tumor,,,,,,85.351,86.551,0,1,0.661,,0,24,24,0,1,three_way_cognate,1,REAL,FALSA
,,,,,,,,,6441356d5337fd4714939734,001,2024-06-07_07h45.59.001,empathy_intonation_perc,2024.1.4,MacIntel,60.0240096,,,,,,,,,,,,,,2,disco,,,,,,86.551,87.751,0,1,0.662,,0,25,25,1,1,three_way_cognate,1,REAL,FALSA
,,,,,,,,,6441356d5337fd4714939734,001,2024-06-07_07h45.59.001,empathy_intonation_perc,2024.1.4,MacIntel,60.0240096,,,,,,,,,,,,,,37,torso,,,,,,87.751,88.951,1,0,0.679,,0,26,26,36,1,two_way_cognate,1,REAL,FALSA
,,,,,,,,,6441356d5337fd4714939734,001,2024-06-07_07h45.59.001,empathy_intonation_perc,2024.1.4,MacIntel,60.0240096,,,,,,,,,,,,,,69,tiza,,,,,,88.951,90.185,1,0,0.691,,0,27,27,68,1,non_cognate,1,REAL,FALSA
,,,,,,,,,6441356d5337fd4714939734,001,2024-06-07_07h45.59.001,empathy_intonation_perc,2024.1.4,MacIntel,60.0240096,,,,,,,,,,,,,,28,ardor,,,,,,90.187,91.701,1,0,0.979,,0,28,28,27,1,two_way_cognate,1,REAL,FALSA
,,,,,,,,,6441356d5337fd4714939734,001,2024-06-07_07h45.59.001,empathy_intonation_perc,2024.1.4,MacIntel,60.0240096,,,,,,,,,,,,,,21,mango,,,,,,91.702,93.334,1,0,1.095,,0,29,29,20,1,three_way_cognate,1,REAL,FALSA
,,,,,,,,,6441356d5337fd4714939734,001,2024-06-07_07h45.59.001,empathy_intonation_perc,2024.1.4,MacIntel,60.0240096,,,,,,,,,,,,,,102,coyo,,,,,,93.335,94.701,1,0,0.831,,0,30,30,101,1,pseudoword,0,REAL,FALSA
,,,,,,,,,6441356d5337fd4714939734,001,2024-06-07_07h45.59.001,empathy_intonation_perc,2024.1.4,MacIntel,60.0240096,,,,,,,,,,,,,,52,blando,,,,,,94.701,96.034,1,0,0.793,,0,31,31,51,1,non_cognate,1,REAL,FALSA
,,,,,,,,,6441356d5337fd4714939734,001,2024-06-07_07h45.59.001,empathy_intonation_perc,2024.1.4,MacIntel,60.0240096,,,,,,,,,,,,,,62,pegar,,,,,,96.034,97.234,1,0,0.68,,0,32,32,61,1,non_cognate,1,REAL,FALSA
,,,,,,,,,6441356d5337fd4714939734,001,2024-06-07_07h45.59.001,empathy_intonation_perc,2024.1.4,MacIntel,60.0240096,,,,,,,,,,,,,,40,pelvis,,,,,,97.235,98.751,0,1,0.98,,0,33,33,39,1,two_way_cognate,1,REAL,FALSA
,,,,,,,,,6441356d5337fd4714939734,001,2024-06-07_07h45.59.001,empathy_intonation_perc,2024.1.4,MacIntel,60.0240096,,,,,,,,,,,,,,49,teñir,,,,,,98.751,100.101,1,0,0.832,,0,34,34,48,1,non_cognate,1,REAL,FALSA
,,,,,,,,,6441356d5337fd4714939734,001,2024-06-07_07h45.59.001,empathy_intonation_perc,2024.1.4,MacIntel,60.0240096,,,,,,,,,,,,,,34,actor,,,,,,100.101,101.333,0,1,0.7,,0,35,35,33,1,two_way_cognate,1,REAL,FALSA
,,,,,,,,,6441356d5337fd4714939734,001,2024-06-07_07h45.59.001,empathy_intonation_perc,2024.1.4,MacIntel,60.0240096,,,,,,,,,,,,,,98,erede,,,,,,101.334,102.5,1,0,0.633,,0,36,36,97,1,pseudoword,0,REAL,FALSA
,,,,,,,,,6441356d5337fd4714939734,001,2024-06-07_07h45.59.001,empathy_intonation_perc,2024.1.4,MacIntel,60.0240096,,,,,,,,,,,,,,75,patada,,,,,,102.501,103.534,1,0,0.496,,0,37,37,74,1,non_cognate,1,REAL,FALSA
,,,,,,,,,6441356d5337fd4714939734,001,2024-06-07_07h45.59.001,empathy_intonation_perc,2024.1.4,MacIntel,60.0240096,,,,,,,,,,,,,,4,extra,,,,,,103.534,104.7,0,1,0.625,,0,38,38,3,1,three_way_cognate,1,REAL,FALSA
,,,,,,,,,6441356d5337fd4714939734,001,2024-06-07_07h45.59.001,empathy_intonation_perc,2024.1.4,MacIntel,60.0240096,,,,,,,,,,,,,,90,venado,,,,,,104.701,105.8,1,0,0.563,,0,39,39,89,1,non_cognate,1,REAL,FALSA
,,,,,,,,,6441356d5337fd4714939734,001,2024-06-07_07h45.59.001,empathy_intonation_perc,2024.1.4,MacIntel,60.0240096,,,,,,,,,,,,,,10,golf,,,,,,105.8,107.067,0,1,0.746,,0,40,40,9,1,three_way_cognate,1,REAL,FALSA
,,,,,,,,,6441356d5337fd4714939734,001,2024-06-07_07h45.59.001,empathy_intonation_perc,2024.1.4,MacIntel,60.0240096,,,,,,,,,,,,,,138,glural,,,,,,107.068,108.784,1,0,1.18,,0,41,41,137,1,pseudoword,0,REAL,FALSA
,,,,,,,,,6441356d5337fd4714939734,001,2024-06-07_07h45.59.001,empathy_intonation_perc,2024.1.4,MacIntel,60.0240096,,,,,,,,,,,,,,92,flecha,,,,,,108.784,109.984,1,0,0.664,,0,42,42,91,1,non_cognate,1,REAL,FALSA
,,,,,,,,,6441356d5337fd4714939734,001,2024-06-07_07h45.59.001,empathy_intonation_perc,2024.1.4,MacIntel,60.0240096,,,,,,,,,,,,,,64,rizado,,,,,,109.984,111.05,1,0,0.546,,0,43,43,63,1,non_cognate,1,REAL,FALSA
,,,,,,,,,6441356d5337fd4714939734,001,2024-06-07_07h45.59.001,empathy_intonation_perc,2024.1.4,MacIntel,60.0240096,,,,,,,,,,,,,,39,casual,,,,,,111.051,112.251,0,1,0.666,,0,44,44,38,1,two_way_cognate,1,REAL,FALSA
,,,,,,,,,6441356d5337fd4714939734,001,2024-06-07_07h45.59.001,empathy_intonation_perc,2024.1.4,MacIntel,60.0240096,,,,,,,,,,,,,,9,drama,,,,,,112.251,113.484,0,1,0.696,,0,45,45,8,1,three_way_cognate,1,REAL,FALSA
,,,,,,,,,6441356d5337fd4714939734,001,2024-06-07_07h45.59.001,empathy_intonation_perc,2024.1.4,MacIntel,60.0240096,,,,,,,,,,,,,,20,hotel,,,,,,113.484,114.501,0,1,0.479,,0,46,46,19,1,three_way_cognate,1,REAL,FALSA
,,,,,,,,,6441356d5337fd4714939734,001,2024-06-07_07h45.59.001,empathy_intonation_perc,2024.1.4,MacIntel,60.0240096,,,,,,,,,,,,,,42,rumor,,,,,,114.501,115.917,0,1,0.874,,0,47,47,41,1,two_way_cognate,1,REAL,FALSA
,,,,,,,,,6441356d5337fd4714939734,001,2024-06-07_07h45.59.001,empathy_intonation_perc,2024.1.4,MacIntel,60.0240096,,,,,,,,,,,,,,70,ánimo,,,,,,115.918,117.45,1,0,0.998,,0,48,48,69,1,non_cognate,1,REAL,FALSA
,,,,,,,,,6441356d5337fd4714939734,001,2024-06-07_07h45.59.001,empathy_intonation_perc,2024.1.4,MacIntel,60.0240096,,,,,,,,,,,,,,23,porno,,,,,,117.451,118.85,0,1,0.862,,0,49,49,22,1,three_way_cognate,1,REAL,FALSA
,,,,,,,,,6441356d5337fd4714939734,001,2024-06-07_07h45.59.001,empathy_intonation_perc,2024.1.4,MacIntel,60.0240096,,,,,,,,,,,,,,110,vacapó,,,,,,118.851,120.418,1,0,1.029,,0,50,50,109,1,pseudoword,0,REAL,FALSA
,,,,,,,,,6441356d5337fd4714939734,001,2024-06-07_07h45.59.001,empathy_intonation_perc,2024.1.4,MacIntel,60.0240096,,,,,,,,,,,,,,77,suave,,,,,,120.421,121.733,1,0,0.777,,0,51,51,76,1,non_cognate,1,REAL,FALSA
,,,,,,,,,6441356d5337fd4714939734,001,2024-06-07_07h45.59.001,empathy_intonation_perc,2024.1.4,MacIntel,60.0240096,,,,,,,,,,,,,,31,civil,,,,,,121.734,123.051,0,1,0.782,,0,52,52,30,1,two_way_cognate,1,REAL,FALSA
,,,,,,,,,6441356d5337fd4714939734,001,2024-06-07_07h45.59.001,empathy_intonation_perc,2024.1.4,MacIntel,60.0240096,,,,,,,,,,,,,,30,fiscal,,,,,,123.051,124.233,0,1,0.644,,0,53,53,29,1,two_way_cognate,1,REAL,FALSA
,,,,,,,,,6441356d5337fd4714939734,001,2024-06-07_07h45.59.001,empathy_intonation_perc,2024.1.4,MacIntel,60.0240096,,,,,,,,,,,,,,79,suelo,,,,,,124.236,125.433,1,0,0.664,,0,54,54,78,1,non_cognate,1,REAL,FALSA
,,,,,,,,,6441356d5337fd4714939734,001,2024-06-07_07h45.59.001,empathy_intonation_perc,2024.1.4,MacIntel,60.0240096,,,,,,,,,,,,,,95,listo,,,,,,125.434,126.484,1,0,0.53,,0,55,55,94,1,non_cognate,1,REAL,FALSA
,,,,,,,,,6441356d5337fd4714939734,001,2024-06-07_07h45.59.001,empathy_intonation_perc,2024.1.4,MacIntel,60.0240096,,,,,,,,,,,,,,59,feo,,,,,,126.484,127.65,1,0,0.645,,0,56,56,58,1,non_cognate,1,REAL,FALSA
,,,,,,,,,6441356d5337fd4714939734,001,2024-06-07_07h45.59.001,empathy_intonation_perc,2024.1.4,MacIntel,60.0240096,,,,,,,,,,,,,,132,nocó,,,,,,127.653,128.701,1,0,0.51,,0,57,57,131,1,pseudoword,0,REAL,FALSA
,,,,,,,,,6441356d5337fd4714939734,001,2024-06-07_07h45.59.001,empathy_intonation_perc,2024.1.4,MacIntel,60.0240096,,,,,,,,,,,,,,130,dubo,,,,,,128.702,129.784,1,0,0.544,,0,58,58,129,1,pseudoword,0,REAL,FALSA
,,,,,,,,,6441356d5337fd4714939734,001,2024-06-07_07h45.59.001,empathy_intonation_perc,2024.1.4,MacIntel,60.0240096,,,,,,,,,,,,,,54,tapón,,,,,,129.785,130.851,1,0,0.531,,0,59,59,53,1,non_cognate,1,REAL,FALSA
,,,,,,,,,6441356d5337fd4714939734,001,2024-06-07_07h45.59.001,empathy_intonation_perc,2024.1.4,MacIntel,60.0240096,,,,,,,,,,,,,,86,cuenco,,,,,,130.851,131.9,1,0,0.516,,0,60,60,85,1,non_cognate,1,REAL,FALSA
,,,,,,,,,6441356d5337fd4714939734,001,2024-06-07_07h45.59.001,empathy_intonation_perc,2024.1.4,MacIntel,60.0240096,,,,,,,,,,,,,,44,editor,,,,,,131.901,132.951,0,1,0.514,,0,61,61,43,1,two_way_cognate,1,REAL,FALSA
,,,,,,,,,6441356d5337fd4714939734,001,2024-06-07_07h45.59.001,empathy_intonation_perc,2024.1.4,MacIntel,60.0240096,,,,,,,,,,,,,,81,sacar,,,,,,132.952,134.101,1,0,0.609,,0,62,62,80,1,non_cognate,1,REAL,FALSA
,,,,,,,,,6441356d5337fd4714939734,001,2024-06-07_07h45.59.001,empathy_intonation_perc,2024.1.4,MacIntel,60.0240096,,,,,,,,,,,,,,94,forro,,,,,,134.101,135.417,1,0,0.774,,0,63,63,93,1,non_cognate,1,REAL,FALSA
,,,,,,,,,6441356d5337fd4714939734,001,2024-06-07_07h45.59.001,empathy_intonation_perc,2024.1.4,MacIntel,60.0240096,,,,,,,,,,,,,,141,sumer,,,,,,135.418,136.533,1,0,0.577,,0,64,64,140,1,pseudoword,0,REAL,FALSA
,,,,,,,,,6441356d5337fd4714939734,001,2024-06-07_07h45.59.001,empathy_intonation_perc,2024.1.4,MacIntel,60.0240096,,,,,,,,,,,,,,18,mafia,,,,,,136.534,137.916,0,1,0.844,,0,65,65,17,1,three_way_cognate,1,REAL,FALSA
,,,,,,,,,6441356d5337fd4714939734,001,2024-06-07_07h45.59.001,empathy_intonation_perc,2024.1.4,MacIntel,60.0240096,,,,,,,,,,,,,,97,hufón,,,,,,137.917,139.017,1,0,0.579,,0,66,66,96,1,pseudoword,0,REAL,FALSA
,,,,,,,,,6441356d5337fd4714939734,001,2024-06-07_07h45.59.001,empathy_intonation_perc,2024.1.4,MacIntel,60.0240096,,,,,,,,,,,,,,13,aura,,,,,,139.018,140.217,1,0,0.659,,0,67,67,12,1,three_way_cognate,1,REAL,FALSA
,,,,,,,,,6441356d5337fd4714939734,001,2024-06-07_07h45.59.001,empathy_intonation_perc,2024.1.4,MacIntel,60.0240096,,,,,,,,,,,,,,105,curgué,,,,,,140.218,141.5,1,0,0.748,,0,68,68,104,1,pseudoword,0,REAL,FALSA
,,,,,,,,,6441356d5337fd4714939734,001,2024-06-07_07h45.59.001,empathy_intonation_perc,2024.1.4,MacIntel,60.0240096,,,,,,,,,,,,,,88,percha,,,,,,141.501,142.617,1,0,0.578,,0,69,69,87,1,non_cognate,1,REAL,FALSA
,,,,,,,,,6441356d5337fd4714939734,001,2024-06-07_07h45.59.001,empathy_intonation_perc,2024.1.4,MacIntel,60.0240096,,,,,,,,,,,,,,96,caro,,,,,,142.617,143.684,1,0,0.53,,0,70,70,95,1,non_cognate,1,REAL,FALSA
,,,,,,,,,6441356d5337fd4714939734,001,2024-06-07_07h45.59.001,empathy_intonation_perc,2024.1.4,MacIntel,60.0240096,,,,,,,,,,,,,,38,halo,,,,,,143.685,145.1,1,0,0.884,,0,71,71,37,1,two_way_cognate,1,REAL,FALSA
,,,,,,,,,6441356d5337fd4714939734,001,2024-06-07_07h45.59.001,empathy_intonation_perc,2024.1.4,MacIntel,60.0240096,,,,,,,,,,,,,,71,torta,,,,,,145.1,146.333,1,0,0.713,,0,72,72,70,1,non_cognate,1,REAL,FALSA
,,,,,,,,,6441356d5337fd4714939734,001,2024-06-07_07h45.59.001,empathy_intonation_perc,2024.1.4,MacIntel,60.0240096,,,,,,,,,,,,,,104,vitra,,,,,,146.334,147.684,1,0,0.828,,0,73,73,103,1,pseudoword,0,REAL,FALSA
,,,,,,,,,6441356d5337fd4714939734,001,2024-06-07_07h45.59.001,empathy_intonation_perc,2024.1.4,MacIntel,60.0240096,,,,,,,,,,,,,,48,pelvis,,,,,,147.685,148.984,0,1,0.76,,0,74,74,47,1,two_way_cognate,1,REAL,FALSA
,,,,,,,,,6441356d5337fd4714939734,001,2024-06-07_07h45.59.001,empathy_intonation_perc,2024.1.4,MacIntel,60.0240096,,,,,,,,,,,,,,33,collar,,,,,,148.984,165.151,0,1,15.626,,0,75,75,32,1,two_way_cognate,1,REAL,FALSA
,,,,,,,,,6441356d5337fd4714939734,001,2024-06-07_07h45.59.001,empathy_intonation_perc,2024.1.4,MacIntel,60.0240096,,,,,,,,,,,,,,76,chocar,,,,,,165.154,166.466,1,0,0.775,,0,76,76,75,1,non_cognate,1,REAL,FALSA
,,,,,,,,,6441356d5337fd4714939734,001,2024-06-07_07h45.59.001,empathy_intonation_perc,2024.1.4,MacIntel,60.0240096,,,,,,,,,,,,,,121,rombar,,,,,,166.466,167.517,1,0,0.529,,0,77,77,120,1,pseudoword,0,REAL,FALSA
,,,,,,,,,6441356d5337fd4714939734,001,2024-06-07_07h45.59.001,empathy_intonation_perc,2024.1.4,MacIntel,60.0240096,,,,,,,,,,,,,,53,punta,,,,,,167.517,168.684,1,0,0.629,,0,78,78,52,1,non_cognate,1,REAL,FALSA
,,,,,,,,,6441356d5337fd4714939734,001,2024-06-07_07h45.59.001,empathy_intonation_perc,2024.1.4,MacIntel,60.0240096,,,,,,,,,,,,,,50,sierra,,,,,,168.684,169.733,1,0,0.512,,0,79,79,49,1,non_cognate,1,REAL,FALSA
,,,,,,,,,6441356d5337fd4714939734,001,2024-06-07_07h45.59.001,empathy_intonation_perc,2024.1.4,MacIntel,60.0240096,,,,,,,,,,,,,,27,piano,,,,,,169.734,170.933,0,1,0.664,,0,80,80,26,1,two_way_cognate,1,REAL,FALSA
,,,,,,,,,6441356d5337fd4714939734,001,2024-06-07_07h45.59.001,empathy_intonation_perc,2024.1.4,MacIntel,60.0240096,,,,,,,,,,,,,,3,flora,,,,,,170.935,172.049,1,0,0.578,,0,81,81,2,1,three_way_cognate,1,REAL,FALSA
,,,,,,,,,6441356d5337fd4714939734,001,2024-06-07_07h45.59.001,empathy_intonation_perc,2024.1.4,MacIntel,60.0240096,,,,,,,,,,,,,,112,cituló,,,,,,172.05,173.217,1,0,0.644,,0,82,82,111,1,pseudoword,0,REAL,FALSA
,,,,,,,,,6441356d5337fd4714939734,001,2024-06-07_07h45.59.001,empathy_intonation_perc,2024.1.4,MacIntel,60.0240096,,,,,,,,,,,,,,80,cuenco,,,,,,173.217,174.333,1,0,0.598,,0,83,83,79,1,non_cognate,1,REAL,FALSA
,,,,,,,,,6441356d5337fd4714939734,001,2024-06-07_07h45.59.001,empathy_intonation_perc,2024.1.4,MacIntel,60.0240096,,,,,,,,,,,,,,124,lobe,,,,,,174.334,175.433,1,0,0.562,,0,84,84,123,1,pseudoword,0,REAL,FALSA
,,,,,,,,,6441356d5337fd4714939734,001,2024-06-07_07h45.59.001,empathy_intonation_perc,2024.1.4,MacIntel,60.0240096,,,,,,,,,,,,,,128,pelí,,,,,,175.435,176.433,1,0,0.462,,0,85,85,127,1,pseudoword,0,REAL,FALSA
,,,,,,,,,6441356d5337fd4714939734,001,2024-06-07_07h45.59.001,empathy_intonation_perc,2024.1.4,MacIntel,60.0240096,,,,,,,,,,,,,,103,babes,,,,,,176.435,177.865,1,0,0.892,,0,86,86,102,1,pseudoword,0,REAL,FALSA
,,,,,,,,,6441356d5337fd4714939734,001,2024-06-07_07h45.59.001,empathy_intonation_perc,2024.1.4,MacIntel,60.0240096,,,,,,,,,,,,,,6,albino,,,,,,177.866,179.483,0,1,1.098,,0,87,87,5,1,three_way_cognate,1,REAL,FALSA
,,,,,,,,,6441356d5337fd4714939734,001,2024-06-07_07h45.59.001,empathy_intonation_perc,2024.1.4,MacIntel,60.0240096,,,,,,,,,,,,,,83,hálito,,,,,,179.484,180.568,1,0,0.543,,0,88,88,82,1,non_cognate,1,REAL,FALSA
,,,,,,,,,6441356d5337fd4714939734,001,2024-06-07_07h45.59.001,empathy_intonation_perc,2024.1.4,MacIntel,60.0240096,,,,,,,,,,,,,,139,furbos,,,,,,180.57,181.683,1,0,0.58,,0,89,89,138,1,pseudoword,0,REAL,FALSA
,,,,,,,,,6441356d5337fd4714939734,001,2024-06-07_07h45.59.001,empathy_intonation_perc,2024.1.4,MacIntel,60.0240096,,,,,,,,,,,,,,136,sopleó,,,,,,181.684,182.767,1,0,0.55,,0,90,90,135,1,pseudoword,0,REAL,FALSA
,,,,,,,,,6441356d5337fd4714939734,001,2024-06-07_07h45.59.001,empathy_intonation_perc,2024.1.4,MacIntel,60.0240096,,,,,,,,,,,,,,7,kilo,,,,,,182.768,183.95,1,0,0.646,,0,91,91,6,1,three_way_cognate,1,REAL,FALSA
,,,,,,,,,6441356d5337fd4714939734,001,2024-06-07_07h45.59.001,empathy_intonation_perc,2024.1.4,MacIntel,60.0240096,,,,,,,,,,,,,,46,mortal,,,,,,183.951,185.184,0,1,0.696,,0,92,92,45,1,two_way_cognate,1,REAL,FALSA
,,,,,,,,,6441356d5337fd4714939734,001,2024-06-07_07h45.59.001,empathy_intonation_perc,2024.1.4,MacIntel,60.0240096,,,,,,,,,,,,,,134,fruzas,,,,,,185.185,186.367,1,0,0.644,,0,93,93,133,1,pseudoword,0,REAL,FALSA
,,,,,,,,,6441356d5337fd4714939734,001,2024-06-07_07h45.59.001,empathy_intonation_perc,2024.1.4,MacIntel,60.0240096,,,,,,,,,,,,,,56,pico,,,,,,186.368,187.533,1,0,0.631,,0,94,94,55,1,non_cognate,1,REAL,FALSA
,,,,,,,,,6441356d5337fd4714939734,001,2024-06-07_07h45.59.001,empathy_intonation_perc,2024.1.4,MacIntel,60.0240096,,,,,,,,,,,,,,142,viseña,,,,,,187.533,188.583,1,0,0.527,,0,95,95,141,1,pseudoword,0,REAL,FALSA
,,,,,,,,,6441356d5337fd4714939734,001,2024-06-07_07h45.59.001,empathy_intonation_perc,2024.1.4,MacIntel,60.0240096,,,,,,,,,,,,,,74,ala,,,,,,188.584,189.683,1,0,0.58,,0,96,96,73,1,non_cognate,1,REAL,FALSA
,,,,,,,,,6441356d5337fd4714939734,001,2024-06-07_07h45.59.001,empathy_intonation_perc,2024.1.4,MacIntel,60.0240096,,,,,,,,,,,,,,106,baurá,,,,,,189.684,190.733,1,0,0.516,,0,97,97,105,1,pseudoword,0,REAL,FALSA
,,,,,,,,,6441356d5337fd4714939734,001,2024-06-07_07h45.59.001,empathy_intonation_perc,2024.1.4,MacIntel,60.0240096,,,,,,,,,,,,,,47,color,,,,,,190.733,191.85,0,1,0.592,,0,98,98,46,1,two_way_cognate,1,REAL,FALSA
,,,,,,,,,6441356d5337fd4714939734,001,2024-06-07_07h45.59.001,empathy_intonation_perc,2024.1.4,MacIntel,60.0240096,,,,,,,,,,,,,,131,fuar,,,,,,191.851,192.934,1,0,0.545,,0,99,99,130,1,pseudoword,0,REAL,FALSA
,,,,,,,,,6441356d5337fd4714939734,001,2024-06-07_07h45.59.001,empathy_intonation_perc,2024.1.4,MacIntel,60.0240096,,,,,,,,,,,,,,116,crene,,,,,,192.935,194.099,1,0,0.629,,0,100,100,115,1,pseudoword,0,REAL,FALSA
,,,,,,,,,6441356d5337fd4714939734,001,2024-06-07_07h45.59.001,empathy_intonation_perc,2024.1.4,MacIntel,60.0240096,,,,,,,,,,,,,,120,hierno,,,,,,194.1,195.216,1,0,0.596,,0,101,101,119,1,pseudoword,0,REAL,FALSA
,,,,,,,,,6441356d5337fd4714939734,001,2024-06-07_07h45.59.001,empathy_intonation_perc,2024.1.4,MacIntel,60.0240096,,,,,,,,,,,,,,58,colcha,,,,,,195.217,196.416,1,0,0.659,,0,102,102,57,1,non_cognate,1,REAL,FALSA
,,,,,,,,,6441356d5337fd4714939734,001,2024-06-07_07h45.59.001,empathy_intonation_perc,2024.1.4,MacIntel,60.0240096,,,,,,,,,,,,,,60,siglo,,,,,,196.417,197.517,1,0,0.563,,0,103,103,59,1,non_cognate,1,REAL,FALSA
,,,,,,,,,6441356d5337fd4714939734,001,2024-06-07_07h45.59.001,empathy_intonation_perc,2024.1.4,MacIntel,60.0240096,,,,,,,,,,,,,,89,muñeca,,,,,,197.517,198.533,1,0,0.481,,0,104,104,88,1,non_cognate,1,REAL,FALSA
,,,,,,,,,6441356d5337fd4714939734,001,2024-06-07_07h45.59.001,empathy_intonation_perc,2024.1.4,MacIntel,60.0240096,,,,,,,,,,,,,,129,suchas,,,,,,198.534,199.85,1,0,0.781,,0,105,105,128,1,pseudoword,0,REAL,FALSA
,,,,,,,,,6441356d5337fd4714939734,001,2024-06-07_07h45.59.001,empathy_intonation_perc,2024.1.4,MacIntel,60.0240096,,,,,,,,,,,,,,91,equipo,,,,,,199.85,201.3,1,0,0.912,,0,106,106,90,1,non_cognate,1,REAL,FALSA
,,,,,,,,,6441356d5337fd4714939734,001,2024-06-07_07h45.59.001,empathy_intonation_perc,2024.1.4,MacIntel,60.0240096,,,,,,,,,,,,,,118,bará,,,,,,201.301,202.417,1,0,0.577,,0,107,107,117,1,pseudoword,0,REAL,FALSA
,,,,,,,,,6441356d5337fd4714939734,001,2024-06-07_07h45.59.001,empathy_intonation_perc,2024.1.4,MacIntel,60.0240096,,,,,,,,,,,,,,78,rendir,,,,,,202.417,203.55,1,0,0.597,,0,108,108,77,1,non_cognate,1,REAL,FALSA
,,,,,,,,,6441356d5337fd4714939734,001,2024-06-07_07h45.59.001,empathy_intonation_perc,2024.1.4,MacIntel,60.0240096,,,,,,,,,,,,,,109,hágino,,,,,,203.55,204.667,1,0,0.585,,0,109,109,108,1,pseudoword,0,REAL,FALSA
,,,,,,,,,6441356d5337fd4714939734,001,2024-06-07_07h45.59.001,empathy_intonation_perc,2024.1.4,MacIntel,60.0240096,,,,,,,,,,,,,,137,unglés,,,,,,204.667,205.766,1,0,0.578,,0,110,110,136,1,pseudoword,0,REAL,FALSA
,,,,,,,,,6441356d5337fd4714939734,001,2024-06-07_07h45.59.001,empathy_intonation_perc,2024.1.4,MacIntel,60.0240096,,,,,,,,,,,,,,107,plamos,,,,,,205.767,206.966,1,0,0.661,,0,111,111,106,1,pseudoword,0,REAL,FALSA
,,,,,,,,,6441356d5337fd4714939734,001,2024-06-07_07h45.59.001,empathy_intonation_perc,2024.1.4,MacIntel,60.0240096,,,,,,,,,,,,,,5,horror,,,,,,206.967,208.133,0,1,0.633,,0,112,112,4,1,three_way_cognate,1,REAL,FALSA
,,,,,,,,,6441356d5337fd4714939734,001,2024-06-07_07h45.59.001,empathy_intonation_perc,2024.1.4,MacIntel,60.0240096,,,,,,,,,,,,,,125,ceme,,,,,,208.134,209.483,1,0,0.813,,0,113,113,124,1,pseudoword,0,REAL,FALSA
,,,,,,,,,6441356d5337fd4714939734,001,2024-06-07_07h45.59.001,empathy_intonation_perc,2024.1.4,MacIntel,60.0240096,,,,,,,,,,,,,,143,pledú,,,,,,209.483,210.633,1,0,0.612,,0,114,114,142,1,pseudoword,0,REAL,FALSA
,,,,,,,,,6441356d5337fd4714939734,001,2024-06-07_07h45.59.001,empathy_intonation_perc,2024.1.4,MacIntel,60.0240096,,,,,,,,,,,,,,82,brillo,,,,,,210.633,212.734,1,0,1.583,,0,115,115,81,1,non_cognate,1,REAL,FALSA
,,,,,,,,,6441356d5337fd4714939734,001,2024-06-07_07h45.59.001,empathy_intonation_perc,2024.1.4,MacIntel,60.0240096,,,,,,,,,,,,,,85,enorme,,,,,,212.737,213.915,1,0,0.644,,0,116,116,84,1,non_cognate,1,REAL,FALSA
,,,,,,,,,6441356d5337fd4714939734,001,2024-06-07_07h45.59.001,empathy_intonation_perc,2024.1.4,MacIntel,60.0240096,,,,,,,,,,,,,,25,vigor,,,,,,213.916,215.133,1,0,0.697,,0,117,117,24,1,two_way_cognate,1,REAL,FALSA
,,,,,,,,,6441356d5337fd4714939734,001,2024-06-07_07h45.59.001,empathy_intonation_perc,2024.1.4,MacIntel,60.0240096,,,,,,,,,,,,,,122,gravés,,,,,,215.134,216.216,1,0,0.542,,0,118,118,121,1,pseudoword,0,REAL,FALSA
,,,,,,,,,6441356d5337fd4714939734,001,2024-06-07_07h45.59.001,empathy_intonation_perc,2024.1.4,MacIntel,60.0240096,,,,,,,,,,,,,,67,llamar,,,,,,216.217,217.683,1,0,0.928,,0,119,119,66,1,non_cognate,1,REAL,FALSA
,,,,,,,,,6441356d5337fd4714939734,001,2024-06-07_07h45.59.001,empathy_intonation_perc,2024.1.4,MacIntel,60.0240096,,,,,,,,,,,,,,32,animal,,,,,,217.684,218.932,0,1,0.715,,0,120,120,31,1,two_way_cognate,1,REAL,FALSA
,,,,,,,,,6441356d5337fd4714939734,001,2024-06-07_07h45.59.001,empathy_intonation_perc,2024.1.4,MacIntel,60.0240096,,,,,,,,,,,,,,26,enigma,,,,,,218.933,220.2,1,0,0.746,,0,121,121,25,1,two_way_cognate,1,REAL,FALSA
,,,,,,,,,6441356d5337fd4714939734,001,2024-06-07_07h45.59.001,empathy_intonation_perc,2024.1.4,MacIntel,60.0240096,,,,,,,,,,,,,,22,plural,,,,,,220.201,221.883,0,1,1.145,,0,122,122,21,1,three_way_cognate,1,REAL,FALSA
,,,,,,,,,6441356d5337fd4714939734,001,2024-06-07_07h45.59.001,empathy_intonation_perc,2024.1.4,MacIntel,60.0240096,,,,,,,,,,,,,,66,aleta,,,,,,221.884,223.183,1,0,0.765,,0,123,123,65,1,non_cognate,1,REAL,FALSA
,,,,,,,,,6441356d5337fd4714939734,001,2024-06-07_07h45.59.001,empathy_intonation_perc,2024.1.4,MacIntel,60.0240096,,,,,,,,,,,,,,113,difrás,,,,,,223.183,224.199,1,0,0.479,,0,124,124,112,1,pseudoword,0,REAL,FALSA
,,,,,,,,,6441356d5337fd4714939734,001,2024-06-07_07h45.59.001,empathy_intonation_perc,2024.1.4,MacIntel,60.0240096,,,,,,,,,,,,,,123,escare,,,,,,224.2,225.383,1,0,0.644,,0,125,125,122,1,pseudoword,0,REAL,FALSA
,,,,,,,,,6441356d5337fd4714939734,001,2024-06-07_07h45.59.001,empathy_intonation_perc,2024.1.4,MacIntel,60.0240096,,,,,,,,,,,,,,15,chat,,,,,,225.384,226.533,0,1,0.608,,0,126,126,14,1,three_way_cognate,1,REAL,FALSA
,,,,,,,,,6441356d5337fd4714939734,001,2024-06-07_07h45.59.001,empathy_intonation_perc,2024.1.4,MacIntel,60.0240096,,,,,,,,,,,,,,119,esís,,,,,,226.533,227.616,1,0,0.56,,0,127,127,118,1,pseudoword,0,REAL,FALSA
,,,,,,,,,6441356d5337fd4714939734,001,2024-06-07_07h45.59.001,empathy_intonation_perc,2024.1.4,MacIntel,60.0240096,,,,,,,,,,,,,,55,maldad,,,,,,227.617,229.016,1,0,0.862,,0,128,128,54,1,non_cognate,1,REAL,FALSA
,,,,,,,,,6441356d5337fd4714939734,001,2024-06-07_07h45.59.001,empathy_intonation_perc,2024.1.4,MacIntel,60.0240096,,,,,,,,,,,,,,111,vibler,,,,,,229.017,230.167,1,0,0.609,,0,129,129,110,1,pseudoword,0,REAL,FALSA
,,,,,,,,,6441356d5337fd4714939734,001,2024-06-07_07h45.59.001,empathy_intonation_perc,2024.1.4,MacIntel,60.0240096,,,,,,,,,,,,,,135,macayó,,,,,,230.167,231.517,1,0,0.812,,0,130,130,134,1,pseudoword,0,REAL,FALSA
,,,,,,,,,6441356d5337fd4714939734,001,2024-06-07_07h45.59.001,empathy_intonation_perc,2024.1.4,MacIntel,60.0240096,,,,,,,,,,,,,,84,aviso,,,,,,231.517,232.882,1,0,0.832,,0,131,131,83,1,non_cognate,1,REAL,FALSA
,,,,,,,,,6441356d5337fd4714939734,001,2024-06-07_07h45.59.001,empathy_intonation_perc,2024.1.4,MacIntel,60.0240096,,,,,,,,,,,,,,57,regalo,,,,,,232.882,234.299,1,0,0.898,,0,132,132,56,1,non_cognate,1,REAL,FALSA
,,,,,,,,,6441356d5337fd4714939734,001,2024-06-07_07h45.59.001,empathy_intonation_perc,2024.1.4,MacIntel,60.0240096,,,,,,,,,,,,,,127,vien,,,,,,234.3,235.466,1,0,0.63,,0,133,133,126,1,pseudoword,0,REAL,FALSA
,,,,,,,,,6441356d5337fd4714939734,001,2024-06-07_07h45.59.001,empathy_intonation_perc,2024.1.4,MacIntel,60.0240096,,,,,,,,,,,,,,140,vapen,,,,,,235.466,237.083,1,0,1.1,,0,134,134,139,1,pseudoword,0,REAL,FALSA
,,,,,,,,,6441356d5337fd4714939734,001,2024-06-07_07h45.59.001,empathy_intonation_perc,2024.1.4,MacIntel,60.0240096,,,,,,,,,,,,,,100,medón,,,,,,237.084,253.251,1,0,15.629,,0,135,135,99,1,pseudoword,0,REAL,FALSA
,,,,,,,,,6441356d5337fd4714939734,001,2024-06-07_07h45.59.001,empathy_intonation_perc,2024.1.4,MacIntel,60.0240096,,,,,,,,,,,,,,133,tirafa,,,,,,253.253,254.533,1,0,0.744,,0,136,136,132,1,pseudoword,0,REAL,FALSA
,,,,,,,,,6441356d5337fd4714939734,001,2024-06-07_07h45.59.001,empathy_intonation_perc,2024.1.4,MacIntel,60.0240096,,,,,,,,,,,,,,17,altar,,,,,,254.534,256.133,1,0,1.063,,0,137,137,16,1,three_way_cognate,1,REAL,FALSA
,,,,,,,,,6441356d5337fd4714939734,001,2024-06-07_07h45.59.001,empathy_intonation_perc,2024.1.4,MacIntel,60.0240096,,,,,,,,,,,,,,19,trauma,,,,,,256.135,257.167,1,0,0.491,,0,138,138,18,1,three_way_cognate,1,REAL,FALSA
,,,,,,,,,6441356d5337fd4714939734,001,2024-06-07_07h45.59.001,empathy_intonation_perc,2024.1.4,MacIntel,60.0240096,,,,,,,,,,,,,,108,viarle,,,,,,257.167,258.216,1,0,0.512,,0,139,139,107,1,pseudoword,0,REAL,FALSA
,,,,,,,,,6441356d5337fd4714939734,001,2024-06-07_07h45.59.001,empathy_intonation_perc,2024.1.4,MacIntel,60.0240096,,,,,,,,,,,,,,63,hilo,,,,,,258.217,259.316,1,0,0.566,,0,140,140,62,1,non_cognate,1,REAL,FALSA
,,,,,,,,,6441356d5337fd4714939734,001,2024-06-07_07h45.59.001,empathy_intonation_perc,2024.1.4,MacIntel,60.0240096,,,,,,,,,,,,,,12,plan,,,,,,259.317,260.617,0,1,0.761,,0,141,141,11,1,three_way_cognate,1,REAL,FALSA
,,,,,,,,,6441356d5337fd4714939734,001,2024-06-07_07h45.59.001,empathy_intonation_perc,2024.1.4,MacIntel,60.0240096,,,,,,,,,,,,,,93,tapa,,,,,,260.617,261.817,1,0,0.665,,0,142,142,92,1,non_cognate,1,REAL,FALSA
,,,,,,,,,6441356d5337fd4714939734,001,2024-06-07_07h45.59.001,empathy_intonation_perc,2024.1.4,MacIntel,60.0240096,,,,,,,,,,,,,,43,honor,,,,,,261.818,263.066,0,1,0.711,,0,143,143,42,1,two_way_cognate,1,REAL,FALSA
