lextale_instructions.started,lextale_instructions.stopped,lextale_instructions_loop.thisRepN,lextale_instructions_loop.thisTrialN,lextale_instructions_loop.thisN,lextale_instructions_loop.thisIndex,lextale_instructions_loop.ran,instructions_text,continue_text,participant,session,date,expName,psychopyVersion,OS,frameRate,lextale_practice.started,lextale_practice.stopped,key_resp_lextale_practice.keys,key_resp_lextale_practice.corr,key_resp_lextale_practice.rt,key_resp_lextale_practice.duration,lextale_practice_feedback.started,lextale_practice_feedback.stopped,lextale_practice_trials.thisRepN,lextale_practice_trials.thisTrialN,lextale_practice_trials.thisN,lextale_practice_trials.thisIndex,lextale_practice_trials.ran,stim,word,correct_response,prac_button_real,prac_button_false,lextale_check.started,lextale_check.stopped,lextale_trial.started,lextale_trial.stopped,key_resp_lextale_trial.keys,key_resp_lextale_trial.corr,key_resp_lextale_trial.rt,key_resp_lextale_trial.duration,lextail_trials.thisRepN,lextail_trials.thisTrialN,lextail_trials.thisN,lextail_trials.thisIndex,lextail_trials.ran,type,correct_reponse,button_real,button_false
0.0074,103.6778,0,0,0,0,1,"Este es un test de vocabulario en español. 
  
  A continuación vas a ver 90 secuencias de letras que parecen 'españolas'.
  
  Solo algunas de ellas son palabras de verdad.",(presiona la barra espaciadora para continuar),6445b89361755459d55f2ee2,001,2024-06-07_07h39.30.243,empathy_intonation_perc,2024.1.4,Win32,60.97560976,,,,,,,,,,,,,,,,,,,,,,,,,,,,,,,,,,,
103.6795,108.276,0,1,1,1,1,"Por favor, señala las palabras que tú conoces (aquellas que estás convencido que son palabras españolas, incluso aunque no seas capaz de dar el significado preciso).",(presiona la barra espaciadora para continuar),6445b89361755459d55f2ee2,001,2024-06-07_07h39.30.243,empathy_intonation_perc,2024.1.4,Win32,60.97560976,,,,,,,,,,,,,,,,,,,,,,,,,,,,,,,,,,,
108.3035,133.0807,0,2,2,2,1,Pero cuidado: los errores se penalizan. Por eso no tiene sentido tratar de incrementar tu puntuación marcando como reales palabras que nunca has visto.,(presiona la barra espaciadora para continuar),6445b89361755459d55f2ee2,001,2024-06-07_07h39.30.243,empathy_intonation_perc,2024.1.4,Win32,60.97560976,,,,,,,,,,,,,,,,,,,,,,,,,,,,,,,,,,,
133.1106,139.4272,0,3,3,3,1,"Presiona la tecla 1 si piensas que es una palabra real y la tecla 
  0 si piensas que es una palabra falsa. 
  
  Vamos a practicar un poco...",(presiona la barra espaciadora para continuar),6445b89361755459d55f2ee2,001,2024-06-07_07h39.30.243,empathy_intonation_perc,2024.1.4,Win32,60.97560976,,,,,,,,,,,,,,,,,,,,,,,,,,,,,,,,,,,
,,,,,,,,,6445b89361755459d55f2ee2,001,2024-06-07_07h39.30.243,empathy_intonation_perc,2024.1.4,Win32,60.97560976,139.4643,142.859,0,1,2.8617,,142.8594,143.8582,0,0,0,0,1,0,depiste,0,REAL,FALSA,,,,,,,,,,,,,,,,,
,,,,,,,,,6445b89361755459d55f2ee2,001,2024-06-07_07h39.30.243,empathy_intonation_perc,2024.1.4,Win32,60.97560976,143.8592,145.9904,1,1,1.5964,,145.9905,146.9899,0,1,1,1,1,0,sí,1,REAL,FALSA,,,,,,,,,,,,,,,,,
,,,,,,,,,6445b89361755459d55f2ee2,001,2024-06-07_07h39.30.243,empathy_intonation_perc,2024.1.4,Win32,60.97560976,146.9906,149.3886,0,1,1.8599,,149.3887,150.388,0,2,2,2,1,0,coné,0,REAL,FALSA,,,,,,,,,,,,,,,,,
,,,,,,,,,6445b89361755459d55f2ee2,001,2024-06-07_07h39.30.243,empathy_intonation_perc,2024.1.4,Win32,60.97560976,150.4159,152.4042,0,1,1.4677,,152.4043,153.403,0,3,3,3,1,0,calpar,0,REAL,FALSA,,,,,,,,,,,,,,,,,
,,,,,,,,,6445b89361755459d55f2ee2,001,2024-06-07_07h39.30.243,empathy_intonation_perc,2024.1.4,Win32,60.97560976,153.4321,156.5348,0,1,2.5807,,156.5349,157.5343,0,4,4,4,1,0,joten,0,REAL,FALSA,,,,,,,,,,,,,,,,,
,,,,,,,,,6445b89361755459d55f2ee2,001,2024-06-07_07h39.30.243,empathy_intonation_perc,2024.1.4,Win32,60.97560976,157.5628,158.9663,1,1,0.8853,,158.9664,159.9658,0,5,5,5,1,0,sacapuntas,1,REAL,FALSA,,,,,,,,,,,,,,,,,
,,,,,,,,,6445b89361755459d55f2ee2,001,2024-06-07_07h39.30.243,empathy_intonation_perc,2024.1.4,Win32,60.97560976,159.9662,161.4324,0,1,0.95,,161.4325,162.4317,0,6,6,6,1,0,priba,0,REAL,FALSA,,,,,,,,,,,,,,,,,
,,,,,,,,,6445b89361755459d55f2ee2,001,2024-06-07_07h39.30.243,empathy_intonation_perc,2024.1.4,Win32,60.97560976,162.432,164.9143,0,1,1.9464,,164.9143,165.9136,0,7,7,7,1,0,pelasula,0,REAL,FALSA,,,,,,,,,,,,,,,,,
,,,,,,,,,6445b89361755459d55f2ee2,001,2024-06-07_07h39.30.243,empathy_intonation_perc,2024.1.4,Win32,60.97560976,165.9426,167.1127,1,1,0.6523,,167.1127,168.1125,0,8,8,8,1,0,bien,1,REAL,FALSA,,,,,,,,,,,,,,,,,
,,,,,,,,,6445b89361755459d55f2ee2,001,2024-06-07_07h39.30.243,empathy_intonation_perc,2024.1.4,Win32,60.97560976,168.1132,169.262,1,1,0.6161,,169.2621,170.2617,0,9,9,9,1,0,casa,1,REAL,FALSA,,,,,,,,,,,,,,,,,
,,,,,,,,,6445b89361755459d55f2ee2,001,2024-06-07_07h39.30.243,empathy_intonation_perc,2024.1.4,Win32,60.97560976,170.2624,171.9105,1,0,1.1131,,171.9106,172.9104,0,10,10,10,1,0,lejo,0,REAL,FALSA,,,,,,,,,,,,,,,,,
,,,,,,,,,6445b89361755459d55f2ee2,001,2024-06-07_07h39.30.243,empathy_intonation_perc,2024.1.4,Win32,60.97560976,172.911,175.0256,0,1,1.5798,,175.0256,176.0249,0,11,11,11,1,0,pretantas,0,REAL,FALSA,,,,,,,,,,,,,,,,,
,,,,,,,,,6445b89361755459d55f2ee2,001,2024-06-07_07h39.30.243,empathy_intonation_perc,2024.1.4,Win32,60.97560976,,,,,,,,,,,,,,,,,,,176.0258,178.2419,,,,,,,,,,,,,,,
,,,,,,,,,6445b89361755459d55f2ee2,001,2024-06-07_07h39.30.243,empathy_intonation_perc,2024.1.4,Win32,60.97560976,,,,,,,,,,,,,,136,sopleó,,,,,,178.2785,179.8572,0,1,1.0448,,0,0,0,135,1,pseudoword,0,REAL,FALSA
,,,,,,,,,6445b89361755459d55f2ee2,001,2024-06-07_07h39.30.243,empathy_intonation_perc,2024.1.4,Win32,60.97560976,,,,,,,,,,,,,,112,cituló,,,,,,179.858,181.7894,0,1,1.4008,,0,1,1,111,1,pseudoword,0,REAL,FALSA
,,,,,,,,,6445b89361755459d55f2ee2,001,2024-06-07_07h39.30.243,empathy_intonation_perc,2024.1.4,Win32,60.97560976,,,,,,,,,,,,,,52,blando,,,,,,181.7901,183.1386,0,1,0.8131,,0,2,2,51,1,non_cognate,1,REAL,FALSA
,,,,,,,,,6445b89361755459d55f2ee2,001,2024-06-07_07h39.30.243,empathy_intonation_perc,2024.1.4,Win32,60.97560976,,,,,,,,,,,,,,19,trauma,,,,,,183.1393,184.8376,1,0,1.1694,,0,3,3,18,1,three_way_cognate,1,REAL,FALSA
,,,,,,,,,6445b89361755459d55f2ee2,001,2024-06-07_07h39.30.243,empathy_intonation_perc,2024.1.4,Win32,60.97560976,,,,,,,,,,,,,,137,unglés,,,,,,184.8382,186.3202,0,1,0.9523,,0,4,4,136,1,pseudoword,0,REAL,FALSA
,,,,,,,,,6445b89361755459d55f2ee2,001,2024-06-07_07h39.30.243,empathy_intonation_perc,2024.1.4,Win32,60.97560976,,,,,,,,,,,,,,30,fiscal,,,,,,186.3209,189.369,0,1,2.5124,,0,5,5,29,1,two_way_cognate,1,REAL,FALSA
,,,,,,,,,6445b89361755459d55f2ee2,001,2024-06-07_07h39.30.243,empathy_intonation_perc,2024.1.4,Win32,60.97560976,,,,,,,,,,,,,,73,llevar,,,,,,189.3986,190.6346,1,0,0.7105,,0,6,6,72,1,non_cognate,1,REAL,FALSA
,,,,,,,,,6445b89361755459d55f2ee2,001,2024-06-07_07h39.30.243,empathy_intonation_perc,2024.1.4,Win32,60.97560976,,,,,,,,,,,,,,34,actor,,,,,,190.6351,191.8843,1,0,0.7127,,0,7,7,33,1,two_way_cognate,1,REAL,FALSA
,,,,,,,,,6445b89361755459d55f2ee2,001,2024-06-07_07h39.30.243,empathy_intonation_perc,2024.1.4,Win32,60.97560976,,,,,,,,,,,,,,126,anicio,,,,,,191.885,193.2837,0,1,0.8605,,0,8,8,125,1,pseudoword,0,REAL,FALSA
,,,,,,,,,6445b89361755459d55f2ee2,001,2024-06-07_07h39.30.243,empathy_intonation_perc,2024.1.4,Win32,60.97560976,,,,,,,,,,,,,,38,halo,,,,,,193.2843,196.7819,0,1,2.9646,,0,9,9,37,1,two_way_cognate,1,REAL,FALSA
,,,,,,,,,6445b89361755459d55f2ee2,001,2024-06-07_07h39.30.243,empathy_intonation_perc,2024.1.4,Win32,60.97560976,,,,,,,,,,,,,,103,babes,,,,,,196.7826,198.048,0,1,0.7289,,0,10,10,102,1,pseudoword,0,REAL,FALSA
,,,,,,,,,6445b89361755459d55f2ee2,001,2024-06-07_07h39.30.243,empathy_intonation_perc,2024.1.4,Win32,60.97560976,,,,,,,,,,,,,,143,pledú,,,,,,198.0486,199.3806,0,1,0.7982,,0,11,11,142,1,pseudoword,0,REAL,FALSA
,,,,,,,,,6445b89361755459d55f2ee2,001,2024-06-07_07h39.30.243,empathy_intonation_perc,2024.1.4,Win32,60.97560976,,,,,,,,,,,,,,109,hágino,,,,,,199.3813,200.6801,0,1,0.7648,,0,12,12,108,1,pseudoword,0,REAL,FALSA
,,,,,,,,,6445b89361755459d55f2ee2,001,2024-06-07_07h39.30.243,empathy_intonation_perc,2024.1.4,Win32,60.97560976,,,,,,,,,,,,,,79,suelo,,,,,,200.6807,201.996,1,0,0.7802,,0,13,13,78,1,non_cognate,1,REAL,FALSA
,,,,,,,,,6445b89361755459d55f2ee2,001,2024-06-07_07h39.30.243,empathy_intonation_perc,2024.1.4,Win32,60.97560976,,,,,,,,,,,,,,144,piria,,,,,,201.9968,203.4953,0,1,0.9608,,0,14,14,143,1,pseudoword,0,REAL,FALSA
,,,,,,,,,6445b89361755459d55f2ee2,001,2024-06-07_07h39.30.243,empathy_intonation_perc,2024.1.4,Win32,60.97560976,,,,,,,,,,,,,,7,kilo,,,,,,203.4961,204.745,0,1,0.7221,,0,15,15,6,1,three_way_cognate,1,REAL,FALSA
,,,,,,,,,6445b89361755459d55f2ee2,001,2024-06-07_07h39.30.243,empathy_intonation_perc,2024.1.4,Win32,60.97560976,,,,,,,,,,,,,,50,sierra,,,,,,204.7458,206.2272,1,0,0.9462,,0,16,16,49,1,non_cognate,1,REAL,FALSA
,,,,,,,,,6445b89361755459d55f2ee2,001,2024-06-07_07h39.30.243,empathy_intonation_perc,2024.1.4,Win32,60.97560976,,,,,,,,,,,,,,128,pelí,,,,,,206.2279,208.1764,0,1,1.4121,,0,17,17,127,1,pseudoword,0,REAL,FALSA
,,,,,,,,,6445b89361755459d55f2ee2,001,2024-06-07_07h39.30.243,empathy_intonation_perc,2024.1.4,Win32,60.97560976,,,,,,,,,,,,,,39,casual,,,,,,208.177,209.475,1,0,0.7616,,0,18,18,38,1,two_way_cognate,1,REAL,FALSA
,,,,,,,,,6445b89361755459d55f2ee2,001,2024-06-07_07h39.30.243,empathy_intonation_perc,2024.1.4,Win32,60.97560976,,,,,,,,,,,,,,55,maldad,,,,,,209.4754,211.2915,1,0,1.2804,,0,19,19,54,1,non_cognate,1,REAL,FALSA
,,,,,,,,,6445b89361755459d55f2ee2,001,2024-06-07_07h39.30.243,empathy_intonation_perc,2024.1.4,Win32,60.97560976,,,,,,,,,,,,,,12,plan,,,,,,211.2922,212.6407,1,0,0.8222,,0,20,20,11,1,three_way_cognate,1,REAL,FALSA
,,,,,,,,,6445b89361755459d55f2ee2,001,2024-06-07_07h39.30.243,empathy_intonation_perc,2024.1.4,Win32,60.97560976,,,,,,,,,,,,,,120,hierno,,,,,,212.6414,214.2065,0,1,1.0325,,0,21,21,119,1,pseudoword,0,REAL,FALSA
,,,,,,,,,6445b89361755459d55f2ee2,001,2024-06-07_07h39.30.243,empathy_intonation_perc,2024.1.4,Win32,60.97560976,,,,,,,,,,,,,,95,listo,,,,,,214.2072,215.6727,1,0,0.93,,0,22,22,94,1,non_cognate,1,REAL,FALSA
,,,,,,,,,6445b89361755459d55f2ee2,001,2024-06-07_07h39.30.243,empathy_intonation_perc,2024.1.4,Win32,60.97560976,,,,,,,,,,,,,,47,color,,,,,,215.6734,217.0722,1,0,0.8713,,0,23,23,46,1,two_way_cognate,1,REAL,FALSA
,,,,,,,,,6445b89361755459d55f2ee2,001,2024-06-07_07h39.30.243,empathy_intonation_perc,2024.1.4,Win32,60.97560976,,,,,,,,,,,,,,77,suave,,,,,,217.0733,218.3712,1,0,0.7693,,0,24,24,76,1,non_cognate,1,REAL,FALSA
,,,,,,,,,6445b89361755459d55f2ee2,001,2024-06-07_07h39.30.243,empathy_intonation_perc,2024.1.4,Win32,60.97560976,,,,,,,,,,,,,,3,flora,,,,,,218.3718,220.2868,1,0,1.3834,,0,25,25,2,1,three_way_cognate,1,REAL,FALSA
,,,,,,,,,6445b89361755459d55f2ee2,001,2024-06-07_07h39.30.243,empathy_intonation_perc,2024.1.4,Win32,60.97560976,,,,,,,,,,,,,,114,potos,,,,,,220.2875,221.7028,0,1,0.8784,,0,26,26,113,1,pseudoword,0,REAL,FALSA
,,,,,,,,,6445b89361755459d55f2ee2,001,2024-06-07_07h39.30.243,empathy_intonation_perc,2024.1.4,Win32,60.97560976,,,,,,,,,,,,,,78,rendir,,,,,,221.7034,223.335,1,0,1.0998,,0,27,27,77,1,non_cognate,1,REAL,FALSA
,,,,,,,,,6445b89361755459d55f2ee2,001,2024-06-07_07h39.30.243,empathy_intonation_perc,2024.1.4,Win32,60.97560976,,,,,,,,,,,,,,135,macayó,,,,,,223.3354,226.6669,1,0,2.7953,,0,28,28,134,1,pseudoword,0,REAL,FALSA
,,,,,,,,,6445b89361755459d55f2ee2,001,2024-06-07_07h39.30.243,empathy_intonation_perc,2024.1.4,Win32,60.97560976,,,,,,,,,,,,,,14,test,,,,,,226.6949,229.0496,0,1,1.8375,,0,29,29,13,1,three_way_cognate,1,REAL,FALSA
,,,,,,,,,6445b89361755459d55f2ee2,001,2024-06-07_07h39.30.243,empathy_intonation_perc,2024.1.4,Win32,60.97560976,,,,,,,,,,,,,,115,civas,,,,,,229.0501,230.6481,0,1,1.0702,,0,30,30,114,1,pseudoword,0,REAL,FALSA
,,,,,,,,,6445b89361755459d55f2ee2,001,2024-06-07_07h39.30.243,empathy_intonation_perc,2024.1.4,Win32,60.97560976,,,,,,,,,,,,,,48,pelvis,,,,,,230.6488,232.7305,0,1,1.5436,,0,31,31,47,1,two_way_cognate,1,REAL,FALSA
,,,,,,,,,6445b89361755459d55f2ee2,001,2024-06-07_07h39.30.243,empathy_intonation_perc,2024.1.4,Win32,60.97560976,,,,,,,,,,,,,,40,pelvis,,,,,,232.7312,233.98,0,1,0.7192,,0,32,32,39,1,two_way_cognate,1,REAL,FALSA
,,,,,,,,,6445b89361755459d55f2ee2,001,2024-06-07_07h39.30.243,empathy_intonation_perc,2024.1.4,Win32,60.97560976,,,,,,,,,,,,,,82,brillo,,,,,,233.9807,235.9793,1,0,1.4635,,0,33,33,81,1,non_cognate,1,REAL,FALSA
,,,,,,,,,6445b89361755459d55f2ee2,001,2024-06-07_07h39.30.243,empathy_intonation_perc,2024.1.4,Win32,60.97560976,,,,,,,,,,,,,,131,fuar,,,,,,235.98,237.2118,0,1,0.7069,,0,34,34,130,1,pseudoword,0,REAL,FALSA
,,,,,,,,,6445b89361755459d55f2ee2,001,2024-06-07_07h39.30.243,empathy_intonation_perc,2024.1.4,Win32,60.97560976,,,,,,,,,,,,,,130,dubo,,,,,,237.2125,238.3779,0,1,0.6277,,0,35,35,129,1,pseudoword,0,REAL,FALSA
,,,,,,,,,6445b89361755459d55f2ee2,001,2024-06-07_07h39.30.243,empathy_intonation_perc,2024.1.4,Win32,60.97560976,,,,,,,,,,,,,,123,escare,,,,,,238.3786,239.9272,0,1,1.0109,,0,36,36,122,1,pseudoword,0,REAL,FALSA
,,,,,,,,,6445b89361755459d55f2ee2,001,2024-06-07_07h39.30.243,empathy_intonation_perc,2024.1.4,Win32,60.97560976,,,,,,,,,,,,,,57,regalo,,,,,,239.9279,241.2098,1,0,0.7521,,0,37,37,56,1,non_cognate,1,REAL,FALSA
,,,,,,,,,6445b89361755459d55f2ee2,001,2024-06-07_07h39.30.243,empathy_intonation_perc,2024.1.4,Win32,60.97560976,,,,,,,,,,,,,,65,guerra,,,,,,241.2104,242.4425,1,0,0.6942,,0,38,38,64,1,non_cognate,1,REAL,FALSA
,,,,,,,,,6445b89361755459d55f2ee2,001,2024-06-07_07h39.30.243,empathy_intonation_perc,2024.1.4,Win32,60.97560976,,,,,,,,,,,,,,42,rumor,,,,,,242.4431,243.6581,1,0,0.6845,,0,39,39,41,1,two_way_cognate,1,REAL,FALSA
,,,,,,,,,6445b89361755459d55f2ee2,001,2024-06-07_07h39.30.243,empathy_intonation_perc,2024.1.4,Win32,60.97560976,,,,,,,,,,,,,,81,sacar,,,,,,243.6588,244.9915,1,0,0.7947,,0,40,40,80,1,non_cognate,1,REAL,FALSA
,,,,,,,,,6445b89361755459d55f2ee2,001,2024-06-07_07h39.30.243,empathy_intonation_perc,2024.1.4,Win32,60.97560976,,,,,,,,,,,,,,100,medón,,,,,,244.9922,246.2901,0,1,0.7646,,0,41,41,99,1,pseudoword,0,REAL,FALSA
,,,,,,,,,6445b89361755459d55f2ee2,001,2024-06-07_07h39.30.243,empathy_intonation_perc,2024.1.4,Win32,60.97560976,,,,,,,,,,,,,,61,aduana,,,,,,246.2904,247.6398,1,0,0.8136,,0,42,42,60,1,non_cognate,1,REAL,FALSA
,,,,,,,,,6445b89361755459d55f2ee2,001,2024-06-07_07h39.30.243,empathy_intonation_perc,2024.1.4,Win32,60.97560976,,,,,,,,,,,,,,71,torta,,,,,,247.6405,248.9228,1,0,0.7444,,0,43,43,70,1,non_cognate,1,REAL,FALSA
,,,,,,,,,6445b89361755459d55f2ee2,001,2024-06-07_07h39.30.243,empathy_intonation_perc,2024.1.4,Win32,60.97560976,,,,,,,,,,,,,,53,punta,,,,,,248.9235,252.3379,1,0,2.8784,,0,44,44,52,1,non_cognate,1,REAL,FALSA
,,,,,,,,,6445b89361755459d55f2ee2,001,2024-06-07_07h39.30.243,empathy_intonation_perc,2024.1.4,Win32,60.97560976,,,,,,,,,,,,,,25,vigor,,,,,,252.3681,253.7198,0,1,0.8354,,0,45,45,24,1,two_way_cognate,1,REAL,FALSA
,,,,,,,,,6445b89361755459d55f2ee2,001,2024-06-07_07h39.30.243,empathy_intonation_perc,2024.1.4,Win32,60.97560976,,,,,,,,,,,,,,15,chat,,,,,,253.7205,255.1033,0,1,0.8487,,0,46,46,14,1,three_way_cognate,1,REAL,FALSA
,,,,,,,,,6445b89361755459d55f2ee2,001,2024-06-07_07h39.30.243,empathy_intonation_perc,2024.1.4,Win32,60.97560976,,,,,,,,,,,,,,99,mieris,,,,,,255.1039,256.4023,0,1,0.7625,,0,47,47,98,1,pseudoword,0,REAL,FALSA
,,,,,,,,,6445b89361755459d55f2ee2,001,2024-06-07_07h39.30.243,empathy_intonation_perc,2024.1.4,Win32,60.97560976,,,,,,,,,,,,,,86,cuenco,,,,,,256.4031,258.0344,1,0,1.0981,,0,48,48,85,1,non_cognate,1,REAL,FALSA
,,,,,,,,,6445b89361755459d55f2ee2,001,2024-06-07_07h39.30.243,empathy_intonation_perc,2024.1.4,Win32,60.97560976,,,,,,,,,,,,,,58,colcha,,,,,,258.0348,259.8669,0,1,1.3021,,0,49,49,57,1,non_cognate,1,REAL,FALSA
,,,,,,,,,6445b89361755459d55f2ee2,001,2024-06-07_07h39.30.243,empathy_intonation_perc,2024.1.4,Win32,60.97560976,,,,,,,,,,,,,,49,teñir,,,,,,259.8674,262.0164,1,0,1.6153,,0,50,50,48,1,non_cognate,1,REAL,FALSA
,,,,,,,,,6445b89361755459d55f2ee2,001,2024-06-07_07h39.30.243,empathy_intonation_perc,2024.1.4,Win32,60.97560976,,,,,,,,,,,,,,98,erede,,,,,,262.017,263.3491,0,1,0.7972,,0,51,51,97,1,pseudoword,0,REAL,FALSA
,,,,,,,,,6445b89361755459d55f2ee2,001,2024-06-07_07h39.30.243,empathy_intonation_perc,2024.1.4,Win32,60.97560976,,,,,,,,,,,,,,54,tapón,,,,,,263.3498,265.2981,0,1,1.4132,,0,52,52,53,1,non_cognate,1,REAL,FALSA
,,,,,,,,,6445b89361755459d55f2ee2,001,2024-06-07_07h39.30.243,empathy_intonation_perc,2024.1.4,Win32,60.97560976,,,,,,,,,,,,,,111,vibler,,,,,,265.2987,266.5141,0,1,0.6831,,0,53,53,110,1,pseudoword,0,REAL,FALSA
,,,,,,,,,6445b89361755459d55f2ee2,001,2024-06-07_07h39.30.243,empathy_intonation_perc,2024.1.4,Win32,60.97560976,,,,,,,,,,,,,,64,rizado,,,,,,266.5151,267.9634,1,0,0.915,,0,54,54,63,1,non_cognate,1,REAL,FALSA
,,,,,,,,,6445b89361755459d55f2ee2,001,2024-06-07_07h39.30.243,empathy_intonation_perc,2024.1.4,Win32,60.97560976,,,,,,,,,,,,,,59,feo,,,,,,267.9642,269.3129,1,0,0.8163,,0,55,55,58,1,non_cognate,1,REAL,FALSA
,,,,,,,,,6445b89361755459d55f2ee2,001,2024-06-07_07h39.30.243,empathy_intonation_perc,2024.1.4,Win32,60.97560976,,,,,,,,,,,,,,6,albino,,,,,,269.3134,273.2773,1,0,3.4343,,0,56,56,5,1,three_way_cognate,1,REAL,FALSA
,,,,,,,,,6445b89361755459d55f2ee2,001,2024-06-07_07h39.30.243,empathy_intonation_perc,2024.1.4,Win32,60.97560976,,,,,,,,,,,,,,69,tiza,,,,,,273.3067,274.5599,1,0,0.7326,,0,57,57,68,1,non_cognate,1,REAL,FALSA
,,,,,,,,,6445b89361755459d55f2ee2,001,2024-06-07_07h39.30.243,empathy_intonation_perc,2024.1.4,Win32,60.97560976,,,,,,,,,,,,,,1,tumor,,,,,,274.5606,276.4422,0,1,1.3447,,0,58,58,0,1,three_way_cognate,1,REAL,FALSA
,,,,,,,,,6445b89361755459d55f2ee2,001,2024-06-07_07h39.30.243,empathy_intonation_perc,2024.1.4,Win32,60.97560976,,,,,,,,,,,,,,62,pegar,,,,,,276.4426,277.7918,1,0,0.8178,,0,59,59,61,1,non_cognate,1,REAL,FALSA
,,,,,,,,,6445b89361755459d55f2ee2,001,2024-06-07_07h39.30.243,empathy_intonation_perc,2024.1.4,Win32,60.97560976,,,,,,,,,,,,,,63,hilo,,,,,,277.7925,279.1411,1,0,0.813,,0,60,60,62,1,non_cognate,1,REAL,FALSA
,,,,,,,,,6445b89361755459d55f2ee2,001,2024-06-07_07h39.30.243,empathy_intonation_perc,2024.1.4,Win32,60.97560976,,,,,,,,,,,,,,75,patada,,,,,,279.1417,280.9402,1,0,1.2654,,0,61,61,74,1,non_cognate,1,REAL,FALSA
,,,,,,,,,6445b89361755459d55f2ee2,001,2024-06-07_07h39.30.243,empathy_intonation_perc,2024.1.4,Win32,60.97560976,,,,,,,,,,,,,,68,puñal,,,,,,280.9408,282.2888,1,0,0.8173,,0,62,62,67,1,non_cognate,1,REAL,FALSA
,,,,,,,,,6445b89361755459d55f2ee2,001,2024-06-07_07h39.30.243,empathy_intonation_perc,2024.1.4,Win32,60.97560976,,,,,,,,,,,,,,119,esís,,,,,,282.2891,283.5389,0,1,0.7206,,0,63,63,118,1,pseudoword,0,REAL,FALSA
,,,,,,,,,6445b89361755459d55f2ee2,001,2024-06-07_07h39.30.243,empathy_intonation_perc,2024.1.4,Win32,60.97560976,,,,,,,,,,,,,,116,crene,,,,,,283.5399,284.9215,0,1,0.8488,,0,64,64,115,1,pseudoword,0,REAL,FALSA
,,,,,,,,,6445b89361755459d55f2ee2,001,2024-06-07_07h39.30.243,empathy_intonation_perc,2024.1.4,Win32,60.97560976,,,,,,,,,,,,,,2,disco,,,,,,284.9222,286.6036,1,0,1.1447,,0,65,65,1,1,three_way_cognate,1,REAL,FALSA
,,,,,,,,,6445b89361755459d55f2ee2,001,2024-06-07_07h39.30.243,empathy_intonation_perc,2024.1.4,Win32,60.97560976,,,,,,,,,,,,,,74,ala,,,,,,286.6041,287.8538,0,1,0.7143,,0,66,66,73,1,non_cognate,1,REAL,FALSA
,,,,,,,,,6445b89361755459d55f2ee2,001,2024-06-07_07h39.30.243,empathy_intonation_perc,2024.1.4,Win32,60.97560976,,,,,,,,,,,,,,8,portal,,,,,,287.8545,291.4683,1,0,3.0809,,0,67,67,7,1,three_way_cognate,1,REAL,FALSA
,,,,,,,,,6445b89361755459d55f2ee2,001,2024-06-07_07h39.30.243,empathy_intonation_perc,2024.1.4,Win32,60.97560976,,,,,,,,,,,,,,29,clamor,,,,,,291.4691,292.7176,0,1,0.7127,,0,68,68,28,1,two_way_cognate,1,REAL,FALSA
,,,,,,,,,6445b89361755459d55f2ee2,001,2024-06-07_07h39.30.243,empathy_intonation_perc,2024.1.4,Win32,60.97560976,,,,,,,,,,,,,,142,viseña,,,,,,292.7182,294.3667,0,1,1.1145,,0,69,69,141,1,pseudoword,0,REAL,FALSA
,,,,,,,,,6445b89361755459d55f2ee2,001,2024-06-07_07h39.30.243,empathy_intonation_perc,2024.1.4,Win32,60.97560976,,,,,,,,,,,,,,96,caro,,,,,,294.3672,295.5825,1,0,0.686,,0,70,70,95,1,non_cognate,1,REAL,FALSA
,,,,,,,,,6445b89361755459d55f2ee2,001,2024-06-07_07h39.30.243,empathy_intonation_perc,2024.1.4,Win32,60.97560976,,,,,,,,,,,,,,13,aura,,,,,,295.5829,297.2151,0,1,1.1101,,0,71,71,12,1,three_way_cognate,1,REAL,FALSA
,,,,,,,,,6445b89361755459d55f2ee2,001,2024-06-07_07h39.30.243,empathy_intonation_perc,2024.1.4,Win32,60.97560976,,,,,,,,,,,,,,90,venado,,,,,,297.2154,298.8476,1,0,1.1019,,0,72,72,89,1,non_cognate,1,REAL,FALSA
,,,,,,,,,6445b89361755459d55f2ee2,001,2024-06-07_07h39.30.243,empathy_intonation_perc,2024.1.4,Win32,60.97560976,,,,,,,,,,,,,,46,mortal,,,,,,298.8481,300.5306,0,1,1.1458,,0,73,73,45,1,two_way_cognate,1,REAL,FALSA
,,,,,,,,,6445b89361755459d55f2ee2,001,2024-06-07_07h39.30.243,empathy_intonation_perc,2024.1.4,Win32,60.97560976,,,,,,,,,,,,,,9,drama,,,,,,300.5312,301.7796,1,0,0.7138,,0,74,74,8,1,three_way_cognate,1,REAL,FALSA
,,,,,,,,,6445b89361755459d55f2ee2,001,2024-06-07_07h39.30.243,empathy_intonation_perc,2024.1.4,Win32,60.97560976,,,,,,,,,,,,,,83,hálito,,,,,,301.7801,302.9793,0,1,0.6674,,0,75,75,82,1,non_cognate,1,REAL,FALSA
,,,,,,,,,6445b89361755459d55f2ee2,001,2024-06-07_07h39.30.243,empathy_intonation_perc,2024.1.4,Win32,60.97560976,,,,,,,,,,,,,,28,ardor,,,,,,302.98,304.5784,1,0,1.0636,,0,76,76,27,1,two_way_cognate,1,REAL,FALSA
,,,,,,,,,6445b89361755459d55f2ee2,001,2024-06-07_07h39.30.243,empathy_intonation_perc,2024.1.4,Win32,60.97560976,,,,,,,,,,,,,,31,civil,,,,,,304.5792,308.9264,1,0,3.8124,,0,77,77,30,1,two_way_cognate,1,REAL,FALSA
,,,,,,,,,6445b89361755459d55f2ee2,001,2024-06-07_07h39.30.243,empathy_intonation_perc,2024.1.4,Win32,60.97560976,,,,,,,,,,,,,,72,rostro,,,,,,308.9563,310.3426,1,0,0.8604,,0,78,78,71,1,non_cognate,1,REAL,FALSA
,,,,,,,,,6445b89361755459d55f2ee2,001,2024-06-07_07h39.30.243,empathy_intonation_perc,2024.1.4,Win32,60.97560976,,,,,,,,,,,,,,89,muñeca,,,,,,310.3432,311.6582,1,0,0.7859,,0,79,79,88,1,non_cognate,1,REAL,FALSA
,,,,,,,,,6445b89361755459d55f2ee2,001,2024-06-07_07h39.30.243,empathy_intonation_perc,2024.1.4,Win32,60.97560976,,,,,,,,,,,,,,21,mango,,,,,,311.6588,312.9579,1,0,0.7693,,0,80,80,20,1,three_way_cognate,1,REAL,FALSA
,,,,,,,,,6445b89361755459d55f2ee2,001,2024-06-07_07h39.30.243,empathy_intonation_perc,2024.1.4,Win32,60.97560976,,,,,,,,,,,,,,106,baurá,,,,,,312.9585,314.1741,0,1,0.6805,,0,81,81,105,1,pseudoword,0,REAL,FALSA
,,,,,,,,,6445b89361755459d55f2ee2,001,2024-06-07_07h39.30.243,empathy_intonation_perc,2024.1.4,Win32,60.97560976,,,,,,,,,,,,,,23,porno,,,,,,314.1748,315.5568,0,1,0.8479,,0,82,82,22,1,three_way_cognate,1,REAL,FALSA
,,,,,,,,,6445b89361755459d55f2ee2,001,2024-06-07_07h39.30.243,empathy_intonation_perc,2024.1.4,Win32,60.97560976,,,,,,,,,,,,,,22,plural,,,,,,315.5574,317.5721,1,0,1.4811,,0,83,83,21,1,three_way_cognate,1,REAL,FALSA
,,,,,,,,,6445b89361755459d55f2ee2,001,2024-06-07_07h39.30.243,empathy_intonation_perc,2024.1.4,Win32,60.97560976,,,,,,,,,,,,,,80,cuenco,,,,,,317.5727,319.4046,1,0,1.3017,,0,84,84,79,1,non_cognate,1,REAL,FALSA
,,,,,,,,,6445b89361755459d55f2ee2,001,2024-06-07_07h39.30.243,empathy_intonation_perc,2024.1.4,Win32,60.97560976,,,,,,,,,,,,,,125,ceme,,,,,,319.4053,320.6708,0,1,0.7357,,0,85,85,124,1,pseudoword,0,REAL,FALSA
,,,,,,,,,6445b89361755459d55f2ee2,001,2024-06-07_07h39.30.243,empathy_intonation_perc,2024.1.4,Win32,60.97560976,,,,,,,,,,,,,,127,vien,,,,,,320.6715,322.0865,0,1,0.8786,,0,86,86,126,1,pseudoword,0,REAL,FALSA
,,,,,,,,,6445b89361755459d55f2ee2,001,2024-06-07_07h39.30.243,empathy_intonation_perc,2024.1.4,Win32,60.97560976,,,,,,,,,,,,,,113,difrás,,,,,,322.0876,325.4689,0,1,2.8543,,0,87,87,112,1,pseudoword,0,REAL,FALSA
,,,,,,,,,6445b89361755459d55f2ee2,001,2024-06-07_07h39.30.243,empathy_intonation_perc,2024.1.4,Win32,60.97560976,,,,,,,,,,,,,,44,editor,,,,,,325.4696,327.0836,0,1,1.0765,,0,88,88,43,1,two_way_cognate,1,REAL,FALSA
,,,,,,,,,6445b89361755459d55f2ee2,001,2024-06-07_07h39.30.243,empathy_intonation_perc,2024.1.4,Win32,60.97560976,,,,,,,,,,,,,,56,pico,,,,,,327.0839,328.4168,1,0,0.7957,,0,89,89,55,1,non_cognate,1,REAL,FALSA
,,,,,,,,,6445b89361755459d55f2ee2,001,2024-06-07_07h39.30.243,empathy_intonation_perc,2024.1.4,Win32,60.97560976,,,,,,,,,,,,,,18,mafia,,,,,,328.4173,329.6992,0,1,0.7571,,0,90,90,17,1,three_way_cognate,1,REAL,FALSA
,,,,,,,,,6445b89361755459d55f2ee2,001,2024-06-07_07h39.30.243,empathy_intonation_perc,2024.1.4,Win32,60.97560976,,,,,,,,,,,,,,132,nocó,,,,,,329.6996,331.1155,0,1,0.8817,,0,91,91,131,1,pseudoword,0,REAL,FALSA
,,,,,,,,,6445b89361755459d55f2ee2,001,2024-06-07_07h39.30.243,empathy_intonation_perc,2024.1.4,Win32,60.97560976,,,,,,,,,,,,,,92,flecha,,,,,,331.1161,332.4154,1,0,0.7642,,0,92,92,91,1,non_cognate,1,REAL,FALSA
,,,,,,,,,6445b89361755459d55f2ee2,001,2024-06-07_07h39.30.243,empathy_intonation_perc,2024.1.4,Win32,60.97560976,,,,,,,,,,,,,,37,torso,,,,,,332.416,334.114,0,1,1.1701,,0,93,93,36,1,two_way_cognate,1,REAL,FALSA
,,,,,,,,,6445b89361755459d55f2ee2,001,2024-06-07_07h39.30.243,empathy_intonation_perc,2024.1.4,Win32,60.97560976,,,,,,,,,,,,,,108,viarle,,,,,,334.1146,335.4302,0,1,0.7819,,0,94,94,107,1,pseudoword,0,REAL,FALSA
,,,,,,,,,6445b89361755459d55f2ee2,001,2024-06-07_07h39.30.243,empathy_intonation_perc,2024.1.4,Win32,60.97560976,,,,,,,,,,,,,,67,llamar,,,,,,335.4309,336.7131,1,0,0.7473,,0,95,95,66,1,non_cognate,1,REAL,FALSA
,,,,,,,,,6445b89361755459d55f2ee2,001,2024-06-07_07h39.30.243,empathy_intonation_perc,2024.1.4,Win32,60.97560976,,,,,,,,,,,,,,66,aleta,,,,,,336.7137,338.9778,0,1,1.7378,,0,96,96,65,1,non_cognate,1,REAL,FALSA
,,,,,,,,,6445b89361755459d55f2ee2,001,2024-06-07_07h39.30.243,empathy_intonation_perc,2024.1.4,Win32,60.97560976,,,,,,,,,,,,,,117,apunan,,,,,,338.9782,340.2444,0,1,0.7295,,0,97,97,116,1,pseudoword,0,REAL,FALSA
,,,,,,,,,6445b89361755459d55f2ee2,001,2024-06-07_07h39.30.243,empathy_intonation_perc,2024.1.4,Win32,60.97560976,,,,,,,,,,,,,,138,glural,,,,,,340.2451,342.6762,0,1,1.9036,,0,98,98,137,1,pseudoword,0,REAL,FALSA
,,,,,,,,,6445b89361755459d55f2ee2,001,2024-06-07_07h39.30.243,empathy_intonation_perc,2024.1.4,Win32,60.97560976,,,,,,,,,,,,,,51,listo,,,,,,342.6769,344.226,1,0,1.0165,,0,99,99,50,1,non_cognate,1,REAL,FALSA
,,,,,,,,,6445b89361755459d55f2ee2,001,2024-06-07_07h39.30.243,empathy_intonation_perc,2024.1.4,Win32,60.97560976,,,,,,,,,,,,,,41,pasta,,,,,,344.2266,347.1744,1,0,2.4122,,0,100,100,40,1,two_way_cognate,1,REAL,FALSA
,,,,,,,,,6445b89361755459d55f2ee2,001,2024-06-07_07h39.30.243,empathy_intonation_perc,2024.1.4,Win32,60.97560976,,,,,,,,,,,,,,129,suchas,,,,,,347.1752,348.4571,0,1,0.7494,,0,101,101,128,1,pseudoword,0,REAL,FALSA
,,,,,,,,,6445b89361755459d55f2ee2,001,2024-06-07_07h39.30.243,empathy_intonation_perc,2024.1.4,Win32,60.97560976,,,,,,,,,,,,,,76,chocar,,,,,,348.4577,349.723,1,0,0.7286,,0,102,102,75,1,non_cognate,1,REAL,FALSA
,,,,,,,,,6445b89361755459d55f2ee2,001,2024-06-07_07h39.30.243,empathy_intonation_perc,2024.1.4,Win32,60.97560976,,,,,,,,,,,,,,91,equipo,,,,,,349.7238,351.1559,1,0,0.8961,,0,103,103,90,1,non_cognate,1,REAL,FALSA
,,,,,,,,,6445b89361755459d55f2ee2,001,2024-06-07_07h39.30.243,empathy_intonation_perc,2024.1.4,Win32,60.97560976,,,,,,,,,,,,,,16,clan,,,,,,351.1565,352.4384,0,1,0.7485,,0,104,104,15,1,three_way_cognate,1,REAL,FALSA
,,,,,,,,,6445b89361755459d55f2ee2,001,2024-06-07_07h39.30.243,empathy_intonation_perc,2024.1.4,Win32,60.97560976,,,,,,,,,,,,,,94,forro,,,,,,352.4391,357.0526,1,0,4.083,,0,105,105,93,1,non_cognate,1,REAL,FALSA
,,,,,,,,,6445b89361755459d55f2ee2,001,2024-06-07_07h39.30.243,empathy_intonation_perc,2024.1.4,Win32,60.97560976,,,,,,,,,,,,,,32,animal,,,,,,357.0787,358.3522,1,0,0.7493,,0,106,106,31,1,two_way_cognate,1,REAL,FALSA
,,,,,,,,,6445b89361755459d55f2ee2,001,2024-06-07_07h39.30.243,empathy_intonation_perc,2024.1.4,Win32,60.97560976,,,,,,,,,,,,,,104,vitra,,,,,,358.3529,359.5348,0,1,0.6516,,0,107,107,103,1,pseudoword,0,REAL,FALSA
,,,,,,,,,6445b89361755459d55f2ee2,001,2024-06-07_07h39.30.243,empathy_intonation_perc,2024.1.4,Win32,60.97560976,,,,,,,,,,,,,,141,sumer,,,,,,359.5356,360.9342,0,1,0.8632,,0,108,108,140,1,pseudoword,0,REAL,FALSA
,,,,,,,,,6445b89361755459d55f2ee2,001,2024-06-07_07h39.30.243,empathy_intonation_perc,2024.1.4,Win32,60.97560976,,,,,,,,,,,,,,101,fertes,,,,,,360.9348,362.1171,0,1,0.6515,,0,109,109,100,1,pseudoword,0,REAL,FALSA
,,,,,,,,,6445b89361755459d55f2ee2,001,2024-06-07_07h39.30.243,empathy_intonation_perc,2024.1.4,Win32,60.97560976,,,,,,,,,,,,,,4,extra,,,,,,362.1177,364.0993,1,0,1.4489,,0,110,110,3,1,three_way_cognate,1,REAL,FALSA
,,,,,,,,,6445b89361755459d55f2ee2,001,2024-06-07_07h39.30.243,empathy_intonation_perc,2024.1.4,Win32,60.97560976,,,,,,,,,,,,,,20,hotel,,,,,,364.1,365.4488,1,0,0.814,,0,111,111,19,1,three_way_cognate,1,REAL,FALSA
,,,,,,,,,6445b89361755459d55f2ee2,001,2024-06-07_07h39.30.243,empathy_intonation_perc,2024.1.4,Win32,60.97560976,,,,,,,,,,,,,,139,furbos,,,,,,365.4495,366.5815,0,1,0.5972,,0,112,112,138,1,pseudoword,0,REAL,FALSA
,,,,,,,,,6445b89361755459d55f2ee2,001,2024-06-07_07h39.30.243,empathy_intonation_perc,2024.1.4,Win32,60.97560976,,,,,,,,,,,,,,107,plamos,,,,,,366.5822,367.7809,0,1,0.6639,,0,113,113,106,1,pseudoword,0,REAL,FALSA
,,,,,,,,,6445b89361755459d55f2ee2,001,2024-06-07_07h39.30.243,empathy_intonation_perc,2024.1.4,Win32,60.97560976,,,,,,,,,,,,,,118,bará,,,,,,367.7815,368.9633,0,1,0.6471,,0,114,114,117,1,pseudoword,0,REAL,FALSA
,,,,,,,,,6445b89361755459d55f2ee2,001,2024-06-07_07h39.30.243,empathy_intonation_perc,2024.1.4,Win32,60.97560976,,,,,,,,,,,,,,122,gravés,,,,,,368.964,370.6454,0,1,1.1536,,0,115,115,121,1,pseudoword,0,REAL,FALSA
,,,,,,,,,6445b89361755459d55f2ee2,001,2024-06-07_07h39.30.243,empathy_intonation_perc,2024.1.4,Win32,60.97560976,,,,,,,,,,,,,,121,rombar,,,,,,370.6456,372.0612,0,1,0.8891,,0,116,116,120,1,pseudoword,0,REAL,FALSA
,,,,,,,,,6445b89361755459d55f2ee2,001,2024-06-07_07h39.30.243,empathy_intonation_perc,2024.1.4,Win32,60.97560976,,,,,,,,,,,,,,85,enorme,,,,,,372.0615,373.3782,1,0,0.8018,,0,117,117,84,1,non_cognate,1,REAL,FALSA
,,,,,,,,,6445b89361755459d55f2ee2,001,2024-06-07_07h39.30.243,empathy_intonation_perc,2024.1.4,Win32,60.97560976,,,,,,,,,,,,,,45,total,,,,,,373.3788,374.5602,1,0,0.644,,0,118,118,44,1,two_way_cognate,1,REAL,FALSA
,,,,,,,,,6445b89361755459d55f2ee2,001,2024-06-07_07h39.30.243,empathy_intonation_perc,2024.1.4,Win32,60.97560976,,,,,,,,,,,,,,27,piano,,,,,,374.5605,375.8438,1,0,0.7511,,0,119,119,26,1,two_way_cognate,1,REAL,FALSA
,,,,,,,,,6445b89361755459d55f2ee2,001,2024-06-07_07h39.30.243,empathy_intonation_perc,2024.1.4,Win32,60.97560976,,,,,,,,,,,,,,17,altar,,,,,,375.8444,377.1757,1,0,0.8038,,0,120,120,16,1,three_way_cognate,1,REAL,FALSA
,,,,,,,,,6445b89361755459d55f2ee2,001,2024-06-07_07h39.30.243,empathy_intonation_perc,2024.1.4,Win32,60.97560976,,,,,,,,,,,,,,134,fruzas,,,,,,377.1761,378.7423,0,1,1.0295,,0,121,121,133,1,pseudoword,0,REAL,FALSA
,,,,,,,,,6445b89361755459d55f2ee2,001,2024-06-07_07h39.30.243,empathy_intonation_perc,2024.1.4,Win32,60.97560976,,,,,,,,,,,,,,5,horror,,,,,,378.7429,379.9913,1,0,0.7219,,0,122,122,4,1,three_way_cognate,1,REAL,FALSA
,,,,,,,,,6445b89361755459d55f2ee2,001,2024-06-07_07h39.30.243,empathy_intonation_perc,2024.1.4,Win32,60.97560976,,,,,,,,,,,,,,36,viable,,,,,,379.9923,381.4242,0,1,0.8954,,0,123,123,35,1,two_way_cognate,1,REAL,FALSA
,,,,,,,,,6445b89361755459d55f2ee2,001,2024-06-07_07h39.30.243,empathy_intonation_perc,2024.1.4,Win32,60.97560976,,,,,,,,,,,,,,84,aviso,,,,,,381.4249,382.8898,1,0,0.9298,,0,124,124,83,1,non_cognate,1,REAL,FALSA
,,,,,,,,,6445b89361755459d55f2ee2,001,2024-06-07_07h39.30.243,empathy_intonation_perc,2024.1.4,Win32,60.97560976,,,,,,,,,,,,,,133,tirafa,,,,,,382.8904,384.2228,0,1,0.7981,,0,125,125,132,1,pseudoword,0,REAL,FALSA
,,,,,,,,,6445b89361755459d55f2ee2,001,2024-06-07_07h39.30.243,empathy_intonation_perc,2024.1.4,Win32,60.97560976,,,,,,,,,,,,,,140,vapen,,,,,,384.2235,385.4056,0,1,0.6514,,0,126,126,139,1,pseudoword,0,REAL,FALSA
,,,,,,,,,6445b89361755459d55f2ee2,001,2024-06-07_07h39.30.243,empathy_intonation_perc,2024.1.4,Win32,60.97560976,,,,,,,,,,,,,,26,enigma,,,,,,385.4063,387.5049,1,0,1.5666,,0,127,127,25,1,two_way_cognate,1,REAL,FALSA
,,,,,,,,,6445b89361755459d55f2ee2,001,2024-06-07_07h39.30.243,empathy_intonation_perc,2024.1.4,Win32,60.97560976,,,,,,,,,,,,,,10,golf,,,,,,387.5057,388.7875,1,0,0.7462,,0,128,128,9,1,three_way_cognate,1,REAL,FALSA
,,,,,,,,,6445b89361755459d55f2ee2,001,2024-06-07_07h39.30.243,empathy_intonation_perc,2024.1.4,Win32,60.97560976,,,,,,,,,,,,,,35,aurora,,,,,,388.7881,390.2031,0,1,0.881,,0,129,129,34,1,two_way_cognate,1,REAL,FALSA
,,,,,,,,,6445b89361755459d55f2ee2,001,2024-06-07_07h39.30.243,empathy_intonation_perc,2024.1.4,Win32,60.97560976,,,,,,,,,,,,,,124,lobe,,,,,,390.2037,391.3194,0,1,0.5858,,0,130,130,123,1,pseudoword,0,REAL,FALSA
,,,,,,,,,6445b89361755459d55f2ee2,001,2024-06-07_07h39.30.243,empathy_intonation_perc,2024.1.4,Win32,60.97560976,,,,,,,,,,,,,,110,vacapó,,,,,,391.32,392.5189,0,1,0.6655,,0,131,131,109,1,pseudoword,0,REAL,FALSA
,,,,,,,,,6445b89361755459d55f2ee2,001,2024-06-07_07h39.30.243,empathy_intonation_perc,2024.1.4,Win32,60.97560976,,,,,,,,,,,,,,43,honor,,,,,,392.5195,393.8848,1,0,0.8298,,0,132,132,42,1,two_way_cognate,1,REAL,FALSA
,,,,,,,,,6445b89361755459d55f2ee2,001,2024-06-07_07h39.30.243,empathy_intonation_perc,2024.1.4,Win32,60.97560976,,,,,,,,,,,,,,102,coyo,,,,,,393.8854,395.184,0,1,0.7668,,0,133,133,101,1,pseudoword,0,REAL,FALSA
,,,,,,,,,6445b89361755459d55f2ee2,001,2024-06-07_07h39.30.243,empathy_intonation_perc,2024.1.4,Win32,60.97560976,,,,,,,,,,,,,,70,ánimo,,,,,,395.1847,396.6834,1,0,0.9659,,0,134,134,69,1,non_cognate,1,REAL,FALSA
,,,,,,,,,6445b89361755459d55f2ee2,001,2024-06-07_07h39.30.243,empathy_intonation_perc,2024.1.4,Win32,60.97560976,,,,,,,,,,,,,,33,collar,,,,,,396.684,398.3321,1,0,1.1126,,0,135,135,32,1,two_way_cognate,1,REAL,FALSA
,,,,,,,,,6445b89361755459d55f2ee2,001,2024-06-07_07h39.30.243,empathy_intonation_perc,2024.1.4,Win32,60.97560976,,,,,,,,,,,,,,24,retina,,,,,,398.333,399.815,0,1,0.952,,0,136,136,23,1,three_way_cognate,1,REAL,FALSA
,,,,,,,,,6445b89361755459d55f2ee2,001,2024-06-07_07h39.30.243,empathy_intonation_perc,2024.1.4,Win32,60.97560976,,,,,,,,,,,,,,88,percha,,,,,,399.8157,401.3144,1,0,0.9645,,0,137,137,87,1,non_cognate,1,REAL,FALSA
,,,,,,,,,6445b89361755459d55f2ee2,001,2024-06-07_07h39.30.243,empathy_intonation_perc,2024.1.4,Win32,60.97560976,,,,,,,,,,,,,,93,tapa,,,,,,401.3152,403.9458,1,0,2.1038,,0,138,138,92,1,non_cognate,1,REAL,FALSA
,,,,,,,,,6445b89361755459d55f2ee2,001,2024-06-07_07h39.30.243,empathy_intonation_perc,2024.1.4,Win32,60.97560976,,,,,,,,,,,,,,60,siglo,,,,,,403.9646,405.1783,1,0,0.6822,,0,139,139,59,1,non_cognate,1,REAL,FALSA
,,,,,,,,,6445b89361755459d55f2ee2,001,2024-06-07_07h39.30.243,empathy_intonation_perc,2024.1.4,Win32,60.97560976,,,,,,,,,,,,,,87,muleta,,,,,,405.1786,406.3618,1,0,0.6496,,0,140,140,86,1,non_cognate,1,REAL,FALSA
,,,,,,,,,6445b89361755459d55f2ee2,001,2024-06-07_07h39.30.243,empathy_intonation_perc,2024.1.4,Win32,60.97560976,,,,,,,,,,,,,,105,curgué,,,,,,406.3624,407.7778,0,1,0.8817,,0,141,141,104,1,pseudoword,0,REAL,FALSA
,,,,,,,,,6445b89361755459d55f2ee2,001,2024-06-07_07h39.30.243,empathy_intonation_perc,2024.1.4,Win32,60.97560976,,,,,,,,,,,,,,11,dogma,,,,,,407.7784,409.3103,0,1,1.0004,,0,142,142,10,1,three_way_cognate,1,REAL,FALSA
,,,,,,,,,6445b89361755459d55f2ee2,001,2024-06-07_07h39.30.243,empathy_intonation_perc,2024.1.4,Win32,60.97560976,,,,,,,,,,,,,,97,hufón,,,,,,409.311,410.5761,0,1,0.7349,,0,143,143,96,1,pseudoword,0,REAL,FALSA
