lextale_instructions.started,lextale_instructions.stopped,lextale_instructions_loop.thisRepN,lextale_instructions_loop.thisTrialN,lextale_instructions_loop.thisN,lextale_instructions_loop.thisIndex,lextale_instructions_loop.ran,instructions_text,continue_text,participant,session,date,expName,psychopyVersion,OS,frameRate,lextale_practice.started,lextale_practice.stopped,key_resp_lextale_practice.keys,key_resp_lextale_practice.corr,key_resp_lextale_practice.rt,key_resp_lextale_practice.duration,lextale_practice_feedback.started,lextale_practice_feedback.stopped,lextale_practice_trials.thisRepN,lextale_practice_trials.thisTrialN,lextale_practice_trials.thisN,lextale_practice_trials.thisIndex,lextale_practice_trials.ran,stim,word,correct_response,prac_button_real,prac_button_false,lextale_check.started,lextale_check.stopped,lextale_trial.started,lextale_trial.stopped,key_resp_lextale_trial.keys,key_resp_lextale_trial.corr,key_resp_lextale_trial.rt,key_resp_lextale_trial.duration,lextail_trials.thisRepN,lextail_trials.thisTrialN,lextail_trials.thisN,lextail_trials.thisIndex,lextail_trials.ran,type,correct_reponse,button_real,button_false
0.003,7.51,0,0,0,0,1,"Este es un test de vocabulario en español. 
  
  A continuación vas a ver 90 secuencias de letras que parecen 'españolas'.
  
  Solo algunas de ellas son palabras de verdad.",(presiona la barra espaciadora para continuar),654bb50c72b2f304d47bfdab,001,2024-06-03_06h45.14.850,empathy_intonation_perc,2024.1.4,Win32,60.09615385,,,,,,,,,,,,,,,,,,,,,,,,,,,,,,,,,,,
7.51,10.189,0,1,1,1,1,"Por favor, señala las palabras que tú conoces (aquellas que estás convencido que son palabras españolas, incluso aunque no seas capaz de dar el significado preciso).",(presiona la barra espaciadora para continuar),654bb50c72b2f304d47bfdab,001,2024-06-03_06h45.14.850,empathy_intonation_perc,2024.1.4,Win32,60.09615385,,,,,,,,,,,,,,,,,,,,,,,,,,,,,,,,,,,
10.192,11.5,0,2,2,2,1,Pero cuidado: los errores se penalizan. Por eso no tiene sentido tratar de incrementar tu puntuación marcando como reales palabras que nunca has visto.,(presiona la barra espaciadora para continuar),654bb50c72b2f304d47bfdab,001,2024-06-03_06h45.14.850,empathy_intonation_perc,2024.1.4,Win32,60.09615385,,,,,,,,,,,,,,,,,,,,,,,,,,,,,,,,,,,
11.502,12.809,0,3,3,3,1,"Presiona la tecla 1 si piensas que es una palabra real y la tecla 
  0 si piensas que es una palabra falsa. 
  
  Vamos a practicar un poco...",(presiona la barra espaciadora para continuar),654bb50c72b2f304d47bfdab,001,2024-06-03_06h45.14.850,empathy_intonation_perc,2024.1.4,Win32,60.09615385,,,,,,,,,,,,,,,,,,,,,,,,,,,,,,,,,,,
,,,,,,,,,654bb50c72b2f304d47bfdab,001,2024-06-03_06h45.14.850,empathy_intonation_perc,2024.1.4,Win32,60.09615385,12.813,22.883,1,0,9.544,,22.885,23.883,0,0,0,0,1,0,depiste,0,REAL,FALSA,,,,,,,,,,,,,,,,,
,,,,,,,,,654bb50c72b2f304d47bfdab,001,2024-06-03_06h45.14.850,empathy_intonation_perc,2024.1.4,Win32,60.09615385,23.893,28.098,0,0,3.668,,28.098,29.096,0,1,1,1,1,0,sí,1,REAL,FALSA,,,,,,,,,,,,,,,,,
,,,,,,,,,654bb50c72b2f304d47bfdab,001,2024-06-03_06h45.14.850,empathy_intonation_perc,2024.1.4,Win32,60.09615385,29.098,31.557,1,0,1.903,,31.557,32.557,0,2,2,2,1,0,coné,0,REAL,FALSA,,,,,,,,,,,,,,,,,
,,,,,,,,,654bb50c72b2f304d47bfdab,001,2024-06-03_06h45.14.850,empathy_intonation_perc,2024.1.4,Win32,60.09615385,32.558,33.89,1,0,0.803,,33.89,34.892,0,3,3,3,1,0,calpar,0,REAL,FALSA,,,,,,,,,,,,,,,,,
,,,,,,,,,654bb50c72b2f304d47bfdab,001,2024-06-03_06h45.14.850,empathy_intonation_perc,2024.1.4,Win32,60.09615385,34.893,36.15,0,1,0.719,,36.15,37.145,0,4,4,4,1,0,joten,0,REAL,FALSA,,,,,,,,,,,,,,,,,
,,,,,,,,,654bb50c72b2f304d47bfdab,001,2024-06-03_06h45.14.850,empathy_intonation_perc,2024.1.4,Win32,60.09615385,37.149,38.421,0,0,0.741,,38.421,39.42,0,5,5,5,1,0,sacapuntas,1,REAL,FALSA,,,,,,,,,,,,,,,,,
,,,,,,,,,654bb50c72b2f304d47bfdab,001,2024-06-03_06h45.14.850,empathy_intonation_perc,2024.1.4,Win32,60.09615385,39.42,42.307,1,0,2.365,,42.307,43.302,0,6,6,6,1,0,priba,0,REAL,FALSA,,,,,,,,,,,,,,,,,
,,,,,,,,,654bb50c72b2f304d47bfdab,001,2024-06-03_06h45.14.850,empathy_intonation_perc,2024.1.4,Win32,60.09615385,43.303,44.307,1,0,0.457,,44.308,45.312,0,7,7,7,1,0,pelasula,0,REAL,FALSA,,,,,,,,,,,,,,,,,
,,,,,,,,,654bb50c72b2f304d47bfdab,001,2024-06-03_06h45.14.850,empathy_intonation_perc,2024.1.4,Win32,60.09615385,45.313,46.241,0,0,0.404,,46.242,47.238,0,8,8,8,1,0,bien,1,REAL,FALSA,,,,,,,,,,,,,,,,,
,,,,,,,,,654bb50c72b2f304d47bfdab,001,2024-06-03_06h45.14.850,empathy_intonation_perc,2024.1.4,Win32,60.09615385,47.239,49.944,0,0,2.162,,49.944,50.933,0,9,9,9,1,0,casa,1,REAL,FALSA,,,,,,,,,,,,,,,,,
,,,,,,,,,654bb50c72b2f304d47bfdab,001,2024-06-03_06h45.14.850,empathy_intonation_perc,2024.1.4,Win32,60.09615385,50.934,52.547,1,0,1.075,,52.547,53.535,0,10,10,10,1,0,lejo,0,REAL,FALSA,,,,,,,,,,,,,,,,,
,,,,,,,,,654bb50c72b2f304d47bfdab,001,2024-06-03_06h45.14.850,empathy_intonation_perc,2024.1.4,Win32,60.09615385,53.536,54.458,0,1,0.377,,54.458,55.453,0,11,11,11,1,0,pretantas,0,REAL,FALSA,,,,,,,,,,,,,,,,,
,,,,,,,,,654bb50c72b2f304d47bfdab,001,2024-06-03_06h45.14.850,empathy_intonation_perc,2024.1.4,Win32,60.09615385,,,,,,,,,,,,,,,,,,,55.456,383.711,,,,,,,,,,,,,,,
,,,,,,,,,654bb50c72b2f304d47bfdab,001,2024-06-03_06h45.14.850,empathy_intonation_perc,2024.1.4,Win32,60.09615385,,,,,,,,,,,,,,77,toges,,,,,,383.737,386.556,1,0,2.279,,0,0,0,76,1,pseudoword,0,REAL,FALSA
,,,,,,,,,654bb50c72b2f304d47bfdab,001,2024-06-03_06h45.14.850,empathy_intonation_perc,2024.1.4,Win32,60.09615385,,,,,,,,,,,,,,41,salto,,,,,,386.559,389.087,0,1,2.008,,0,1,1,40,1,non_cognate,1,REAL,FALSA
,,,,,,,,,654bb50c72b2f304d47bfdab,001,2024-06-03_06h45.14.850,empathy_intonation_perc,2024.1.4,Win32,60.09615385,,,,,,,,,,,,,,58,abunal,,,,,,389.089,390.089,1,0,0.457,,0,2,2,57,1,pseudoword,0,REAL,FALSA
,,,,,,,,,654bb50c72b2f304d47bfdab,001,2024-06-03_06h45.14.850,empathy_intonation_perc,2024.1.4,Win32,60.09615385,,,,,,,,,,,,,,17,enigma,,,,,,390.09,391.033,0,1,0.382,,0,3,3,16,1,two_way_cognate,1,REAL,FALSA
,,,,,,,,,654bb50c72b2f304d47bfdab,001,2024-06-03_06h45.14.850,empathy_intonation_perc,2024.1.4,Win32,60.09615385,,,,,,,,,,,,,,82,alla,,,,,,391.038,391.995,1,0,0.434,,0,4,4,81,1,pseudoword,0,REAL,FALSA
,,,,,,,,,654bb50c72b2f304d47bfdab,001,2024-06-03_06h45.14.850,empathy_intonation_perc,2024.1.4,Win32,60.09615385,,,,,,,,,,,,,,35,pájaro,,,,,,391.996,393.227,1,0,0.697,,0,5,5,34,1,non_cognate,1,REAL,FALSA
,,,,,,,,,654bb50c72b2f304d47bfdab,001,2024-06-03_06h45.14.850,empathy_intonation_perc,2024.1.4,Win32,60.09615385,,,,,,,,,,,,,,75,babrá,,,,,,393.228,395.344,1,0,1.595,,0,6,6,74,1,pseudoword,0,REAL,FALSA
,,,,,,,,,654bb50c72b2f304d47bfdab,001,2024-06-03_06h45.14.850,empathy_intonation_perc,2024.1.4,Win32,60.09615385,,,,,,,,,,,,,,90,duyo,,,,,,395.344,396.532,0,1,0.661,,0,7,7,89,1,pseudoword,0,REAL,FALSA
,,,,,,,,,654bb50c72b2f304d47bfdab,001,2024-06-03_06h45.14.850,empathy_intonation_perc,2024.1.4,Win32,60.09615385,,,,,,,,,,,,,,60,debada,,,,,,396.533,397.769,1,0,0.709,,0,8,8,59,1,pseudoword,0,REAL,FALSA
,,,,,,,,,654bb50c72b2f304d47bfdab,001,2024-06-03_06h45.14.850,empathy_intonation_perc,2024.1.4,Win32,60.09615385,,,,,,,,,,,,,,55,ropis,,,,,,397.77,399.041,0,1,0.748,,0,9,9,54,1,pseudoword,0,REAL,FALSA
,,,,,,,,,654bb50c72b2f304d47bfdab,001,2024-06-03_06h45.14.850,empathy_intonation_perc,2024.1.4,Win32,60.09615385,,,,,,,,,,,,,,70,hunten,,,,,,399.041,399.964,1,0,0.403,,0,10,10,69,1,pseudoword,0,REAL,FALSA
,,,,,,,,,654bb50c72b2f304d47bfdab,001,2024-06-03_06h45.14.850,empathy_intonation_perc,2024.1.4,Win32,60.09615385,,,,,,,,,,,,,,38,trenza,,,,,,399.964,401.257,1,0,0.763,,0,11,11,37,1,non_cognate,1,REAL,FALSA
,,,,,,,,,654bb50c72b2f304d47bfdab,001,2024-06-03_06h45.14.850,empathy_intonation_perc,2024.1.4,Win32,60.09615385,,,,,,,,,,,,,,86,abamos,,,,,,401.257,402.34,0,1,0.528,,0,12,12,85,1,pseudoword,0,REAL,FALSA
,,,,,,,,,654bb50c72b2f304d47bfdab,001,2024-06-03_06h45.14.850,empathy_intonation_perc,2024.1.4,Win32,60.09615385,,,,,,,,,,,,,,23,editor,,,,,,402.341,403.272,1,0,0.402,,0,13,13,22,1,two_way_cognate,1,REAL,FALSA
,,,,,,,,,654bb50c72b2f304d47bfdab,001,2024-06-03_06h45.14.850,empathy_intonation_perc,2024.1.4,Win32,60.09615385,,,,,,,,,,,,,,95,aclaya,,,,,,403.273,404.572,0,1,0.764,,0,14,14,94,1,pseudoword,0,REAL,FALSA
,,,,,,,,,654bb50c72b2f304d47bfdab,001,2024-06-03_06h45.14.850,empathy_intonation_perc,2024.1.4,Win32,60.09615385,,,,,,,,,,,,,,22,pasta,,,,,,404.572,406.221,1,0,1.123,,0,15,15,21,1,two_way_cognate,1,REAL,FALSA
,,,,,,,,,654bb50c72b2f304d47bfdab,001,2024-06-03_06h45.14.850,empathy_intonation_perc,2024.1.4,Win32,60.09615385,,,,,,,,,,,,,,87,racaer,,,,,,406.223,407.624,0,1,0.866,,0,16,16,86,1,pseudoword,0,REAL,FALSA
,,,,,,,,,654bb50c72b2f304d47bfdab,001,2024-06-03_06h45.14.850,empathy_intonation_perc,2024.1.4,Win32,60.09615385,,,,,,,,,,,,,,89,barezo,,,,,,407.631,409.154,0,1,0.994,,0,17,17,88,1,pseudoword,0,REAL,FALSA
,,,,,,,,,654bb50c72b2f304d47bfdab,001,2024-06-03_06h45.14.850,empathy_intonation_perc,2024.1.4,Win32,60.09615385,,,,,,,,,,,,,,81,rombar,,,,,,409.157,410.355,1,0,0.655,,0,18,18,80,1,pseudoword,0,REAL,FALSA
,,,,,,,,,654bb50c72b2f304d47bfdab,001,2024-06-03_06h45.14.850,empathy_intonation_perc,2024.1.4,Win32,60.09615385,,,,,,,,,,,,,,62,sujo,,,,,,410.358,411.591,0,1,0.674,,0,19,19,61,1,pseudoword,0,REAL,FALSA
,,,,,,,,,654bb50c72b2f304d47bfdab,001,2024-06-03_06h45.14.850,empathy_intonation_perc,2024.1.4,Win32,60.09615385,,,,,,,,,,,,,,79,filte,,,,,,411.596,412.589,1,0,0.459,,0,20,20,78,1,pseudoword,0,REAL,FALSA
,,,,,,,,,654bb50c72b2f304d47bfdab,001,2024-06-03_06h45.14.850,empathy_intonation_perc,2024.1.4,Win32,60.09615385,,,,,,,,,,,,,,80,suelet,,,,,,412.589,413.791,1,0,0.682,,0,21,21,79,1,pseudoword,0,REAL,FALSA
,,,,,,,,,654bb50c72b2f304d47bfdab,001,2024-06-03_06h45.14.850,empathy_intonation_perc,2024.1.4,Win32,60.09615385,,,,,,,,,,,,,,6,horror,,,,,,413.793,415.044,1,0,0.708,,0,22,22,5,1,three_way_cognate,1,REAL,FALSA
,,,,,,,,,654bb50c72b2f304d47bfdab,001,2024-06-03_06h45.14.850,empathy_intonation_perc,2024.1.4,Win32,60.09615385,,,,,,,,,,,,,,40,cuento,,,,,,415.045,416.572,0,1,0.986,,0,23,23,39,1,non_cognate,1,REAL,FALSA
,,,,,,,,,654bb50c72b2f304d47bfdab,001,2024-06-03_06h45.14.850,empathy_intonation_perc,2024.1.4,Win32,60.09615385,,,,,,,,,,,,,,63,aljizo,,,,,,416.576,417.67,1,0,0.559,,0,24,24,62,1,pseudoword,0,REAL,FALSA
,,,,,,,,,654bb50c72b2f304d47bfdab,001,2024-06-03_06h45.14.850,empathy_intonation_perc,2024.1.4,Win32,60.09615385,,,,,,,,,,,,,,48,taza,,,,,,417.672,418.85,0,1,0.642,,0,25,25,47,1,non_cognate,1,REAL,FALSA
,,,,,,,,,654bb50c72b2f304d47bfdab,001,2024-06-03_06h45.14.850,empathy_intonation_perc,2024.1.4,Win32,60.09615385,,,,,,,,,,,,,,37,delito,,,,,,418.851,420.365,1,0,0.982,,0,26,26,36,1,non_cognate,1,REAL,FALSA
,,,,,,,,,654bb50c72b2f304d47bfdab,001,2024-06-03_06h45.14.850,empathy_intonation_perc,2024.1.4,Win32,60.09615385,,,,,,,,,,,,,,39,pista,,,,,,420.366,421.644,0,1,0.751,,0,27,27,38,1,non_cognate,1,REAL,FALSA
,,,,,,,,,654bb50c72b2f304d47bfdab,001,2024-06-03_06h45.14.850,empathy_intonation_perc,2024.1.4,Win32,60.09615385,,,,,,,,,,,,,,57,calto,,,,,,421.645,423.285,0,1,1.09,,0,28,28,56,1,pseudoword,0,REAL,FALSA
,,,,,,,,,654bb50c72b2f304d47bfdab,001,2024-06-03_06h45.14.850,empathy_intonation_perc,2024.1.4,Win32,60.09615385,,,,,,,,,,,,,,69,vemua,,,,,,423.287,424.586,1,0,0.773,,0,29,29,68,1,pseudoword,0,REAL,FALSA
,,,,,,,,,654bb50c72b2f304d47bfdab,001,2024-06-03_06h45.14.850,empathy_intonation_perc,2024.1.4,Win32,60.09615385,,,,,,,,,,,,,,43,huella,,,,,,424.588,425.813,0,1,0.691,,0,30,30,42,1,non_cognate,1,REAL,FALSA
,,,,,,,,,654bb50c72b2f304d47bfdab,001,2024-06-03_06h45.14.850,empathy_intonation_perc,2024.1.4,Win32,60.09615385,,,,,,,,,,,,,,33,latón,,,,,,425.814,426.762,1,0,0.425,,0,31,31,32,1,non_cognate,1,REAL,FALSA
,,,,,,,,,654bb50c72b2f304d47bfdab,001,2024-06-03_06h45.14.850,empathy_intonation_perc,2024.1.4,Win32,60.09615385,,,,,,,,,,,,,,8,solar,,,,,,426.762,427.963,1,0,0.655,,0,32,32,7,1,three_way_cognate,1,REAL,FALSA
,,,,,,,,,654bb50c72b2f304d47bfdab,001,2024-06-03_06h45.14.850,empathy_intonation_perc,2024.1.4,Win32,60.09615385,,,,,,,,,,,,,,56,qucrá,,,,,,427.964,429.449,0,1,0.953,,0,33,33,55,1,pseudoword,0,REAL,FALSA
,,,,,,,,,654bb50c72b2f304d47bfdab,001,2024-06-03_06h45.14.850,empathy_intonation_perc,2024.1.4,Win32,60.09615385,,,,,,,,,,,,,,11,sauna,,,,,,429.45,430.761,1,0,0.785,,0,34,34,10,1,three_way_cognate,1,REAL,FALSA
,,,,,,,,,654bb50c72b2f304d47bfdab,001,2024-06-03_06h45.14.850,empathy_intonation_perc,2024.1.4,Win32,60.09615385,,,,,,,,,,,,,,78,alzán,,,,,,430.762,432.404,1,0,1.118,,0,35,35,77,1,pseudoword,0,REAL,FALSA
,,,,,,,,,654bb50c72b2f304d47bfdab,001,2024-06-03_06h45.14.850,empathy_intonation_perc,2024.1.4,Win32,60.09615385,,,,,,,,,,,,,,71,rande,,,,,,432.405,433.951,1,0,1.026,,0,36,36,70,1,pseudoword,0,REAL,FALSA
,,,,,,,,,654bb50c72b2f304d47bfdab,001,2024-06-03_06h45.14.850,empathy_intonation_perc,2024.1.4,Win32,60.09615385,,,,,,,,,,,,,,24,civil,,,,,,433.952,435.384,1,0,0.904,,0,37,37,23,1,two_way_cognate,1,REAL,FALSA
,,,,,,,,,654bb50c72b2f304d47bfdab,001,2024-06-03_06h45.14.850,empathy_intonation_perc,2024.1.4,Win32,60.09615385,,,,,,,,,,,,,,92,nasce,,,,,,435.385,436.866,0,1,0.952,,0,38,38,91,1,pseudoword,0,REAL,FALSA
,,,,,,,,,654bb50c72b2f304d47bfdab,001,2024-06-03_06h45.14.850,empathy_intonation_perc,2024.1.4,Win32,60.09615385,,,,,,,,,,,,,,46,cumbre,,,,,,436.868,438.133,0,1,0.74,,0,39,39,45,1,non_cognate,1,REAL,FALSA
,,,,,,,,,654bb50c72b2f304d47bfdab,001,2024-06-03_06h45.14.850,empathy_intonation_perc,2024.1.4,Win32,60.09615385,,,,,,,,,,,,,,19,pelvis,,,,,,438.134,439.721,1,0,1.064,,0,40,40,18,1,two_way_cognate,1,REAL,FALSA
,,,,,,,,,654bb50c72b2f304d47bfdab,001,2024-06-03_06h45.14.850,empathy_intonation_perc,2024.1.4,Win32,60.09615385,,,,,,,,,,,,,,5,fauna,,,,,,439.723,441.239,0,1,0.96,,0,41,41,4,1,three_way_cognate,1,REAL,FALSA
,,,,,,,,,654bb50c72b2f304d47bfdab,001,2024-06-03_06h45.14.850,empathy_intonation_perc,2024.1.4,Win32,60.09615385,,,,,,,,,,,,,,50,suaja,,,,,,441.239,442.47,1,0,0.708,,0,42,42,49,1,pseudoword,0,REAL,FALSA
,,,,,,,,,654bb50c72b2f304d47bfdab,001,2024-06-03_06h45.14.850,empathy_intonation_perc,2024.1.4,Win32,60.09615385,,,,,,,,,,,,,,16,animal,,,,,,442.473,443.975,1,0,0.969,,0,43,43,15,1,two_way_cognate,1,REAL,FALSA
,,,,,,,,,654bb50c72b2f304d47bfdab,001,2024-06-03_06h45.14.850,empathy_intonation_perc,2024.1.4,Win32,60.09615385,,,,,,,,,,,,,,88,hento,,,,,,443.975,446.087,0,1,1.581,,0,44,44,87,1,pseudoword,0,REAL,FALSA
,,,,,,,,,654bb50c72b2f304d47bfdab,001,2024-06-03_06h45.14.850,empathy_intonation_perc,2024.1.4,Win32,60.09615385,,,,,,,,,,,,,,65,edidé,,,,,,446.087,447.253,1,0,0.637,,0,45,45,64,1,pseudoword,0,REAL,FALSA
,,,,,,,,,654bb50c72b2f304d47bfdab,001,2024-06-03_06h45.14.850,empathy_intonation_perc,2024.1.4,Win32,60.09615385,,,,,,,,,,,,,,83,monsos,,,,,,447.255,448.756,0,1,0.969,,0,46,46,82,1,pseudoword,0,REAL,FALSA
,,,,,,,,,654bb50c72b2f304d47bfdab,001,2024-06-03_06h45.14.850,empathy_intonation_perc,2024.1.4,Win32,60.09615385,,,,,,,,,,,,,,15,actor,,,,,,448.758,449.923,1,0,0.631,,0,47,47,14,1,two_way_cognate,1,REAL,FALSA
,,,,,,,,,654bb50c72b2f304d47bfdab,001,2024-06-03_06h45.14.850,empathy_intonation_perc,2024.1.4,Win32,60.09615385,,,,,,,,,,,,,,27,pelado,,,,,,449.926,451.039,0,1,0.582,,0,48,48,26,1,non_cognate,1,REAL,FALSA
,,,,,,,,,654bb50c72b2f304d47bfdab,001,2024-06-03_06h45.14.850,empathy_intonation_perc,2024.1.4,Win32,60.09615385,,,,,,,,,,,,,,59,mandio,,,,,,451.041,452.238,1,0,0.643,,0,49,49,58,1,pseudoword,0,REAL,FALSA
,,,,,,,,,654bb50c72b2f304d47bfdab,001,2024-06-03_06h45.14.850,empathy_intonation_perc,2024.1.4,Win32,60.09615385,,,,,,,,,,,,,,64,altimo,,,,,,452.238,453.726,0,1,0.963,,0,50,50,63,1,pseudoword,0,REAL,FALSA
,,,,,,,,,654bb50c72b2f304d47bfdab,001,2024-06-03_06h45.14.850,empathy_intonation_perc,2024.1.4,Win32,60.09615385,,,,,,,,,,,,,,76,orida,,,,,,453.727,454.813,1,0,0.561,,0,51,51,75,1,pseudoword,0,REAL,FALSA
,,,,,,,,,654bb50c72b2f304d47bfdab,001,2024-06-03_06h45.14.850,empathy_intonation_perc,2024.1.4,Win32,60.09615385,,,,,,,,,,,,,,36,visión,,,,,,454.814,456.116,1,0,0.771,,0,52,52,35,1,non_cognate,1,REAL,FALSA
,,,,,,,,,654bb50c72b2f304d47bfdab,001,2024-06-03_06h45.14.850,empathy_intonation_perc,2024.1.4,Win32,60.09615385,,,,,,,,,,,,,,91,chote,,,,,,456.117,457.84,1,0,1.172,,0,53,53,90,1,pseudoword,0,REAL,FALSA
,,,,,,,,,654bb50c72b2f304d47bfdab,001,2024-06-03_06h45.14.850,empathy_intonation_perc,2024.1.4,Win32,60.09615385,,,,,,,,,,,,,,53,samón,,,,,,457.841,459.066,1,0,0.701,,0,54,54,52,1,pseudoword,0,REAL,FALSA
,,,,,,,,,654bb50c72b2f304d47bfdab,001,2024-06-03_06h45.14.850,empathy_intonation_perc,2024.1.4,Win32,60.09615385,,,,,,,,,,,,,,30,llamar,,,,,,459.066,460.313,0,1,0.714,,0,55,55,29,1,non_cognate,1,REAL,FALSA
,,,,,,,,,654bb50c72b2f304d47bfdab,001,2024-06-03_06h45.14.850,empathy_intonation_perc,2024.1.4,Win32,60.09615385,,,,,,,,,,,,,,26,hilo,,,,,,460.314,461.757,1,0,0.906,,0,56,56,25,1,non_cognate,1,REAL,FALSA
,,,,,,,,,654bb50c72b2f304d47bfdab,001,2024-06-03_06h45.14.850,empathy_intonation_perc,2024.1.4,Win32,60.09615385,,,,,,,,,,,,,,51,tandir,,,,,,461.758,462.939,0,1,0.66,,0,57,57,50,1,pseudoword,0,REAL,FALSA
,,,,,,,,,654bb50c72b2f304d47bfdab,001,2024-06-03_06h45.14.850,empathy_intonation_perc,2024.1.4,Win32,60.09615385,,,,,,,,,,,,,,45,viga,,,,,,462.939,463.891,1,0,0.414,,0,58,58,44,1,non_cognate,1,REAL,FALSA
,,,,,,,,,654bb50c72b2f304d47bfdab,001,2024-06-03_06h45.14.850,empathy_intonation_perc,2024.1.4,Win32,60.09615385,,,,,,,,,,,,,,42,premio,,,,,,463.891,465.032,0,1,0.616,,0,59,59,41,1,non_cognate,1,REAL,FALSA
,,,,,,,,,654bb50c72b2f304d47bfdab,001,2024-06-03_06h45.14.850,empathy_intonation_perc,2024.1.4,Win32,60.09615385,,,,,,,,,,,,,,12,bar,,,,,,465.032,465.982,1,0,0.392,,0,60,60,11,1,three_way_cognate,1,REAL,FALSA
,,,,,,,,,654bb50c72b2f304d47bfdab,001,2024-06-03_06h45.14.850,empathy_intonation_perc,2024.1.4,Win32,60.09615385,,,,,,,,,,,,,,94,bomos,,,,,,465.984,467.594,1,0,1.084,,0,61,61,93,1,pseudoword,0,REAL,FALSA
,,,,,,,,,654bb50c72b2f304d47bfdab,001,2024-06-03_06h45.14.850,empathy_intonation_perc,2024.1.4,Win32,60.09615385,,,,,,,,,,,,,,32,caro,,,,,,467.594,469.509,1,0,1.399,,0,62,62,31,1,non_cognate,1,REAL,FALSA
,,,,,,,,,654bb50c72b2f304d47bfdab,001,2024-06-03_06h45.14.850,empathy_intonation_perc,2024.1.4,Win32,60.09615385,,,,,,,,,,,,,,73,meolar,,,,,,469.51,470.826,0,1,0.791,,0,63,63,72,1,pseudoword,0,REAL,FALSA
,,,,,,,,,654bb50c72b2f304d47bfdab,001,2024-06-03_06h45.14.850,empathy_intonation_perc,2024.1.4,Win32,60.09615385,,,,,,,,,,,,,,68,hurmo,,,,,,470.826,471.997,1,0,0.632,,0,64,64,67,1,pseudoword,0,REAL,FALSA
,,,,,,,,,654bb50c72b2f304d47bfdab,001,2024-06-03_06h45.14.850,empathy_intonation_perc,2024.1.4,Win32,60.09615385,,,,,,,,,,,,,,2,clan,,,,,,471.997,473.394,1,0,0.867,,0,65,65,1,1,three_way_cognate,1,REAL,FALSA
,,,,,,,,,654bb50c72b2f304d47bfdab,001,2024-06-03_06h45.14.850,empathy_intonation_perc,2024.1.4,Win32,60.09615385,,,,,,,,,,,,,,47,alivio,,,,,,473.395,474.614,0,1,0.669,,0,66,66,46,1,non_cognate,1,REAL,FALSA
,,,,,,,,,654bb50c72b2f304d47bfdab,001,2024-06-03_06h45.14.850,empathy_intonation_perc,2024.1.4,Win32,60.09615385,,,,,,,,,,,,,,52,coriar,,,,,,474.614,475.755,1,0,0.601,,0,67,67,51,1,pseudoword,0,REAL,FALSA
,,,,,,,,,654bb50c72b2f304d47bfdab,001,2024-06-03_06h45.14.850,empathy_intonation_perc,2024.1.4,Win32,60.09615385,,,,,,,,,,,,,,44,llamar,,,,,,475.758,476.891,0,1,0.599,,0,68,68,43,1,non_cognate,1,REAL,FALSA
,,,,,,,,,654bb50c72b2f304d47bfdab,001,2024-06-03_06h45.14.850,empathy_intonation_perc,2024.1.4,Win32,60.09615385,,,,,,,,,,,,,,7,retina,,,,,,476.896,477.977,1,0,0.547,,0,69,69,6,1,three_way_cognate,1,REAL,FALSA
,,,,,,,,,654bb50c72b2f304d47bfdab,001,2024-06-03_06h45.14.850,empathy_intonation_perc,2024.1.4,Win32,60.09615385,,,,,,,,,,,,,,1,torso,,,,,,477.978,479.289,0,1,0.779,,0,70,70,0,1,three_way_cognate,1,REAL,FALSA
,,,,,,,,,654bb50c72b2f304d47bfdab,001,2024-06-03_06h45.14.850,empathy_intonation_perc,2024.1.4,Win32,60.09615385,,,,,,,,,,,,,,67,huzas,,,,,,479.29,480.291,1,0,0.445,,0,71,71,66,1,pseudoword,0,REAL,FALSA
,,,,,,,,,654bb50c72b2f304d47bfdab,001,2024-06-03_06h45.14.850,empathy_intonation_perc,2024.1.4,Win32,60.09615385,,,,,,,,,,,,,,84,jomas,,,,,,480.292,481.404,1,0,0.583,,0,72,72,83,1,pseudoword,0,REAL,FALSA
,,,,,,,,,654bb50c72b2f304d47bfdab,001,2024-06-03_06h45.14.850,empathy_intonation_perc,2024.1.4,Win32,60.09615385,,,,,,,,,,,,,,85,tutaba,,,,,,481.405,482.937,0,1,1.007,,0,73,73,84,1,pseudoword,0,REAL,FALSA
,,,,,,,,,654bb50c72b2f304d47bfdab,001,2024-06-03_06h45.14.850,empathy_intonation_perc,2024.1.4,Win32,60.09615385,,,,,,,,,,,,,,66,clazas,,,,,,482.938,484.188,0,1,0.734,,0,74,74,65,1,pseudoword,0,REAL,FALSA
,,,,,,,,,654bb50c72b2f304d47bfdab,001,2024-06-03_06h45.14.850,empathy_intonation_perc,2024.1.4,Win32,60.09615385,,,,,,,,,,,,,,3,bingo,,,,,,484.191,485.24,0,1,0.525,,0,75,75,2,1,three_way_cognate,1,REAL,FALSA
,,,,,,,,,654bb50c72b2f304d47bfdab,001,2024-06-03_06h45.14.850,empathy_intonation_perc,2024.1.4,Win32,60.09615385,,,,,,,,,,,,,,93,caemal,,,,,,485.241,486.436,0,1,0.662,,0,76,76,92,1,pseudoword,0,REAL,FALSA
,,,,,,,,,654bb50c72b2f304d47bfdab,001,2024-06-03_06h45.14.850,empathy_intonation_perc,2024.1.4,Win32,60.09615385,,,,,,,,,,,,,,20,total,,,,,,486.437,487.685,1,0,0.715,,0,77,77,19,1,two_way_cognate,1,REAL,FALSA
,,,,,,,,,654bb50c72b2f304d47bfdab,001,2024-06-03_06h45.14.850,empathy_intonation_perc,2024.1.4,Win32,60.09615385,,,,,,,,,,,,,,74,mibro,,,,,,487.685,489.003,1,0,0.787,,0,78,78,73,1,pseudoword,0,REAL,FALSA
,,,,,,,,,654bb50c72b2f304d47bfdab,001,2024-06-03_06h45.14.850,empathy_intonation_perc,2024.1.4,Win32,60.09615385,,,,,,,,,,,,,,96,brigan,,,,,,489.004,490.151,0,1,0.614,,0,79,79,95,1,pseudoword,0,REAL,FALSA
,,,,,,,,,654bb50c72b2f304d47bfdab,001,2024-06-03_06h45.14.850,empathy_intonation_perc,2024.1.4,Win32,60.09615385,,,,,,,,,,,,,,34,sermón,,,,,,490.153,491.488,1,0,0.793,,0,80,80,33,1,non_cognate,1,REAL,FALSA
,,,,,,,,,654bb50c72b2f304d47bfdab,001,2024-06-03_06h45.14.850,empathy_intonation_perc,2024.1.4,Win32,60.09615385,,,,,,,,,,,,,,31,campo,,,,,,491.488,492.522,1,0,0.505,,0,81,81,30,1,non_cognate,1,REAL,FALSA
,,,,,,,,,654bb50c72b2f304d47bfdab,001,2024-06-03_06h45.14.850,empathy_intonation_perc,2024.1.4,Win32,60.09615385,,,,,,,,,,,,,,18,honor,,,,,,492.523,493.84,1,0,0.786,,0,82,82,17,1,two_way_cognate,1,REAL,FALSA
,,,,,,,,,654bb50c72b2f304d47bfdab,001,2024-06-03_06h45.14.850,empathy_intonation_perc,2024.1.4,Win32,60.09615385,,,,,,,,,,,,,,29,cesta,,,,,,493.841,495.132,1,0,0.758,,0,83,83,28,1,non_cognate,1,REAL,FALSA
,,,,,,,,,654bb50c72b2f304d47bfdab,001,2024-06-03_06h45.14.850,empathy_intonation_perc,2024.1.4,Win32,60.09615385,,,,,,,,,,,,,,13,aurora,,,,,,495.132,496.149,1,0,0.463,,0,84,84,12,1,two_way_cognate,1,REAL,FALSA
,,,,,,,,,654bb50c72b2f304d47bfdab,001,2024-06-03_06h45.14.850,empathy_intonation_perc,2024.1.4,Win32,60.09615385,,,,,,,,,,,,,,9,limbo,,,,,,496.153,497.048,0,1,0.368,,0,85,85,8,1,three_way_cognate,1,REAL,FALSA
,,,,,,,,,654bb50c72b2f304d47bfdab,001,2024-06-03_06h45.14.850,empathy_intonation_perc,2024.1.4,Win32,60.09615385,,,,,,,,,,,,,,25,exigir,,,,,,497.048,497.93,1,0,0.347,,0,86,86,24,1,non_cognate,1,REAL,FALSA
,,,,,,,,,654bb50c72b2f304d47bfdab,001,2024-06-03_06h45.14.850,empathy_intonation_perc,2024.1.4,Win32,60.09615385,,,,,,,,,,,,,,10,tango,,,,,,497.931,498.769,0,1,0.317,,0,87,87,9,1,three_way_cognate,1,REAL,FALSA
,,,,,,,,,654bb50c72b2f304d47bfdab,001,2024-06-03_06h45.14.850,empathy_intonation_perc,2024.1.4,Win32,60.09615385,,,,,,,,,,,,,,61,trip,,,,,,498.77,499.475,1,0,0.181,,0,88,88,60,1,pseudoword,0,REAL,FALSA
,,,,,,,,,654bb50c72b2f304d47bfdab,001,2024-06-03_06h45.14.850,empathy_intonation_perc,2024.1.4,Win32,60.09615385,,,,,,,,,,,,,,21,casual,,,,,,499.475,500.318,1,0,0.319,,0,89,89,20,1,two_way_cognate,1,REAL,FALSA
,,,,,,,,,654bb50c72b2f304d47bfdab,001,2024-06-03_06h45.14.850,empathy_intonation_perc,2024.1.4,Win32,60.09615385,,,,,,,,,,,,,,49,diebro,,,,,,500.32,501.286,0,1,0.428,,0,90,90,48,1,pseudoword,0,REAL,FALSA
,,,,,,,,,654bb50c72b2f304d47bfdab,001,2024-06-03_06h45.14.850,empathy_intonation_perc,2024.1.4,Win32,60.09615385,,,,,,,,,,,,,,54,barbo,,,,,,501.288,502.188,1,0,0.372,,0,91,91,53,1,pseudoword,0,REAL,FALSA
,,,,,,,,,654bb50c72b2f304d47bfdab,001,2024-06-03_06h45.14.850,empathy_intonation_perc,2024.1.4,Win32,60.09615385,,,,,,,,,,,,,,4,chip,,,,,,502.192,503.101,1,0,0.39,,0,92,92,3,1,three_way_cognate,1,REAL,FALSA
,,,,,,,,,654bb50c72b2f304d47bfdab,001,2024-06-03_06h45.14.850,empathy_intonation_perc,2024.1.4,Win32,60.09615385,,,,,,,,,,,,,,14,clamor,,,,,,503.102,503.978,1,0,0.346,,0,93,93,13,1,two_way_cognate,1,REAL,FALSA
,,,,,,,,,654bb50c72b2f304d47bfdab,001,2024-06-03_06h45.14.850,empathy_intonation_perc,2024.1.4,Win32,60.09615385,,,,,,,,,,,,,,72,diguán,,,,,,503.981,504.997,1,0,0.498,,0,94,94,71,1,pseudoword,0,REAL,FALSA
,,,,,,,,,654bb50c72b2f304d47bfdab,001,2024-06-03_06h45.14.850,empathy_intonation_perc,2024.1.4,Win32,60.09615385,,,,,,,,,,,,,,28,debido,,,,,,504.998,505.878,1,0,0.363,,0,95,95,27,1,non_cognate,1,REAL,FALSA
