lextale_instructions.started,lextale_instructions.stopped,lextale_instructions_loop.thisRepN,lextale_instructions_loop.thisTrialN,lextale_instructions_loop.thisN,lextale_instructions_loop.thisIndex,lextale_instructions_loop.ran,instructions_text,continue_text,participant,session,date,expName,psychopyVersion,OS,frameRate,lextale_practice.started,lextale_practice.stopped,key_resp_lextale_practice.keys,key_resp_lextale_practice.corr,key_resp_lextale_practice.rt,key_resp_lextale_practice.duration,lextale_practice_feedback.started,lextale_practice_feedback.stopped,lextale_practice_trials.thisRepN,lextale_practice_trials.thisTrialN,lextale_practice_trials.thisN,lextale_practice_trials.thisIndex,lextale_practice_trials.ran,stim,word,correct_response,prac_button_real,prac_button_false,lextale_check.started,lextale_check.stopped,lextale_trial.started,lextale_trial.stopped,key_resp_lextale_trial.keys,key_resp_lextale_trial.corr,key_resp_lextale_trial.rt,key_resp_lextale_trial.duration,lextail_trials.thisRepN,lextail_trials.thisTrialN,lextail_trials.thisN,lextail_trials.thisIndex,lextail_trials.ran,type,correct_reponse,button_real,button_false
0.0088,9.0318,0,0,0,0,1,"Este es un test de vocabulario en español. 
  
  A continuación vas a ver 90 secuencias de letras que parecen 'españolas'.
  
  Solo algunas de ellas son palabras de verdad.",(presiona la barra espaciadora para continuar),65b7df79bd16de5cd6a3a12b,001,2024-06-02_07h43.51.518,empathy_intonation_perc,2024.1.4,Linux x86_64,60.24096386,,,,,,,,,,,,,,,,,,,,,,,,,,,,,,,,,,,
9.0328,33.368,0,1,1,1,1,"Por favor, señala las palabras que tú conoces (aquellas que estás convencido que son palabras españolas, incluso aunque no seas capaz de dar el significado preciso).",(presiona la barra espaciadora para continuar),65b7df79bd16de5cd6a3a12b,001,2024-06-02_07h43.51.518,empathy_intonation_perc,2024.1.4,Linux x86_64,60.24096386,,,,,,,,,,,,,,,,,,,,,,,,,,,,,,,,,,,
33.3686,42.1416,0,2,2,2,1,Pero cuidado: los errores se penalizan. Por eso no tiene sentido tratar de incrementar tu puntuación marcando como reales palabras que nunca has visto.,(presiona la barra espaciadora para continuar),65b7df79bd16de5cd6a3a12b,001,2024-06-02_07h43.51.518,empathy_intonation_perc,2024.1.4,Linux x86_64,60.24096386,,,,,,,,,,,,,,,,,,,,,,,,,,,,,,,,,,,
42.1421,50.1145,0,3,3,3,1,"Presiona la tecla 1 si piensas que es una palabra real y la tecla 
  0 si piensas que es una palabra falsa. 
  
  Vamos a practicar un poco...",(presiona la barra espaciadora para continuar),65b7df79bd16de5cd6a3a12b,001,2024-06-02_07h43.51.518,empathy_intonation_perc,2024.1.4,Linux x86_64,60.24096386,,,,,,,,,,,,,,,,,,,,,,,,,,,,,,,,,,,
,,,,,,,,,65b7df79bd16de5cd6a3a12b,001,2024-06-02_07h43.51.518,empathy_intonation_perc,2024.1.4,Linux x86_64,60.24096386,50.1219,52.9453,0,1,2.2965,,52.9551,53.9343,0,0,0,0,1,0,depiste,0,REAL,FALSA,,,,,,,,,,,,,,,,,
,,,,,,,,,65b7df79bd16de5cd6a3a12b,001,2024-06-02_07h43.51.518,empathy_intonation_perc,2024.1.4,Linux x86_64,60.24096386,53.935,55.791,1,1,1.3202,,55.791,56.7898,0,1,1,1,1,0,sí,1,REAL,FALSA,,,,,,,,,,,,,,,,,
,,,,,,,,,65b7df79bd16de5cd6a3a12b,001,2024-06-02_07h43.51.518,empathy_intonation_perc,2024.1.4,Linux x86_64,60.24096386,56.8002,59.6361,1,0,2.2986,,59.6362,60.6351,0,2,2,2,1,0,coné,0,REAL,FALSA,,,,,,,,,,,,,,,,,
,,,,,,,,,65b7df79bd16de5cd6a3a12b,001,2024-06-02_07h43.51.518,empathy_intonation_perc,2024.1.4,Linux x86_64,60.24096386,60.6355,63.5146,1,0,2.3513,,63.5147,64.5135,0,3,3,3,1,0,calpar,0,REAL,FALSA,,,,,,,,,,,,,,,,,
,,,,,,,,,65b7df79bd16de5cd6a3a12b,001,2024-06-02_07h43.51.518,empathy_intonation_perc,2024.1.4,Linux x86_64,60.24096386,64.524,66.7022,0,1,1.6483,,66.7023,67.6971,0,4,4,4,1,0,joten,0,REAL,FALSA,,,,,,,,,,,,,,,,,
,,,,,,,,,65b7df79bd16de5cd6a3a12b,001,2024-06-02_07h43.51.518,empathy_intonation_perc,2024.1.4,Linux x86_64,60.24096386,67.7074,69.2321,1,1,1.0131,,69.2324,70.2239,0,5,5,5,1,0,sacapuntas,1,REAL,FALSA,,,,,,,,,,,,,,,,,
,,,,,,,,,65b7df79bd16de5cd6a3a12b,001,2024-06-02_07h43.51.518,empathy_intonation_perc,2024.1.4,Linux x86_64,60.24096386,70.2245,72.1212,0,1,1.3659,,72.1214,73.1199,0,6,6,6,1,0,priba,0,REAL,FALSA,,,,,,,,,,,,,,,,,
,,,,,,,,,65b7df79bd16de5cd6a3a12b,001,2024-06-02_07h43.51.518,empathy_intonation_perc,2024.1.4,Linux x86_64,60.24096386,73.1311,75.7001,0,1,2.047,,75.7002,76.6987,0,7,7,7,1,0,pelasula,0,REAL,FALSA,,,,,,,,,,,,,,,,,
,,,,,,,,,65b7df79bd16de5cd6a3a12b,001,2024-06-02_07h43.51.518,empathy_intonation_perc,2024.1.4,Linux x86_64,60.24096386,76.6993,77.8639,1,1,0.6355,,77.864,78.8627,0,8,8,8,1,0,bien,1,REAL,FALSA,,,,,,,,,,,,,,,,,
,,,,,,,,,65b7df79bd16de5cd6a3a12b,001,2024-06-02_07h43.51.518,empathy_intonation_perc,2024.1.4,Linux x86_64,60.24096386,78.8738,80.0116,1,1,0.6004,,80.012,81.0105,0,9,9,9,1,0,casa,1,REAL,FALSA,,,,,,,,,,,,,,,,,
,,,,,,,,,65b7df79bd16de5cd6a3a12b,001,2024-06-02_07h43.51.518,empathy_intonation_perc,2024.1.4,Linux x86_64,60.24096386,81.0113,82.4416,1,0,0.9017,,82.4416,83.4408,0,10,10,10,1,0,lejo,0,REAL,FALSA,,,,,,,,,,,,,,,,,
,,,,,,,,,65b7df79bd16de5cd6a3a12b,001,2024-06-02_07h43.51.518,empathy_intonation_perc,2024.1.4,Linux x86_64,60.24096386,83.4413,85.2215,0,1,1.2488,,85.2216,86.2102,0,11,11,11,1,0,pretantas,0,REAL,FALSA,,,,,,,,,,,,,,,,,
,,,,,,,,,65b7df79bd16de5cd6a3a12b,001,2024-06-02_07h43.51.518,empathy_intonation_perc,2024.1.4,Linux x86_64,60.24096386,,,,,,,,,,,,,,,,,,,86.2132,87.469,,,,,,,,,,,,,,,
,,,,,,,,,65b7df79bd16de5cd6a3a12b,001,2024-06-02_07h43.51.518,empathy_intonation_perc,2024.1.4,Linux x86_64,60.24096386,,,,,,,,,,,,,,12,bar,,,,,,87.4966,89.267,1,0,1.2488,,0,0,0,11,1,three_way_cognate,1,REAL,FALSA
,,,,,,,,,65b7df79bd16de5cd6a3a12b,001,2024-06-02_07h43.51.518,empathy_intonation_perc,2024.1.4,Linux x86_64,60.24096386,,,,,,,,,,,,,,4,chip,,,,,,89.2677,91.0483,1,0,1.2481,,0,1,1,3,1,three_way_cognate,1,REAL,FALSA
,,,,,,,,,65b7df79bd16de5cd6a3a12b,001,2024-06-02_07h43.51.518,empathy_intonation_perc,2024.1.4,Linux x86_64,60.24096386,,,,,,,,,,,,,,55,ropis,,,,,,91.0488,92.6143,0,1,1.0278,,0,2,2,54,1,pseudoword,0,REAL,FALSA
,,,,,,,,,65b7df79bd16de5cd6a3a12b,001,2024-06-02_07h43.51.518,empathy_intonation_perc,2024.1.4,Linux x86_64,60.24096386,,,,,,,,,,,,,,61,trip,,,,,,92.6147,94.2942,0,1,1.1462,,0,3,3,60,1,pseudoword,0,REAL,FALSA
,,,,,,,,,65b7df79bd16de5cd6a3a12b,001,2024-06-02_07h43.51.518,empathy_intonation_perc,2024.1.4,Linux x86_64,60.24096386,,,,,,,,,,,,,,56,qucrá,,,,,,94.2945,96.2419,0,1,1.4126,,0,4,4,55,1,pseudoword,0,REAL,FALSA
,,,,,,,,,65b7df79bd16de5cd6a3a12b,001,2024-06-02_07h43.51.518,empathy_intonation_perc,2024.1.4,Linux x86_64,60.24096386,,,,,,,,,,,,,,44,llamar,,,,,,96.2424,97.3749,1,0,0.5951,,0,5,5,43,1,non_cognate,1,REAL,FALSA
,,,,,,,,,65b7df79bd16de5cd6a3a12b,001,2024-06-02_07h43.51.518,empathy_intonation_perc,2024.1.4,Linux x86_64,60.24096386,,,,,,,,,,,,,,73,meolar,,,,,,97.3755,99.8374,0,1,1.9334,,0,6,6,72,1,pseudoword,0,REAL,FALSA
,,,,,,,,,65b7df79bd16de5cd6a3a12b,001,2024-06-02_07h43.51.518,empathy_intonation_perc,2024.1.4,Linux x86_64,60.24096386,,,,,,,,,,,,,,5,fauna,,,,,,99.8379,101.3034,1,0,0.9392,,0,7,7,4,1,three_way_cognate,1,REAL,FALSA
,,,,,,,,,65b7df79bd16de5cd6a3a12b,001,2024-06-02_07h43.51.518,empathy_intonation_perc,2024.1.4,Linux x86_64,60.24096386,,,,,,,,,,,,,,8,solar,,,,,,101.304,102.7835,1,0,0.9558,,0,8,8,7,1,three_way_cognate,1,REAL,FALSA
,,,,,,,,,65b7df79bd16de5cd6a3a12b,001,2024-06-02_07h43.51.518,empathy_intonation_perc,2024.1.4,Linux x86_64,60.24096386,,,,,,,,,,,,,,36,visión,,,,,,102.7841,104.099,1,0,0.787,,0,9,9,35,1,non_cognate,1,REAL,FALSA
,,,,,,,,,65b7df79bd16de5cd6a3a12b,001,2024-06-02_07h43.51.518,empathy_intonation_perc,2024.1.4,Linux x86_64,60.24096386,,,,,,,,,,,,,,95,aclaya,,,,,,104.0995,105.6135,0,1,0.9837,,0,10,10,94,1,pseudoword,0,REAL,FALSA
,,,,,,,,,65b7df79bd16de5cd6a3a12b,001,2024-06-02_07h43.51.518,empathy_intonation_perc,2024.1.4,Linux x86_64,60.24096386,,,,,,,,,,,,,,65,edidé,,,,,,105.614,107.5111,0,1,1.3659,,0,11,11,64,1,pseudoword,0,REAL,FALSA
,,,,,,,,,65b7df79bd16de5cd6a3a12b,001,2024-06-02_07h43.51.518,empathy_intonation_perc,2024.1.4,Linux x86_64,60.24096386,,,,,,,,,,,,,,76,orida,,,,,,107.5116,109.1425,1,0,1.1042,,0,12,12,75,1,pseudoword,0,REAL,FALSA
,,,,,,,,,65b7df79bd16de5cd6a3a12b,001,2024-06-02_07h43.51.518,empathy_intonation_perc,2024.1.4,Linux x86_64,60.24096386,,,,,,,,,,,,,,62,sujo,,,,,,109.1432,110.6409,1,0,0.9645,,0,13,13,61,1,pseudoword,0,REAL,FALSA
,,,,,,,,,65b7df79bd16de5cd6a3a12b,001,2024-06-02_07h43.51.518,empathy_intonation_perc,2024.1.4,Linux x86_64,60.24096386,,,,,,,,,,,,,,77,toges,,,,,,110.6416,112.5884,0,1,1.4134,,0,14,14,76,1,pseudoword,0,REAL,FALSA
,,,,,,,,,65b7df79bd16de5cd6a3a12b,001,2024-06-02_07h43.51.518,empathy_intonation_perc,2024.1.4,Linux x86_64,60.24096386,,,,,,,,,,,,,,66,clazas,,,,,,112.5889,115.1354,0,1,2.0191,,0,15,15,65,1,pseudoword,0,REAL,FALSA
,,,,,,,,,65b7df79bd16de5cd6a3a12b,001,2024-06-02_07h43.51.518,empathy_intonation_perc,2024.1.4,Linux x86_64,60.24096386,,,,,,,,,,,,,,37,delito,,,,,,115.1456,116.8165,1,0,1.1439,,0,16,16,36,1,non_cognate,1,REAL,FALSA
,,,,,,,,,65b7df79bd16de5cd6a3a12b,001,2024-06-02_07h43.51.518,empathy_intonation_perc,2024.1.4,Linux x86_64,60.24096386,,,,,,,,,,,,,,18,honor,,,,,,116.817,117.9485,1,0,0.5964,,0,17,17,17,1,two_way_cognate,1,REAL,FALSA
,,,,,,,,,65b7df79bd16de5cd6a3a12b,001,2024-06-02_07h43.51.518,empathy_intonation_perc,2024.1.4,Linux x86_64,60.24096386,,,,,,,,,,,,,,29,cesta,,,,,,117.949,119.2471,0,1,0.7656,,0,18,18,28,1,non_cognate,1,REAL,FALSA
,,,,,,,,,65b7df79bd16de5cd6a3a12b,001,2024-06-02_07h43.51.518,empathy_intonation_perc,2024.1.4,Linux x86_64,60.24096386,,,,,,,,,,,,,,20,total,,,,,,119.2477,120.33,1,0,0.5591,,0,19,19,19,1,two_way_cognate,1,REAL,FALSA
,,,,,,,,,65b7df79bd16de5cd6a3a12b,001,2024-06-02_07h43.51.518,empathy_intonation_perc,2024.1.4,Linux x86_64,60.24096386,,,,,,,,,,,,,,23,editor,,,,,,120.3305,124.0911,1,0,3.2343,,0,20,20,22,1,two_way_cognate,1,REAL,FALSA
,,,,,,,,,65b7df79bd16de5cd6a3a12b,001,2024-06-02_07h43.51.518,empathy_intonation_perc,2024.1.4,Linux x86_64,60.24096386,,,,,,,,,,,,,,25,exigir,,,,,,124.102,125.5059,1,0,0.886,,0,21,21,24,1,non_cognate,1,REAL,FALSA
,,,,,,,,,65b7df79bd16de5cd6a3a12b,001,2024-06-02_07h43.51.518,empathy_intonation_perc,2024.1.4,Linux x86_64,60.24096386,,,,,,,,,,,,,,80,suelet,,,,,,125.5065,127.2874,0,1,1.233,,0,22,22,79,1,pseudoword,0,REAL,FALSA
,,,,,,,,,65b7df79bd16de5cd6a3a12b,001,2024-06-02_07h43.51.518,empathy_intonation_perc,2024.1.4,Linux x86_64,60.24096386,,,,,,,,,,,,,,79,filte,,,,,,127.288,129.3516,0,1,1.5184,,0,23,23,78,1,pseudoword,0,REAL,FALSA
,,,,,,,,,65b7df79bd16de5cd6a3a12b,001,2024-06-02_07h43.51.518,empathy_intonation_perc,2024.1.4,Linux x86_64,60.24096386,,,,,,,,,,,,,,17,enigma,,,,,,129.3522,131.1235,1,0,1.2567,,0,24,24,16,1,two_way_cognate,1,REAL,FALSA
,,,,,,,,,65b7df79bd16de5cd6a3a12b,001,2024-06-02_07h43.51.518,empathy_intonation_perc,2024.1.4,Linux x86_64,60.24096386,,,,,,,,,,,,,,89,barezo,,,,,,131.1239,132.5143,0,1,0.8704,,0,25,25,88,1,pseudoword,0,REAL,FALSA
,,,,,,,,,65b7df79bd16de5cd6a3a12b,001,2024-06-02_07h43.51.518,empathy_intonation_perc,2024.1.4,Linux x86_64,60.24096386,,,,,,,,,,,,,,85,tutaba,,,,,,132.5148,134.4368,0,1,1.3818,,0,26,26,84,1,pseudoword,0,REAL,FALSA
,,,,,,,,,65b7df79bd16de5cd6a3a12b,001,2024-06-02_07h43.51.518,empathy_intonation_perc,2024.1.4,Linux x86_64,60.24096386,,,,,,,,,,,,,,21,casual,,,,,,134.4374,135.7441,1,0,0.7843,,0,27,27,20,1,two_way_cognate,1,REAL,FALSA
,,,,,,,,,65b7df79bd16de5cd6a3a12b,001,2024-06-02_07h43.51.518,empathy_intonation_perc,2024.1.4,Linux x86_64,60.24096386,,,,,,,,,,,,,,38,trenza,,,,,,135.7451,137.1091,0,1,0.8441,,0,28,28,37,1,non_cognate,1,REAL,FALSA
,,,,,,,,,65b7df79bd16de5cd6a3a12b,001,2024-06-02_07h43.51.518,empathy_intonation_perc,2024.1.4,Linux x86_64,60.24096386,,,,,,,,,,,,,,59,mandio,,,,,,137.1101,140.4549,0,1,2.7987,,0,29,29,58,1,pseudoword,0,REAL,FALSA
,,,,,,,,,65b7df79bd16de5cd6a3a12b,001,2024-06-02_07h43.51.518,empathy_intonation_perc,2024.1.4,Linux x86_64,60.24096386,,,,,,,,,,,,,,41,salto,,,,,,140.4556,142.462,1,0,1.4667,,0,30,30,40,1,non_cognate,1,REAL,FALSA
,,,,,,,,,65b7df79bd16de5cd6a3a12b,001,2024-06-02_07h43.51.518,empathy_intonation_perc,2024.1.4,Linux x86_64,60.24096386,,,,,,,,,,,,,,46,cumbre,,,,,,142.4624,144.3434,0,1,1.3494,,0,31,31,45,1,non_cognate,1,REAL,FALSA
,,,,,,,,,65b7df79bd16de5cd6a3a12b,001,2024-06-02_07h43.51.518,empathy_intonation_perc,2024.1.4,Linux x86_64,60.24096386,,,,,,,,,,,,,,14,clamor,,,,,,144.3439,147.2636,1,0,2.3824,,0,32,32,13,1,two_way_cognate,1,REAL,FALSA
,,,,,,,,,65b7df79bd16de5cd6a3a12b,001,2024-06-02_07h43.51.518,empathy_intonation_perc,2024.1.4,Linux x86_64,60.24096386,,,,,,,,,,,,,,19,pelvis,,,,,,147.2751,148.5954,0,1,0.8047,,0,33,33,18,1,two_way_cognate,1,REAL,FALSA
,,,,,,,,,65b7df79bd16de5cd6a3a12b,001,2024-06-02_07h43.51.518,empathy_intonation_perc,2024.1.4,Linux x86_64,60.24096386,,,,,,,,,,,,,,53,samón,,,,,,148.5969,150.7754,0,1,1.6444,,0,34,34,52,1,pseudoword,0,REAL,FALSA
,,,,,,,,,65b7df79bd16de5cd6a3a12b,001,2024-06-02_07h43.51.518,empathy_intonation_perc,2024.1.4,Linux x86_64,60.24096386,,,,,,,,,,,,,,72,diguán,,,,,,150.776,152.7067,0,1,1.4067,,0,35,35,71,1,pseudoword,0,REAL,FALSA
,,,,,,,,,65b7df79bd16de5cd6a3a12b,001,2024-06-02_07h43.51.518,empathy_intonation_perc,2024.1.4,Linux x86_64,60.24096386,,,,,,,,,,,,,,22,pasta,,,,,,152.7072,153.8384,1,0,0.5952,,0,36,36,21,1,two_way_cognate,1,REAL,FALSA
,,,,,,,,,65b7df79bd16de5cd6a3a12b,001,2024-06-02_07h43.51.518,empathy_intonation_perc,2024.1.4,Linux x86_64,60.24096386,,,,,,,,,,,,,,63,aljizo,,,,,,153.8388,156.3023,0,1,1.9326,,0,37,37,62,1,pseudoword,0,REAL,FALSA
,,,,,,,,,65b7df79bd16de5cd6a3a12b,001,2024-06-02_07h43.51.518,empathy_intonation_perc,2024.1.4,Linux x86_64,60.24096386,,,,,,,,,,,,,,16,animal,,,,,,156.3029,157.4009,1,0,0.566,,0,38,38,15,1,two_way_cognate,1,REAL,FALSA
,,,,,,,,,65b7df79bd16de5cd6a3a12b,001,2024-06-02_07h43.51.518,empathy_intonation_perc,2024.1.4,Linux x86_64,60.24096386,,,,,,,,,,,,,,28,debido,,,,,,157.4016,158.8325,1,0,0.9004,,0,39,39,27,1,non_cognate,1,REAL,FALSA
,,,,,,,,,65b7df79bd16de5cd6a3a12b,001,2024-06-02_07h43.51.518,empathy_intonation_perc,2024.1.4,Linux x86_64,60.24096386,,,,,,,,,,,,,,6,horror,,,,,,158.833,159.9644,1,0,0.6009,,0,40,40,5,1,three_way_cognate,1,REAL,FALSA
,,,,,,,,,65b7df79bd16de5cd6a3a12b,001,2024-06-02_07h43.51.518,empathy_intonation_perc,2024.1.4,Linux x86_64,60.24096386,,,,,,,,,,,,,,83,monsos,,,,,,159.9649,161.2794,0,1,0.7768,,0,41,41,82,1,pseudoword,0,REAL,FALSA
,,,,,,,,,65b7df79bd16de5cd6a3a12b,001,2024-06-02_07h43.51.518,empathy_intonation_perc,2024.1.4,Linux x86_64,60.24096386,,,,,,,,,,,,,,10,tango,,,,,,161.28,162.5279,1,0,0.7146,,0,42,42,9,1,three_way_cognate,1,REAL,FALSA
,,,,,,,,,65b7df79bd16de5cd6a3a12b,001,2024-06-02_07h43.51.518,empathy_intonation_perc,2024.1.4,Linux x86_64,60.24096386,,,,,,,,,,,,,,64,altimo,,,,,,162.5291,164.4255,0,1,1.3645,,0,43,43,63,1,pseudoword,0,REAL,FALSA
,,,,,,,,,65b7df79bd16de5cd6a3a12b,001,2024-06-02_07h43.51.518,empathy_intonation_perc,2024.1.4,Linux x86_64,60.24096386,,,,,,,,,,,,,,92,nasce,,,,,,164.426,165.7239,0,1,0.7691,,0,44,44,91,1,pseudoword,0,REAL,FALSA
,,,,,,,,,65b7df79bd16de5cd6a3a12b,001,2024-06-02_07h43.51.518,empathy_intonation_perc,2024.1.4,Linux x86_64,60.24096386,,,,,,,,,,,,,,42,premio,,,,,,165.7243,167.2395,1,0,0.9784,,0,45,45,41,1,non_cognate,1,REAL,FALSA
,,,,,,,,,65b7df79bd16de5cd6a3a12b,001,2024-06-02_07h43.51.518,empathy_intonation_perc,2024.1.4,Linux x86_64,60.24096386,,,,,,,,,,,,,,81,rombar,,,,,,167.2416,169.1534,0,1,1.3791,,0,46,46,80,1,pseudoword,0,REAL,FALSA
,,,,,,,,,65b7df79bd16de5cd6a3a12b,001,2024-06-02_07h43.51.518,empathy_intonation_perc,2024.1.4,Linux x86_64,60.24096386,,,,,,,,,,,,,,93,caemal,,,,,,169.1538,170.7347,0,1,1.056,,0,47,47,92,1,pseudoword,0,REAL,FALSA
,,,,,,,,,65b7df79bd16de5cd6a3a12b,001,2024-06-02_07h43.51.518,empathy_intonation_perc,2024.1.4,Linux x86_64,60.24096386,,,,,,,,,,,,,,31,campo,,,,,,170.7352,172.0337,1,0,0.7611,,0,48,48,30,1,non_cognate,1,REAL,FALSA
,,,,,,,,,65b7df79bd16de5cd6a3a12b,001,2024-06-02_07h43.51.518,empathy_intonation_perc,2024.1.4,Linux x86_64,60.24096386,,,,,,,,,,,,,,27,pelado,,,,,,172.0342,175.6784,0,1,3.1168,,0,49,49,26,1,non_cognate,1,REAL,FALSA
,,,,,,,,,65b7df79bd16de5cd6a3a12b,001,2024-06-02_07h43.51.518,empathy_intonation_perc,2024.1.4,Linux x86_64,60.24096386,,,,,,,,,,,,,,60,debada,,,,,,175.6887,176.894,0,1,0.6842,,0,50,50,59,1,pseudoword,0,REAL,FALSA
,,,,,,,,,65b7df79bd16de5cd6a3a12b,001,2024-06-02_07h43.51.518,empathy_intonation_perc,2024.1.4,Linux x86_64,60.24096386,,,,,,,,,,,,,,74,mibro,,,,,,176.8945,178.0425,0,1,0.6201,,0,51,51,73,1,pseudoword,0,REAL,FALSA
,,,,,,,,,65b7df79bd16de5cd6a3a12b,001,2024-06-02_07h43.51.518,empathy_intonation_perc,2024.1.4,Linux x86_64,60.24096386,,,,,,,,,,,,,,84,jomas,,,,,,178.0429,179.4738,0,1,0.897,,0,52,52,83,1,pseudoword,0,REAL,FALSA
,,,,,,,,,65b7df79bd16de5cd6a3a12b,001,2024-06-02_07h43.51.518,empathy_intonation_perc,2024.1.4,Linux x86_64,60.24096386,,,,,,,,,,,,,,48,taza,,,,,,179.4742,180.7397,1,0,0.7303,,0,53,53,47,1,non_cognate,1,REAL,FALSA
,,,,,,,,,65b7df79bd16de5cd6a3a12b,001,2024-06-02_07h43.51.518,empathy_intonation_perc,2024.1.4,Linux x86_64,60.24096386,,,,,,,,,,,,,,24,civil,,,,,,180.7401,181.821,1,0,0.5482,,0,54,54,23,1,two_way_cognate,1,REAL,FALSA
,,,,,,,,,65b7df79bd16de5cd6a3a12b,001,2024-06-02_07h43.51.518,empathy_intonation_perc,2024.1.4,Linux x86_64,60.24096386,,,,,,,,,,,,,,54,barbo,,,,,,181.8214,183.8519,0,1,1.4974,,0,55,55,53,1,pseudoword,0,REAL,FALSA
,,,,,,,,,65b7df79bd16de5cd6a3a12b,001,2024-06-02_07h43.51.518,empathy_intonation_perc,2024.1.4,Linux x86_64,60.24096386,,,,,,,,,,,,,,11,sauna,,,,,,183.8524,185.3173,1,0,0.9357,,0,56,56,10,1,three_way_cognate,1,REAL,FALSA
,,,,,,,,,65b7df79bd16de5cd6a3a12b,001,2024-06-02_07h43.51.518,empathy_intonation_perc,2024.1.4,Linux x86_64,60.24096386,,,,,,,,,,,,,,78,alzán,,,,,,185.3178,186.8151,0,1,0.9654,,0,57,57,77,1,pseudoword,0,REAL,FALSA
,,,,,,,,,65b7df79bd16de5cd6a3a12b,001,2024-06-02_07h43.51.518,empathy_intonation_perc,2024.1.4,Linux x86_64,60.24096386,,,,,,,,,,,,,,86,abamos,,,,,,186.8156,189.0144,0,1,1.6738,,0,58,58,85,1,pseudoword,0,REAL,FALSA
,,,,,,,,,65b7df79bd16de5cd6a3a12b,001,2024-06-02_07h43.51.518,empathy_intonation_perc,2024.1.4,Linux x86_64,60.24096386,,,,,,,,,,,,,,40,cuento,,,,,,189.0155,190.1776,1,0,0.6344,,0,59,59,39,1,non_cognate,1,REAL,FALSA
,,,,,,,,,65b7df79bd16de5cd6a3a12b,001,2024-06-02_07h43.51.518,empathy_intonation_perc,2024.1.4,Linux x86_64,60.24096386,,,,,,,,,,,,,,47,alivio,,,,,,190.1782,191.4762,0,1,0.7677,,0,60,60,46,1,non_cognate,1,REAL,FALSA
,,,,,,,,,65b7df79bd16de5cd6a3a12b,001,2024-06-02_07h43.51.518,empathy_intonation_perc,2024.1.4,Linux x86_64,60.24096386,,,,,,,,,,,,,,9,limbo,,,,,,191.4768,193.1586,1,0,1.1417,,0,61,61,8,1,three_way_cognate,1,REAL,FALSA
,,,,,,,,,65b7df79bd16de5cd6a3a12b,001,2024-06-02_07h43.51.518,empathy_intonation_perc,2024.1.4,Linux x86_64,60.24096386,,,,,,,,,,,,,,15,actor,,,,,,193.1592,194.656,1,0,0.9695,,0,62,62,14,1,two_way_cognate,1,REAL,FALSA
,,,,,,,,,65b7df79bd16de5cd6a3a12b,001,2024-06-02_07h43.51.518,empathy_intonation_perc,2024.1.4,Linux x86_64,60.24096386,,,,,,,,,,,,,,30,llamar,,,,,,194.6565,195.7547,1,0,0.5725,,0,63,63,29,1,non_cognate,1,REAL,FALSA
,,,,,,,,,65b7df79bd16de5cd6a3a12b,001,2024-06-02_07h43.51.518,empathy_intonation_perc,2024.1.4,Linux x86_64,60.24096386,,,,,,,,,,,,,,57,calto,,,,,,195.7553,197.8684,0,1,1.5814,,0,64,64,56,1,pseudoword,0,REAL,FALSA
,,,,,,,,,65b7df79bd16de5cd6a3a12b,001,2024-06-02_07h43.51.518,empathy_intonation_perc,2024.1.4,Linux x86_64,60.24096386,,,,,,,,,,,,,,35,pájaro,,,,,,197.8692,199.4166,1,0,1.0158,,0,65,65,34,1,non_cognate,1,REAL,FALSA
,,,,,,,,,65b7df79bd16de5cd6a3a12b,001,2024-06-02_07h43.51.518,empathy_intonation_perc,2024.1.4,Linux x86_64,60.24096386,,,,,,,,,,,,,,96,brigan,,,,,,199.4171,200.8485,0,1,0.8875,,0,66,66,95,1,pseudoword,0,REAL,FALSA
,,,,,,,,,65b7df79bd16de5cd6a3a12b,001,2024-06-02_07h43.51.518,empathy_intonation_perc,2024.1.4,Linux x86_64,60.24096386,,,,,,,,,,,,,,75,babrá,,,,,,200.8491,202.4463,1,0,1.0657,,0,67,67,74,1,pseudoword,0,REAL,FALSA
,,,,,,,,,65b7df79bd16de5cd6a3a12b,001,2024-06-02_07h43.51.518,empathy_intonation_perc,2024.1.4,Linux x86_64,60.24096386,,,,,,,,,,,,,,3,bingo,,,,,,202.4475,205.642,0,1,2.6695,,0,68,68,2,1,three_way_cognate,1,REAL,FALSA
,,,,,,,,,65b7df79bd16de5cd6a3a12b,001,2024-06-02_07h43.51.518,empathy_intonation_perc,2024.1.4,Linux x86_64,60.24096386,,,,,,,,,,,,,,91,chote,,,,,,205.6528,207.6732,0,1,1.4989,,0,69,69,90,1,pseudoword,0,REAL,FALSA
,,,,,,,,,65b7df79bd16de5cd6a3a12b,001,2024-06-02_07h43.51.518,empathy_intonation_perc,2024.1.4,Linux x86_64,60.24096386,,,,,,,,,,,,,,68,hurmo,,,,,,207.6737,209.1881,0,1,0.9843,,0,70,70,67,1,pseudoword,0,REAL,FALSA
,,,,,,,,,65b7df79bd16de5cd6a3a12b,001,2024-06-02_07h43.51.518,empathy_intonation_perc,2024.1.4,Linux x86_64,60.24096386,,,,,,,,,,,,,,32,caro,,,,,,209.1886,210.37,1,0,0.6428,,0,71,71,31,1,non_cognate,1,REAL,FALSA
,,,,,,,,,65b7df79bd16de5cd6a3a12b,001,2024-06-02_07h43.51.518,empathy_intonation_perc,2024.1.4,Linux x86_64,60.24096386,,,,,,,,,,,,,,87,racaer,,,,,,210.3703,212.0513,0,1,1.1439,,0,72,72,86,1,pseudoword,0,REAL,FALSA
,,,,,,,,,65b7df79bd16de5cd6a3a12b,001,2024-06-02_07h43.51.518,empathy_intonation_perc,2024.1.4,Linux x86_64,60.24096386,,,,,,,,,,,,,,82,alla,,,,,,212.0517,214.0058,1,0,1.4195,,0,73,73,81,1,pseudoword,0,REAL,FALSA
,,,,,,,,,65b7df79bd16de5cd6a3a12b,001,2024-06-02_07h43.51.518,empathy_intonation_perc,2024.1.4,Linux x86_64,60.24096386,,,,,,,,,,,,,,52,coriar,,,,,,214.0063,216.0464,0,1,1.511,,0,74,74,51,1,pseudoword,0,REAL,FALSA
,,,,,,,,,65b7df79bd16de5cd6a3a12b,001,2024-06-02_07h43.51.518,empathy_intonation_perc,2024.1.4,Linux x86_64,60.24096386,,,,,,,,,,,,,,34,sermón,,,,,,216.0473,217.8774,1,0,1.2999,,0,75,75,33,1,non_cognate,1,REAL,FALSA
,,,,,,,,,65b7df79bd16de5cd6a3a12b,001,2024-06-02_07h43.51.518,empathy_intonation_perc,2024.1.4,Linux x86_64,60.24096386,,,,,,,,,,,,,,7,retina,,,,,,217.8779,220.0584,1,0,1.6467,,0,76,76,6,1,three_way_cognate,1,REAL,FALSA
,,,,,,,,,65b7df79bd16de5cd6a3a12b,001,2024-06-02_07h43.51.518,empathy_intonation_perc,2024.1.4,Linux x86_64,60.24096386,,,,,,,,,,,,,,49,diebro,,,,,,220.0589,221.4402,0,1,0.8365,,0,77,77,48,1,pseudoword,0,REAL,FALSA
,,,,,,,,,65b7df79bd16de5cd6a3a12b,001,2024-06-02_07h43.51.518,empathy_intonation_perc,2024.1.4,Linux x86_64,60.24096386,,,,,,,,,,,,,,50,suaja,,,,,,221.4407,222.9879,0,1,1.0197,,0,78,78,49,1,pseudoword,0,REAL,FALSA
,,,,,,,,,65b7df79bd16de5cd6a3a12b,001,2024-06-02_07h43.51.518,empathy_intonation_perc,2024.1.4,Linux x86_64,60.24096386,,,,,,,,,,,,,,2,clan,,,,,,222.9884,224.9524,0,1,1.4363,,0,79,79,1,1,three_way_cognate,1,REAL,FALSA
,,,,,,,,,65b7df79bd16de5cd6a3a12b,001,2024-06-02_07h43.51.518,empathy_intonation_perc,2024.1.4,Linux x86_64,60.24096386,,,,,,,,,,,,,,45,viga,,,,,,224.953,226.4017,0,1,0.9262,,0,80,80,44,1,non_cognate,1,REAL,FALSA
,,,,,,,,,65b7df79bd16de5cd6a3a12b,001,2024-06-02_07h43.51.518,empathy_intonation_perc,2024.1.4,Linux x86_64,60.24096386,,,,,,,,,,,,,,94,bomos,,,,,,226.4022,228.0987,0,1,1.168,,0,81,81,93,1,pseudoword,0,REAL,FALSA
,,,,,,,,,65b7df79bd16de5cd6a3a12b,001,2024-06-02_07h43.51.518,empathy_intonation_perc,2024.1.4,Linux x86_64,60.24096386,,,,,,,,,,,,,,88,hento,,,,,,228.0991,229.3969,0,1,0.7646,,0,82,82,87,1,pseudoword,0,REAL,FALSA
,,,,,,,,,65b7df79bd16de5cd6a3a12b,001,2024-06-02_07h43.51.518,empathy_intonation_perc,2024.1.4,Linux x86_64,60.24096386,,,,,,,,,,,,,,58,abunal,,,,,,229.3975,230.6953,0,1,0.7667,,0,83,83,57,1,pseudoword,0,REAL,FALSA
,,,,,,,,,65b7df79bd16de5cd6a3a12b,001,2024-06-02_07h43.51.518,empathy_intonation_perc,2024.1.4,Linux x86_64,60.24096386,,,,,,,,,,,,,,39,pista,,,,,,230.6956,231.8938,1,0,0.6647,,0,84,84,38,1,non_cognate,1,REAL,FALSA
,,,,,,,,,65b7df79bd16de5cd6a3a12b,001,2024-06-02_07h43.51.518,empathy_intonation_perc,2024.1.4,Linux x86_64,60.24096386,,,,,,,,,,,,,,69,vemua,,,,,,231.8943,233.16,0,1,0.7383,,0,85,85,68,1,pseudoword,0,REAL,FALSA
,,,,,,,,,65b7df79bd16de5cd6a3a12b,001,2024-06-02_07h43.51.518,empathy_intonation_perc,2024.1.4,Linux x86_64,60.24096386,,,,,,,,,,,,,,70,hunten,,,,,,233.1611,235.3732,0,1,1.6781,,0,86,86,69,1,pseudoword,0,REAL,FALSA
,,,,,,,,,65b7df79bd16de5cd6a3a12b,001,2024-06-02_07h43.51.518,empathy_intonation_perc,2024.1.4,Linux x86_64,60.24096386,,,,,,,,,,,,,,71,rande,,,,,,235.3737,236.6213,0,1,0.7116,,0,87,87,70,1,pseudoword,0,REAL,FALSA
,,,,,,,,,65b7df79bd16de5cd6a3a12b,001,2024-06-02_07h43.51.518,empathy_intonation_perc,2024.1.4,Linux x86_64,60.24096386,,,,,,,,,,,,,,33,latón,,,,,,236.6218,238.5189,1,0,1.3673,,0,88,88,32,1,non_cognate,1,REAL,FALSA
,,,,,,,,,65b7df79bd16de5cd6a3a12b,001,2024-06-02_07h43.51.518,empathy_intonation_perc,2024.1.4,Linux x86_64,60.24096386,,,,,,,,,,,,,,51,tandir,,,,,,238.5193,239.875,0,1,0.8307,,0,89,89,50,1,pseudoword,0,REAL,FALSA
,,,,,,,,,65b7df79bd16de5cd6a3a12b,001,2024-06-02_07h43.51.518,empathy_intonation_perc,2024.1.4,Linux x86_64,60.24096386,,,,,,,,,,,,,,13,aurora,,,,,,239.8754,241.3166,1,0,0.923,,0,90,90,12,1,two_way_cognate,1,REAL,FALSA
,,,,,,,,,65b7df79bd16de5cd6a3a12b,001,2024-06-02_07h43.51.518,empathy_intonation_perc,2024.1.4,Linux x86_64,60.24096386,,,,,,,,,,,,,,90,duyo,,,,,,241.317,242.4311,0,1,0.5689,,0,91,91,89,1,pseudoword,0,REAL,FALSA
,,,,,,,,,65b7df79bd16de5cd6a3a12b,001,2024-06-02_07h43.51.518,empathy_intonation_perc,2024.1.4,Linux x86_64,60.24096386,,,,,,,,,,,,,,67,huzas,,,,,,242.4316,243.5796,0,1,0.6164,,0,92,92,66,1,pseudoword,0,REAL,FALSA
,,,,,,,,,65b7df79bd16de5cd6a3a12b,001,2024-06-02_07h43.51.518,empathy_intonation_perc,2024.1.4,Linux x86_64,60.24096386,,,,,,,,,,,,,,26,hilo,,,,,,243.5801,245.045,1,0,0.9323,,0,93,93,25,1,non_cognate,1,REAL,FALSA
,,,,,,,,,65b7df79bd16de5cd6a3a12b,001,2024-06-02_07h43.51.518,empathy_intonation_perc,2024.1.4,Linux x86_64,60.24096386,,,,,,,,,,,,,,1,torso,,,,,,245.0456,247.7751,1,0,2.2002,,0,94,94,0,1,three_way_cognate,1,REAL,FALSA
,,,,,,,,,65b7df79bd16de5cd6a3a12b,001,2024-06-02_07h43.51.518,empathy_intonation_perc,2024.1.4,Linux x86_64,60.24096386,,,,,,,,,,,,,,43,huella,,,,,,247.7858,250.2385,1,0,1.9328,,0,95,95,42,1,non_cognate,1,REAL,FALSA
