lextale_instructions.started,lextale_instructions.stopped,lextale_instructions_loop.thisRepN,lextale_instructions_loop.thisTrialN,lextale_instructions_loop.thisN,lextale_instructions_loop.thisIndex,lextale_instructions_loop.ran,instructions_text,continue_text,participant,session,date,expName,psychopyVersion,OS,frameRate,lextale_practice.started,lextale_practice.stopped,key_resp_lextale_practice.keys,key_resp_lextale_practice.corr,key_resp_lextale_practice.rt,key_resp_lextale_practice.duration,lextale_practice_feedback.started,lextale_practice_feedback.stopped,lextale_practice_trials.thisRepN,lextale_practice_trials.thisTrialN,lextale_practice_trials.thisN,lextale_practice_trials.thisIndex,lextale_practice_trials.ran,stim,word,correct_response,prac_button_real,prac_button_false,lextale_check.started,lextale_check.stopped,lextale_trial.started,lextale_trial.stopped,key_resp_lextale_trial.keys,key_resp_lextale_trial.corr,key_resp_lextale_trial.rt,key_resp_lextale_trial.duration,lextail_trials.thisRepN,lextail_trials.thisTrialN,lextail_trials.thisN,lextail_trials.thisIndex,lextail_trials.ran,type,correct_reponse,button_real,button_false
0.0062,7.3944,0,0,0,0,1,"Este es un test de vocabulario en español. 
  
  A continuación vas a ver 90 secuencias de letras que parecen 'españolas'.
  
  Solo algunas de ellas son palabras de verdad.",(presiona la barra espaciadora para continuar),65df409ed4caf8deef4ae2b0,001,2024-06-03_09h41.01.253,empathy_intonation_perc,2024.1.4,Win32,60.24096386,,,,,,,,,,,,,,,,,,,,,,,,,,,,,,,,,,,
7.3963,15.2423,0,1,1,1,1,"Por favor, señala las palabras que tú conoces (aquellas que estás convencido que son palabras españolas, incluso aunque no seas capaz de dar el significado preciso).",(presiona la barra espaciadora para continuar),65df409ed4caf8deef4ae2b0,001,2024-06-03_09h41.01.253,empathy_intonation_perc,2024.1.4,Win32,60.24096386,,,,,,,,,,,,,,,,,,,,,,,,,,,,,,,,,,,
15.2438,34.539,0,2,2,2,1,Pero cuidado: los errores se penalizan. Por eso no tiene sentido tratar de incrementar tu puntuación marcando como reales palabras que nunca has visto.,(presiona la barra espaciadora para continuar),65df409ed4caf8deef4ae2b0,001,2024-06-03_09h41.01.253,empathy_intonation_perc,2024.1.4,Win32,60.24096386,,,,,,,,,,,,,,,,,,,,,,,,,,,,,,,,,,,
34.5399,47.021,0,3,3,3,1,"Presiona la tecla 1 si piensas que es una palabra real y la tecla 
  0 si piensas que es una palabra falsa. 
  
  Vamos a practicar un poco...",(presiona la barra espaciadora para continuar),65df409ed4caf8deef4ae2b0,001,2024-06-03_09h41.01.253,empathy_intonation_perc,2024.1.4,Win32,60.24096386,,,,,,,,,,,,,,,,,,,,,,,,,,,,,,,,,,,
,,,,,,,,,65df409ed4caf8deef4ae2b0,001,2024-06-03_09h41.01.253,empathy_intonation_perc,2024.1.4,Win32,60.24096386,47.0559,52.821,0,1,5.2279,,52.8445,53.8207,0,0,0,0,1,0,depiste,0,REAL,FALSA,,,,,,,,,,,,,,,,,
,,,,,,,,,65df409ed4caf8deef4ae2b0,001,2024-06-03_09h41.01.253,empathy_intonation_perc,2024.1.4,Win32,60.24096386,53.822,56.3696,1,1,2.0126,,56.3696,57.3693,0,1,1,1,1,0,sí,1,REAL,FALSA,,,,,,,,,,,,,,,,,
,,,,,,,,,65df409ed4caf8deef4ae2b0,001,2024-06-03_09h41.01.253,empathy_intonation_perc,2024.1.4,Win32,60.24096386,57.3979,59.952,1,0,2.0303,,59.9522,60.9522,0,2,2,2,1,0,coné,0,REAL,FALSA,,,,,,,,,,,,,,,,,
,,,,,,,,,65df409ed4caf8deef4ae2b0,001,2024-06-03_09h41.01.253,empathy_intonation_perc,2024.1.4,Win32,60.24096386,60.9529,63.7015,1,0,2.2123,,63.7016,64.7014,0,3,3,3,1,0,calpar,0,REAL,FALSA,,,,,,,,,,,,,,,,,
,,,,,,,,,65df409ed4caf8deef4ae2b0,001,2024-06-03_09h41.01.253,empathy_intonation_perc,2024.1.4,Win32,60.24096386,64.7316,66.9847,0,1,1.7329,,66.9848,67.9843,0,4,4,4,1,0,joten,0,REAL,FALSA,,,,,,,,,,,,,,,,,
,,,,,,,,,65df409ed4caf8deef4ae2b0,001,2024-06-03_09h41.01.253,empathy_intonation_perc,2024.1.4,Win32,60.24096386,68.0124,70.6339,1,1,2.0975,,70.6341,71.634,0,5,5,5,1,0,sacapuntas,1,REAL,FALSA,,,,,,,,,,,,,,,,,
,,,,,,,,,65df409ed4caf8deef4ae2b0,001,2024-06-03_09h41.01.253,empathy_intonation_perc,2024.1.4,Win32,60.24096386,71.6629,73.7173,1,0,1.5279,,73.7175,74.7173,0,6,6,6,1,0,priba,0,REAL,FALSA,,,,,,,,,,,,,,,,,
,,,,,,,,,65df409ed4caf8deef4ae2b0,001,2024-06-03_09h41.01.253,empathy_intonation_perc,2024.1.4,Win32,60.24096386,74.7181,78.2335,1,0,2.9787,,78.2337,79.2331,0,7,7,7,1,0,pelasula,0,REAL,FALSA,,,,,,,,,,,,,,,,,
,,,,,,,,,65df409ed4caf8deef4ae2b0,001,2024-06-03_09h41.01.253,empathy_intonation_perc,2024.1.4,Win32,60.24096386,79.2624,81.0325,1,1,1.244,,81.0326,82.0323,0,8,8,8,1,0,bien,1,REAL,FALSA,,,,,,,,,,,,,,,,,
,,,,,,,,,65df409ed4caf8deef4ae2b0,001,2024-06-03_09h41.01.253,empathy_intonation_perc,2024.1.4,Win32,60.24096386,82.033,83.4822,1,1,0.9129,,83.4824,84.4819,0,9,9,9,1,0,casa,1,REAL,FALSA,,,,,,,,,,,,,,,,,
,,,,,,,,,65df409ed4caf8deef4ae2b0,001,2024-06-03_09h41.01.253,empathy_intonation_perc,2024.1.4,Win32,60.24096386,84.4828,86.3991,0,1,1.3823,,86.3991,87.3983,0,10,10,10,1,0,lejo,0,REAL,FALSA,,,,,,,,,,,,,,,,,
,,,,,,,,,65df409ed4caf8deef4ae2b0,001,2024-06-03_09h41.01.253,empathy_intonation_perc,2024.1.4,Win32,60.24096386,87.4284,110.8455,0,1,22.9006,,110.8456,111.8457,0,11,11,11,1,0,pretantas,0,REAL,FALSA,,,,,,,,,,,,,,,,,
,,,,,,,,,65df409ed4caf8deef4ae2b0,001,2024-06-03_09h41.01.253,empathy_intonation_perc,2024.1.4,Win32,60.24096386,,,,,,,,,,,,,,,,,,,111.8471,115.1121,,,,,,,,,,,,,,,
,,,,,,,,,65df409ed4caf8deef4ae2b0,001,2024-06-03_09h41.01.253,empathy_intonation_perc,2024.1.4,Win32,60.24096386,,,,,,,,,,,,,,46,cumbre,,,,,,115.1475,131.9447,1,0,16.2639,,0,0,0,45,1,non_cognate,1,REAL,FALSA
,,,,,,,,,65df409ed4caf8deef4ae2b0,001,2024-06-03_09h41.01.253,empathy_intonation_perc,2024.1.4,Win32,60.24096386,,,,,,,,,,,,,,34,sermón,,,,,,131.9732,144.2247,1,0,11.7257,,0,1,1,33,1,non_cognate,1,REAL,FALSA
,,,,,,,,,65df409ed4caf8deef4ae2b0,001,2024-06-03_09h41.01.253,empathy_intonation_perc,2024.1.4,Win32,60.24096386,,,,,,,,,,,,,,80,suelet,,,,,,144.2544,159.323,0,1,14.5495,,0,2,2,79,1,pseudoword,0,REAL,FALSA
,,,,,,,,,65df409ed4caf8deef4ae2b0,001,2024-06-03_09h41.01.253,empathy_intonation_perc,2024.1.4,Win32,60.24096386,,,,,,,,,,,,,,91,chote,,,,,,159.3507,170.6048,0,1,10.7264,,0,3,3,90,1,pseudoword,0,REAL,FALSA
,,,,,,,,,65df409ed4caf8deef4ae2b0,001,2024-06-03_09h41.01.253,empathy_intonation_perc,2024.1.4,Win32,60.24096386,,,,,,,,,,,,,,6,horror,,,,,,170.6338,174.3873,1,0,3.2275,,0,4,4,5,1,three_way_cognate,1,REAL,FALSA
,,,,,,,,,65df409ed4caf8deef4ae2b0,001,2024-06-03_09h41.01.253,empathy_intonation_perc,2024.1.4,Win32,60.24096386,,,,,,,,,,,,,,57,calto,,,,,,174.388,176.2702,1,0,1.3538,,0,5,5,56,1,pseudoword,0,REAL,FALSA
,,,,,,,,,65df409ed4caf8deef4ae2b0,001,2024-06-03_09h41.01.253,empathy_intonation_perc,2024.1.4,Win32,60.24096386,,,,,,,,,,,,,,29,cesta,,,,,,176.273,189.3355,1,0,12.5315,,0,6,6,28,1,non_cognate,1,REAL,FALSA
,,,,,,,,,65df409ed4caf8deef4ae2b0,001,2024-06-03_09h41.01.253,empathy_intonation_perc,2024.1.4,Win32,60.24096386,,,,,,,,,,,,,,74,mibro,,,,,,189.3654,205.6669,0,1,15.7798,,0,7,7,73,1,pseudoword,0,REAL,FALSA
,,,,,,,,,65df409ed4caf8deef4ae2b0,001,2024-06-03_09h41.01.253,empathy_intonation_perc,2024.1.4,Win32,60.24096386,,,,,,,,,,,,,,20,total,,,,,,205.6957,208.3666,1,0,2.1464,,0,8,8,19,1,two_way_cognate,1,REAL,FALSA
,,,,,,,,,65df409ed4caf8deef4ae2b0,001,2024-06-03_09h41.01.253,empathy_intonation_perc,2024.1.4,Win32,60.24096386,,,,,,,,,,,,,,68,hurmo,,,,,,208.3679,222.1477,0,1,13.2504,,0,9,9,67,1,pseudoword,0,REAL,FALSA
,,,,,,,,,65df409ed4caf8deef4ae2b0,001,2024-06-03_09h41.01.253,empathy_intonation_perc,2024.1.4,Win32,60.24096386,,,,,,,,,,,,,,55,ropis,,,,,,222.1773,232.0633,0,1,9.3675,,0,10,10,54,1,pseudoword,0,REAL,FALSA
,,,,,,,,,65df409ed4caf8deef4ae2b0,001,2024-06-03_09h41.01.253,empathy_intonation_perc,2024.1.4,Win32,60.24096386,,,,,,,,,,,,,,93,caemal,,,,,,232.0907,234.2802,1,0,1.6724,,0,11,11,92,1,pseudoword,0,REAL,FALSA
,,,,,,,,,65df409ed4caf8deef4ae2b0,001,2024-06-03_09h41.01.253,empathy_intonation_perc,2024.1.4,Win32,60.24096386,,,,,,,,,,,,,,75,babrá,,,,,,234.3078,249.5608,0,1,14.7332,,0,12,12,74,1,pseudoword,0,REAL,FALSA
,,,,,,,,,65df409ed4caf8deef4ae2b0,001,2024-06-03_09h41.01.253,empathy_intonation_perc,2024.1.4,Win32,60.24096386,,,,,,,,,,,,,,5,fauna,,,,,,249.5881,251.9276,1,0,1.8111,,0,13,13,4,1,three_way_cognate,1,REAL,FALSA
,,,,,,,,,65df409ed4caf8deef4ae2b0,001,2024-06-03_09h41.01.253,empathy_intonation_perc,2024.1.4,Win32,60.24096386,,,,,,,,,,,,,,12,bar,,,,,,251.9284,253.9449,1,0,1.4812,,0,14,14,11,1,three_way_cognate,1,REAL,FALSA
,,,,,,,,,65df409ed4caf8deef4ae2b0,001,2024-06-03_09h41.01.253,empathy_intonation_perc,2024.1.4,Win32,60.24096386,,,,,,,,,,,,,,87,racaer,,,,,,253.9461,256.2268,1,0,1.7514,,0,15,15,86,1,pseudoword,0,REAL,FALSA
,,,,,,,,,65df409ed4caf8deef4ae2b0,001,2024-06-03_09h41.01.253,empathy_intonation_perc,2024.1.4,Win32,60.24096386,,,,,,,,,,,,,,31,campo,,,,,,256.2278,257.7276,1,0,0.9621,,0,16,16,30,1,non_cognate,1,REAL,FALSA
,,,,,,,,,65df409ed4caf8deef4ae2b0,001,2024-06-03_09h41.01.253,empathy_intonation_perc,2024.1.4,Win32,60.24096386,,,,,,,,,,,,,,96,brigan,,,,,,257.7284,259.5934,0,1,1.3297,,0,17,17,95,1,pseudoword,0,REAL,FALSA
,,,,,,,,,65df409ed4caf8deef4ae2b0,001,2024-06-03_09h41.01.253,empathy_intonation_perc,2024.1.4,Win32,60.24096386,,,,,,,,,,,,,,58,abunal,,,,,,259.5941,261.395,0,1,1.2659,,0,18,18,57,1,pseudoword,0,REAL,FALSA
,,,,,,,,,65df409ed4caf8deef4ae2b0,001,2024-06-03_09h41.01.253,empathy_intonation_perc,2024.1.4,Win32,60.24096386,,,,,,,,,,,,,,36,visión,,,,,,261.3958,262.9268,1,0,1.0063,,0,19,19,35,1,non_cognate,1,REAL,FALSA
,,,,,,,,,65df409ed4caf8deef4ae2b0,001,2024-06-03_09h41.01.253,empathy_intonation_perc,2024.1.4,Win32,60.24096386,,,,,,,,,,,,,,64,altimo,,,,,,262.9282,265.2926,1,0,1.8292,,0,20,20,63,1,pseudoword,0,REAL,FALSA
,,,,,,,,,65df409ed4caf8deef4ae2b0,001,2024-06-03_09h41.01.253,empathy_intonation_perc,2024.1.4,Win32,60.24096386,,,,,,,,,,,,,,53,samón,,,,,,265.2934,267.6919,1,0,1.8647,,0,21,21,52,1,pseudoword,0,REAL,FALSA
,,,,,,,,,65df409ed4caf8deef4ae2b0,001,2024-06-03_09h41.01.253,empathy_intonation_perc,2024.1.4,Win32,60.24096386,,,,,,,,,,,,,,51,tandir,,,,,,267.7144,269.4412,0,1,1.2053,,0,22,22,50,1,pseudoword,0,REAL,FALSA
,,,,,,,,,65df409ed4caf8deef4ae2b0,001,2024-06-03_09h41.01.253,empathy_intonation_perc,2024.1.4,Win32,60.24096386,,,,,,,,,,,,,,88,hento,,,,,,269.4417,270.675,0,1,0.7134,,0,23,23,87,1,pseudoword,0,REAL,FALSA
,,,,,,,,,65df409ed4caf8deef4ae2b0,001,2024-06-03_09h41.01.253,empathy_intonation_perc,2024.1.4,Win32,60.24096386,,,,,,,,,,,,,,92,nasce,,,,,,270.6757,272.2252,0,1,1.0151,,0,24,24,91,1,pseudoword,0,REAL,FALSA
,,,,,,,,,65df409ed4caf8deef4ae2b0,001,2024-06-03_09h41.01.253,empathy_intonation_perc,2024.1.4,Win32,60.24096386,,,,,,,,,,,,,,25,exigir,,,,,,272.226,273.6748,0,1,0.9135,,0,25,25,24,1,non_cognate,1,REAL,FALSA
,,,,,,,,,65df409ed4caf8deef4ae2b0,001,2024-06-03_09h41.01.253,empathy_intonation_perc,2024.1.4,Win32,60.24096386,,,,,,,,,,,,,,37,delito,,,,,,273.6758,275.0415,1,0,0.8295,,0,26,26,36,1,non_cognate,1,REAL,FALSA
,,,,,,,,,65df409ed4caf8deef4ae2b0,001,2024-06-03_09h41.01.253,empathy_intonation_perc,2024.1.4,Win32,60.24096386,,,,,,,,,,,,,,40,cuento,,,,,,275.0422,276.4913,1,0,0.9142,,0,27,27,39,1,non_cognate,1,REAL,FALSA
,,,,,,,,,65df409ed4caf8deef4ae2b0,001,2024-06-03_09h41.01.253,empathy_intonation_perc,2024.1.4,Win32,60.24096386,,,,,,,,,,,,,,24,civil,,,,,,276.4922,278.307,1,0,1.2877,,0,28,28,23,1,two_way_cognate,1,REAL,FALSA
,,,,,,,,,65df409ed4caf8deef4ae2b0,001,2024-06-03_09h41.01.253,empathy_intonation_perc,2024.1.4,Win32,60.24096386,,,,,,,,,,,,,,14,clamor,,,,,,278.3079,279.8572,1,0,1.0206,,0,29,29,13,1,two_way_cognate,1,REAL,FALSA
,,,,,,,,,65df409ed4caf8deef4ae2b0,001,2024-06-03_09h41.01.253,empathy_intonation_perc,2024.1.4,Win32,60.24096386,,,,,,,,,,,,,,11,sauna,,,,,,279.8581,281.2575,1,0,0.869,,0,30,30,10,1,three_way_cognate,1,REAL,FALSA
,,,,,,,,,65df409ed4caf8deef4ae2b0,001,2024-06-03_09h41.01.253,empathy_intonation_perc,2024.1.4,Win32,60.24096386,,,,,,,,,,,,,,30,llamar,,,,,,281.2585,282.524,1,0,0.7307,,0,31,31,29,1,non_cognate,1,REAL,FALSA
,,,,,,,,,65df409ed4caf8deef4ae2b0,001,2024-06-03_09h41.01.253,empathy_intonation_perc,2024.1.4,Win32,60.24096386,,,,,,,,,,,,,,44,llamar,,,,,,282.525,283.8234,1,0,0.7676,,0,32,32,43,1,non_cognate,1,REAL,FALSA
,,,,,,,,,65df409ed4caf8deef4ae2b0,001,2024-06-03_09h41.01.253,empathy_intonation_perc,2024.1.4,Win32,60.24096386,,,,,,,,,,,,,,28,debido,,,,,,283.8241,285.4732,0,1,1.1184,,0,33,33,27,1,non_cognate,1,REAL,FALSA
,,,,,,,,,65df409ed4caf8deef4ae2b0,001,2024-06-03_09h41.01.253,empathy_intonation_perc,2024.1.4,Win32,60.24096386,,,,,,,,,,,,,,89,barezo,,,,,,285.4742,286.7566,0,1,0.751,,0,34,34,88,1,pseudoword,0,REAL,FALSA
,,,,,,,,,65df409ed4caf8deef4ae2b0,001,2024-06-03_09h41.01.253,empathy_intonation_perc,2024.1.4,Win32,60.24096386,,,,,,,,,,,,,,90,duyo,,,,,,286.7574,288.0564,0,1,0.7635,,0,35,35,89,1,pseudoword,0,REAL,FALSA
,,,,,,,,,65df409ed4caf8deef4ae2b0,001,2024-06-03_09h41.01.253,empathy_intonation_perc,2024.1.4,Win32,60.24096386,,,,,,,,,,,,,,2,clan,,,,,,288.0572,289.7228,0,1,1.1288,,0,36,36,1,1,three_way_cognate,1,REAL,FALSA
,,,,,,,,,65df409ed4caf8deef4ae2b0,001,2024-06-03_09h41.01.253,empathy_intonation_perc,2024.1.4,Win32,60.24096386,,,,,,,,,,,,,,4,chip,,,,,,289.7235,291.1058,0,1,0.8477,,0,37,37,3,1,three_way_cognate,1,REAL,FALSA
,,,,,,,,,65df409ed4caf8deef4ae2b0,001,2024-06-03_09h41.01.253,empathy_intonation_perc,2024.1.4,Win32,60.24096386,,,,,,,,,,,,,,26,hilo,,,,,,291.1069,293.5223,1,0,1.8778,,0,38,38,25,1,non_cognate,1,REAL,FALSA
,,,,,,,,,65df409ed4caf8deef4ae2b0,001,2024-06-03_09h41.01.253,empathy_intonation_perc,2024.1.4,Win32,60.24096386,,,,,,,,,,,,,,59,mandio,,,,,,293.5232,295.6058,1,0,1.5447,,0,39,39,58,1,pseudoword,0,REAL,FALSA
,,,,,,,,,65df409ed4caf8deef4ae2b0,001,2024-06-03_09h41.01.253,empathy_intonation_perc,2024.1.4,Win32,60.24096386,,,,,,,,,,,,,,33,latón,,,,,,295.6066,296.8222,1,0,0.6798,,0,40,40,32,1,non_cognate,1,REAL,FALSA
,,,,,,,,,65df409ed4caf8deef4ae2b0,001,2024-06-03_09h41.01.253,empathy_intonation_perc,2024.1.4,Win32,60.24096386,,,,,,,,,,,,,,61,trip,,,,,,296.8232,298.1221,0,1,0.7637,,0,41,41,60,1,pseudoword,0,REAL,FALSA
,,,,,,,,,65df409ed4caf8deef4ae2b0,001,2024-06-03_09h41.01.253,empathy_intonation_perc,2024.1.4,Win32,60.24096386,,,,,,,,,,,,,,66,clazas,,,,,,298.1229,299.3879,0,1,0.7303,,0,42,42,65,1,pseudoword,0,REAL,FALSA
,,,,,,,,,65df409ed4caf8deef4ae2b0,001,2024-06-03_09h41.01.253,empathy_intonation_perc,2024.1.4,Win32,60.24096386,,,,,,,,,,,,,,60,debada,,,,,,299.3892,301.0382,0,1,1.112,,0,43,43,59,1,pseudoword,0,REAL,FALSA
,,,,,,,,,65df409ed4caf8deef4ae2b0,001,2024-06-03_09h41.01.253,empathy_intonation_perc,2024.1.4,Win32,60.24096386,,,,,,,,,,,,,,15,actor,,,,,,301.039,302.3047,0,1,0.7352,,0,44,44,14,1,two_way_cognate,1,REAL,FALSA
,,,,,,,,,65df409ed4caf8deef4ae2b0,001,2024-06-03_09h41.01.253,empathy_intonation_perc,2024.1.4,Win32,60.24096386,,,,,,,,,,,,,,70,hunten,,,,,,302.3056,304.2042,0,1,1.3667,,0,45,45,69,1,pseudoword,0,REAL,FALSA
,,,,,,,,,65df409ed4caf8deef4ae2b0,001,2024-06-03_09h41.01.253,empathy_intonation_perc,2024.1.4,Win32,60.24096386,,,,,,,,,,,,,,19,pelvis,,,,,,304.2055,305.6705,0,1,0.933,,0,46,46,18,1,two_way_cognate,1,REAL,FALSA
,,,,,,,,,65df409ed4caf8deef4ae2b0,001,2024-06-03_09h41.01.253,empathy_intonation_perc,2024.1.4,Win32,60.24096386,,,,,,,,,,,,,,85,tutaba,,,,,,305.6713,307.9538,0,1,1.7473,,0,47,47,84,1,pseudoword,0,REAL,FALSA
,,,,,,,,,65df409ed4caf8deef4ae2b0,001,2024-06-03_09h41.01.253,empathy_intonation_perc,2024.1.4,Win32,60.24096386,,,,,,,,,,,,,,10,tango,,,,,,307.981,309.4701,1,0,0.9622,,0,48,48,9,1,three_way_cognate,1,REAL,FALSA
,,,,,,,,,65df409ed4caf8deef4ae2b0,001,2024-06-03_09h41.01.253,empathy_intonation_perc,2024.1.4,Win32,60.24096386,,,,,,,,,,,,,,32,caro,,,,,,309.4708,310.8698,1,0,0.8686,,0,49,49,31,1,non_cognate,1,REAL,FALSA
,,,,,,,,,65df409ed4caf8deef4ae2b0,001,2024-06-03_09h41.01.253,empathy_intonation_perc,2024.1.4,Win32,60.24096386,,,,,,,,,,,,,,56,qucrá,,,,,,310.8705,312.0863,1,0,0.6891,,0,50,50,55,1,pseudoword,0,REAL,FALSA
,,,,,,,,,65df409ed4caf8deef4ae2b0,001,2024-06-03_09h41.01.253,empathy_intonation_perc,2024.1.4,Win32,60.24096386,,,,,,,,,,,,,,62,sujo,,,,,,312.0873,313.4524,1,0,0.8372,,0,51,51,61,1,pseudoword,0,REAL,FALSA
,,,,,,,,,65df409ed4caf8deef4ae2b0,001,2024-06-03_09h41.01.253,empathy_intonation_perc,2024.1.4,Win32,60.24096386,,,,,,,,,,,,,,54,barbo,,,,,,313.4528,314.7032,0,1,0.7142,,0,52,52,53,1,pseudoword,0,REAL,FALSA
,,,,,,,,,65df409ed4caf8deef4ae2b0,001,2024-06-03_09h41.01.253,empathy_intonation_perc,2024.1.4,Win32,60.24096386,,,,,,,,,,,,,,81,rombar,,,,,,314.7042,316.2362,0,1,0.9968,,0,53,53,80,1,pseudoword,0,REAL,FALSA
,,,,,,,,,65df409ed4caf8deef4ae2b0,001,2024-06-03_09h41.01.253,empathy_intonation_perc,2024.1.4,Win32,60.24096386,,,,,,,,,,,,,,16,animal,,,,,,316.237,317.5529,0,1,0.7797,,0,54,54,15,1,two_way_cognate,1,REAL,FALSA
,,,,,,,,,65df409ed4caf8deef4ae2b0,001,2024-06-03_09h41.01.253,empathy_intonation_perc,2024.1.4,Win32,60.24096386,,,,,,,,,,,,,,45,viga,,,,,,317.5536,319.036,0,1,0.9532,,0,55,55,44,1,non_cognate,1,REAL,FALSA
,,,,,,,,,65df409ed4caf8deef4ae2b0,001,2024-06-03_09h41.01.253,empathy_intonation_perc,2024.1.4,Win32,60.24096386,,,,,,,,,,,,,,27,pelado,,,,,,319.037,320.5019,1,0,0.9377,,0,56,56,26,1,non_cognate,1,REAL,FALSA
,,,,,,,,,65df409ed4caf8deef4ae2b0,001,2024-06-03_09h41.01.253,empathy_intonation_perc,2024.1.4,Win32,60.24096386,,,,,,,,,,,,,,84,jomas,,,,,,320.5027,321.9353,0,1,0.8966,,0,57,57,83,1,pseudoword,0,REAL,FALSA
,,,,,,,,,65df409ed4caf8deef4ae2b0,001,2024-06-03_09h41.01.253,empathy_intonation_perc,2024.1.4,Win32,60.24096386,,,,,,,,,,,,,,17,enigma,,,,,,321.936,323.3687,0,1,0.8972,,0,58,58,16,1,two_way_cognate,1,REAL,FALSA
,,,,,,,,,65df409ed4caf8deef4ae2b0,001,2024-06-03_09h41.01.253,empathy_intonation_perc,2024.1.4,Win32,60.24096386,,,,,,,,,,,,,,78,alzán,,,,,,323.3696,324.6858,1,0,0.7905,,0,59,59,77,1,pseudoword,0,REAL,FALSA
,,,,,,,,,65df409ed4caf8deef4ae2b0,001,2024-06-03_09h41.01.253,empathy_intonation_perc,2024.1.4,Win32,60.24096386,,,,,,,,,,,,,,95,aclaya,,,,,,324.6869,326.1345,1,0,0.9218,,0,60,60,94,1,pseudoword,0,REAL,FALSA
,,,,,,,,,65df409ed4caf8deef4ae2b0,001,2024-06-03_09h41.01.253,empathy_intonation_perc,2024.1.4,Win32,60.24096386,,,,,,,,,,,,,,49,diebro,,,,,,326.1361,327.4014,1,0,0.7298,,0,61,61,48,1,pseudoword,0,REAL,FALSA
,,,,,,,,,65df409ed4caf8deef4ae2b0,001,2024-06-03_09h41.01.253,empathy_intonation_perc,2024.1.4,Win32,60.24096386,,,,,,,,,,,,,,72,diguán,,,,,,327.4022,328.6844,1,0,0.7508,,0,62,62,71,1,pseudoword,0,REAL,FALSA
,,,,,,,,,65df409ed4caf8deef4ae2b0,001,2024-06-03_09h41.01.253,empathy_intonation_perc,2024.1.4,Win32,60.24096386,,,,,,,,,,,,,,83,monsos,,,,,,328.6852,330.2849,1,0,1.0626,,0,63,63,82,1,pseudoword,0,REAL,FALSA
,,,,,,,,,65df409ed4caf8deef4ae2b0,001,2024-06-03_09h41.01.253,empathy_intonation_perc,2024.1.4,Win32,60.24096386,,,,,,,,,,,,,,18,honor,,,,,,330.2859,331.6341,0,1,0.8139,,0,64,64,17,1,two_way_cognate,1,REAL,FALSA
,,,,,,,,,65df409ed4caf8deef4ae2b0,001,2024-06-03_09h41.01.253,empathy_intonation_perc,2024.1.4,Win32,60.24096386,,,,,,,,,,,,,,1,torso,,,,,,331.6349,333.467,0,1,1.2959,,0,65,65,0,1,three_way_cognate,1,REAL,FALSA
,,,,,,,,,65df409ed4caf8deef4ae2b0,001,2024-06-03_09h41.01.253,empathy_intonation_perc,2024.1.4,Win32,60.24096386,,,,,,,,,,,,,,52,coriar,,,,,,333.4678,335.3003,0,1,1.2974,,0,66,66,51,1,pseudoword,0,REAL,FALSA
,,,,,,,,,65df409ed4caf8deef4ae2b0,001,2024-06-03_09h41.01.253,empathy_intonation_perc,2024.1.4,Win32,60.24096386,,,,,,,,,,,,,,42,premio,,,,,,335.3012,336.567,1,0,0.731,,0,67,67,41,1,non_cognate,1,REAL,FALSA
,,,,,,,,,65df409ed4caf8deef4ae2b0,001,2024-06-03_09h41.01.253,empathy_intonation_perc,2024.1.4,Win32,60.24096386,,,,,,,,,,,,,,77,toges,,,,,,336.5678,338.2502,1,0,1.1522,,0,68,68,76,1,pseudoword,0,REAL,FALSA
,,,,,,,,,65df409ed4caf8deef4ae2b0,001,2024-06-03_09h41.01.253,empathy_intonation_perc,2024.1.4,Win32,60.24096386,,,,,,,,,,,,,,86,abamos,,,,,,338.2512,339.5821,1,0,0.7948,,0,69,69,85,1,pseudoword,0,REAL,FALSA
,,,,,,,,,65df409ed4caf8deef4ae2b0,001,2024-06-03_09h41.01.253,empathy_intonation_perc,2024.1.4,Win32,60.24096386,,,,,,,,,,,,,,7,retina,,,,,,339.5826,340.9487,0,1,0.8315,,0,70,70,6,1,three_way_cognate,1,REAL,FALSA
,,,,,,,,,65df409ed4caf8deef4ae2b0,001,2024-06-03_09h41.01.253,empathy_intonation_perc,2024.1.4,Win32,60.24096386,,,,,,,,,,,,,,82,alla,,,,,,340.9493,342.8158,1,0,1.3412,,0,71,71,81,1,pseudoword,0,REAL,FALSA
,,,,,,,,,65df409ed4caf8deef4ae2b0,001,2024-06-03_09h41.01.253,empathy_intonation_perc,2024.1.4,Win32,60.24096386,,,,,,,,,,,,,,21,casual,,,,,,342.8165,344.4491,0,1,1.0958,,0,72,72,20,1,two_way_cognate,1,REAL,FALSA
,,,,,,,,,65df409ed4caf8deef4ae2b0,001,2024-06-03_09h41.01.253,empathy_intonation_perc,2024.1.4,Win32,60.24096386,,,,,,,,,,,,,,63,aljizo,,,,,,344.4499,345.9654,0,1,0.9904,,0,73,73,62,1,pseudoword,0,REAL,FALSA
,,,,,,,,,65df409ed4caf8deef4ae2b0,001,2024-06-03_09h41.01.253,empathy_intonation_perc,2024.1.4,Win32,60.24096386,,,,,,,,,,,,,,39,pista,,,,,,345.9662,347.6153,0,1,1.1207,,0,74,74,38,1,non_cognate,1,REAL,FALSA
,,,,,,,,,65df409ed4caf8deef4ae2b0,001,2024-06-03_09h41.01.253,empathy_intonation_perc,2024.1.4,Win32,60.24096386,,,,,,,,,,,,,,67,huzas,,,,,,347.6161,348.9487,1,0,0.8008,,0,75,75,66,1,pseudoword,0,REAL,FALSA
,,,,,,,,,65df409ed4caf8deef4ae2b0,001,2024-06-03_09h41.01.253,empathy_intonation_perc,2024.1.4,Win32,60.24096386,,,,,,,,,,,,,,41,salto,,,,,,348.9496,350.2483,1,0,0.7657,,0,76,76,40,1,non_cognate,1,REAL,FALSA
,,,,,,,,,65df409ed4caf8deef4ae2b0,001,2024-06-03_09h41.01.253,empathy_intonation_perc,2024.1.4,Win32,60.24096386,,,,,,,,,,,,,,76,orida,,,,,,350.2491,351.5649,0,1,0.781,,0,77,77,75,1,pseudoword,0,REAL,FALSA
,,,,,,,,,65df409ed4caf8deef4ae2b0,001,2024-06-03_09h41.01.253,empathy_intonation_perc,2024.1.4,Win32,60.24096386,,,,,,,,,,,,,,22,pasta,,,,,,351.5659,353.0646,0,1,0.969,,0,78,78,21,1,two_way_cognate,1,REAL,FALSA
,,,,,,,,,65df409ed4caf8deef4ae2b0,001,2024-06-03_09h41.01.253,empathy_intonation_perc,2024.1.4,Win32,60.24096386,,,,,,,,,,,,,,35,pájaro,,,,,,353.0654,354.3476,1,0,0.7489,,0,79,79,34,1,non_cognate,1,REAL,FALSA
,,,,,,,,,65df409ed4caf8deef4ae2b0,001,2024-06-03_09h41.01.253,empathy_intonation_perc,2024.1.4,Win32,60.24096386,,,,,,,,,,,,,,8,solar,,,,,,354.3485,355.8146,0,1,0.9363,,0,80,80,7,1,three_way_cognate,1,REAL,FALSA
,,,,,,,,,65df409ed4caf8deef4ae2b0,001,2024-06-03_09h41.01.253,empathy_intonation_perc,2024.1.4,Win32,60.24096386,,,,,,,,,,,,,,73,meolar,,,,,,355.8153,357.9476,0,1,1.6041,,0,81,81,72,1,pseudoword,0,REAL,FALSA
,,,,,,,,,65df409ed4caf8deef4ae2b0,001,2024-06-03_09h41.01.253,empathy_intonation_perc,2024.1.4,Win32,60.24096386,,,,,,,,,,,,,,13,aurora,,,,,,357.9774,359.7799,0,1,1.2794,,0,82,82,12,1,two_way_cognate,1,REAL,FALSA
,,,,,,,,,65df409ed4caf8deef4ae2b0,001,2024-06-03_09h41.01.253,empathy_intonation_perc,2024.1.4,Win32,60.24096386,,,,,,,,,,,,,,79,filte,,,,,,359.7806,362.4963,0,1,2.1892,,0,83,83,78,1,pseudoword,0,REAL,FALSA
,,,,,,,,,65df409ed4caf8deef4ae2b0,001,2024-06-03_09h41.01.253,empathy_intonation_perc,2024.1.4,Win32,60.24096386,,,,,,,,,,,,,,69,vemua,,,,,,362.5213,363.9467,1,0,0.8988,,0,84,84,68,1,pseudoword,0,REAL,FALSA
,,,,,,,,,65df409ed4caf8deef4ae2b0,001,2024-06-03_09h41.01.253,empathy_intonation_perc,2024.1.4,Win32,60.24096386,,,,,,,,,,,,,,9,limbo,,,,,,363.9476,365.1795,1,0,0.693,,0,85,85,8,1,three_way_cognate,1,REAL,FALSA
,,,,,,,,,65df409ed4caf8deef4ae2b0,001,2024-06-03_09h41.01.253,empathy_intonation_perc,2024.1.4,Win32,60.24096386,,,,,,,,,,,,,,3,bingo,,,,,,365.1803,366.4464,0,1,0.7308,,0,86,86,2,1,three_way_cognate,1,REAL,FALSA
,,,,,,,,,65df409ed4caf8deef4ae2b0,001,2024-06-03_09h41.01.253,empathy_intonation_perc,2024.1.4,Win32,60.24096386,,,,,,,,,,,,,,23,editor,,,,,,366.4474,367.7293,0,1,0.754,,0,87,87,22,1,two_way_cognate,1,REAL,FALSA
,,,,,,,,,65df409ed4caf8deef4ae2b0,001,2024-06-03_09h41.01.253,empathy_intonation_perc,2024.1.4,Win32,60.24096386,,,,,,,,,,,,,,71,rande,,,,,,367.7302,369.1287,0,1,0.8722,,0,88,88,70,1,pseudoword,0,REAL,FALSA
,,,,,,,,,65df409ed4caf8deef4ae2b0,001,2024-06-03_09h41.01.253,empathy_intonation_perc,2024.1.4,Win32,60.24096386,,,,,,,,,,,,,,65,edidé,,,,,,369.1295,370.9786,1,0,1.3123,,0,89,89,64,1,pseudoword,0,REAL,FALSA
,,,,,,,,,65df409ed4caf8deef4ae2b0,001,2024-06-03_09h41.01.253,empathy_intonation_perc,2024.1.4,Win32,60.24096386,,,,,,,,,,,,,,38,trenza,,,,,,370.9795,372.9954,1,0,1.4848,,0,90,90,37,1,non_cognate,1,REAL,FALSA
,,,,,,,,,65df409ed4caf8deef4ae2b0,001,2024-06-03_09h41.01.253,empathy_intonation_perc,2024.1.4,Win32,60.24096386,,,,,,,,,,,,,,43,huella,,,,,,372.9961,374.2453,1,0,0.7163,,0,91,91,42,1,non_cognate,1,REAL,FALSA
,,,,,,,,,65df409ed4caf8deef4ae2b0,001,2024-06-03_09h41.01.253,empathy_intonation_perc,2024.1.4,Win32,60.24096386,,,,,,,,,,,,,,48,taza,,,,,,374.2461,375.4615,1,0,0.6784,,0,92,92,47,1,non_cognate,1,REAL,FALSA
,,,,,,,,,65df409ed4caf8deef4ae2b0,001,2024-06-03_09h41.01.253,empathy_intonation_perc,2024.1.4,Win32,60.24096386,,,,,,,,,,,,,,94,bomos,,,,,,375.4625,377.6614,0,1,1.6624,,0,93,93,93,1,pseudoword,0,REAL,FALSA
,,,,,,,,,65df409ed4caf8deef4ae2b0,001,2024-06-03_09h41.01.253,empathy_intonation_perc,2024.1.4,Win32,60.24096386,,,,,,,,,,,,,,47,alivio,,,,,,377.6622,378.8443,0,1,0.6483,,0,94,94,46,1,non_cognate,1,REAL,FALSA
,,,,,,,,,65df409ed4caf8deef4ae2b0,001,2024-06-03_09h41.01.253,empathy_intonation_perc,2024.1.4,Win32,60.24096386,,,,,,,,,,,,,,50,suaja,,,,,,378.845,380.3438,1,0,0.9722,,0,95,95,49,1,pseudoword,0,REAL,FALSA
