lextale_instructions.started,lextale_instructions.stopped,lextale_instructions_loop.thisRepN,lextale_instructions_loop.thisTrialN,lextale_instructions_loop.thisN,lextale_instructions_loop.thisIndex,lextale_instructions_loop.ran,instructions_text,continue_text,participant,session,date,expName,psychopyVersion,OS,frameRate,lextale_practice.started,lextale_practice.stopped,key_resp_lextale_practice.keys,key_resp_lextale_practice.corr,key_resp_lextale_practice.rt,key_resp_lextale_practice.duration,lextale_practice_feedback.started,lextale_practice_feedback.stopped,lextale_practice_trials.thisRepN,lextale_practice_trials.thisTrialN,lextale_practice_trials.thisN,lextale_practice_trials.thisIndex,lextale_practice_trials.ran,stim,word,correct_response,prac_button_real,prac_button_false,lextale_check.started,lextale_check.stopped,lextale_trial.started,lextale_trial.stopped,key_resp_lextale_trial.keys,key_resp_lextale_trial.corr,key_resp_lextale_trial.rt,key_resp_lextale_trial.duration,lextail_trials.thisRepN,lextail_trials.thisTrialN,lextail_trials.thisN,lextail_trials.thisIndex,lextail_trials.ran,type,correct_reponse,button_real,button_false
0.0076,7.1384,0,0,0,0,1,"Este es un test de vocabulario en español. 
  
  A continuación vas a ver 90 secuencias de letras que parecen 'españolas'.
  
  Solo algunas de ellas son palabras de verdad.",(presiona la barra espaciadora para continuar),661d78992081260278eea965,001,2024-06-03_09h26.45.477,empathy_intonation_perc,2024.1.4,Win32,60.60606061,,,,,,,,,,,,,,,,,,,,,,,,,,,,,,,,,,,
7.1394,11.669,0,1,1,1,1,"Por favor, señala las palabras que tú conoces (aquellas que estás convencido que son palabras españolas, incluso aunque no seas capaz de dar el significado preciso).",(presiona la barra espaciadora para continuar),661d78992081260278eea965,001,2024-06-03_09h26.45.477,empathy_intonation_perc,2024.1.4,Win32,60.60606061,,,,,,,,,,,,,,,,,,,,,,,,,,,,,,,,,,,
11.6697,17.0058,0,2,2,2,1,Pero cuidado: los errores se penalizan. Por eso no tiene sentido tratar de incrementar tu puntuación marcando como reales palabras que nunca has visto.,(presiona la barra espaciadora para continuar),661d78992081260278eea965,001,2024-06-03_09h26.45.477,empathy_intonation_perc,2024.1.4,Win32,60.60606061,,,,,,,,,,,,,,,,,,,,,,,,,,,,,,,,,,,
17.0064,23.5823,0,3,3,3,1,"Presiona la tecla 1 si piensas que es una palabra real y la tecla 
  0 si piensas que es una palabra falsa. 
  
  Vamos a practicar un poco...",(presiona la barra espaciadora para continuar),661d78992081260278eea965,001,2024-06-03_09h26.45.477,empathy_intonation_perc,2024.1.4,Win32,60.60606061,,,,,,,,,,,,,,,,,,,,,,,,,,,,,,,,,,,
,,,,,,,,,661d78992081260278eea965,001,2024-06-03_09h26.45.477,empathy_intonation_perc,2024.1.4,Win32,60.60606061,23.5878,30.2208,1,0,6.0993,,30.2212,31.221,0,0,0,0,1,0,depiste,0,REAL,FALSA,,,,,,,,,,,,,,,,,
,,,,,,,,,661d78992081260278eea965,001,2024-06-03_09h26.45.477,empathy_intonation_perc,2024.1.4,Win32,60.60606061,31.2219,32.633,1,1,0.8676,,32.6331,33.6226,0,1,1,1,1,0,sí,1,REAL,FALSA,,,,,,,,,,,,,,,,,
,,,,,,,,,661d78992081260278eea965,001,2024-06-03_09h26.45.477,empathy_intonation_perc,2024.1.4,Win32,60.60606061,33.623,36.1406,0,1,1.9686,,36.1407,37.1358,0,2,2,2,1,0,coné,0,REAL,FALSA,,,,,,,,,,,,,,,,,
,,,,,,,,,661d78992081260278eea965,001,2024-06-03_09h26.45.477,empathy_intonation_perc,2024.1.4,Win32,60.60606061,37.1362,38.6037,1,0,0.9345,,38.6038,39.5932,0,3,3,3,1,0,calpar,0,REAL,FALSA,,,,,,,,,,,,,,,,,
,,,,,,,,,661d78992081260278eea965,001,2024-06-03_09h26.45.477,empathy_intonation_perc,2024.1.4,Win32,60.60606061,39.5937,42.0613,0,1,1.9179,,42.0614,43.0624,0,4,4,4,1,0,joten,0,REAL,FALSA,,,,,,,,,,,,,,,,,
,,,,,,,,,661d78992081260278eea965,001,2024-06-03_09h26.45.477,empathy_intonation_perc,2024.1.4,Win32,60.60606061,43.0628,44.8134,0,0,1.2004,,44.8135,45.8143,0,5,5,5,1,0,sacapuntas,1,REAL,FALSA,,,,,,,,,,,,,,,,,
,,,,,,,,,661d78992081260278eea965,001,2024-06-03_09h26.45.477,empathy_intonation_perc,2024.1.4,Win32,60.60606061,45.815,47.1648,1,0,0.8008,,47.165,48.1653,0,6,6,6,1,0,priba,0,REAL,FALSA,,,,,,,,,,,,,,,,,
,,,,,,,,,661d78992081260278eea965,001,2024-06-03_09h26.45.477,empathy_intonation_perc,2024.1.4,Win32,60.60606061,48.1656,50.0504,1,0,1.3508,,50.0504,51.0511,0,7,7,7,1,0,pelasula,0,REAL,FALSA,,,,,,,,,,,,,,,,,
,,,,,,,,,661d78992081260278eea965,001,2024-06-03_09h26.45.477,empathy_intonation_perc,2024.1.4,Win32,60.60606061,51.0517,52.2188,1,1,0.6174,,52.2189,53.219,0,8,8,8,1,0,bien,1,REAL,FALSA,,,,,,,,,,,,,,,,,
,,,,,,,,,661d78992081260278eea965,001,2024-06-03_09h26.45.477,empathy_intonation_perc,2024.1.4,Win32,60.60606061,53.2195,54.9371,1,1,1.1732,,54.9372,55.9378,0,9,9,9,1,0,casa,1,REAL,FALSA,,,,,,,,,,,,,,,,,
,,,,,,,,,661d78992081260278eea965,001,2024-06-03_09h26.45.477,empathy_intonation_perc,2024.1.4,Win32,60.60606061,55.9382,57.4721,1,0,0.9852,,57.4722,58.4729,0,10,10,10,1,0,lejo,0,REAL,FALSA,,,,,,,,,,,,,,,,,
,,,,,,,,,661d78992081260278eea965,001,2024-06-03_09h26.45.477,empathy_intonation_perc,2024.1.4,Win32,60.60606061,58.494,60.5524,0,1,1.5183,,60.5525,61.5418,0,11,11,11,1,0,pretantas,0,REAL,FALSA,,,,,,,,,,,,,,,,,
,,,,,,,,,661d78992081260278eea965,001,2024-06-03_09h26.45.477,empathy_intonation_perc,2024.1.4,Win32,60.60606061,,,,,,,,,,,,,,,,,,,61.5427,64.4445,,,,,,,,,,,,,,,
,,,,,,,,,661d78992081260278eea965,001,2024-06-03_09h26.45.477,empathy_intonation_perc,2024.1.4,Win32,60.60606061,,,,,,,,,,,,,,79,filte,,,,,,64.4748,68.1641,0,1,3.152,,0,0,0,78,1,pseudoword,0,REAL,FALSA
,,,,,,,,,661d78992081260278eea965,001,2024-06-03_09h26.45.477,empathy_intonation_perc,2024.1.4,Win32,60.60606061,,,,,,,,,,,,,,70,hunten,,,,,,68.185,70.6978,0,1,1.9724,,0,1,1,69,1,pseudoword,0,REAL,FALSA
,,,,,,,,,661d78992081260278eea965,001,2024-06-03_09h26.45.477,empathy_intonation_perc,2024.1.4,Win32,60.60606061,,,,,,,,,,,,,,62,sujo,,,,,,70.6984,71.8989,1,0,0.6509,,0,2,2,61,1,pseudoword,0,REAL,FALSA
,,,,,,,,,661d78992081260278eea965,001,2024-06-03_09h26.45.477,empathy_intonation_perc,2024.1.4,Win32,60.60606061,,,,,,,,,,,,,,29,cesta,,,,,,71.8994,73.25,1,0,0.8031,,0,3,3,28,1,non_cognate,1,REAL,FALSA
,,,,,,,,,661d78992081260278eea965,001,2024-06-03_09h26.45.477,empathy_intonation_perc,2024.1.4,Win32,60.60606061,,,,,,,,,,,,,,41,salto,,,,,,73.2504,74.9342,1,0,1.1348,,0,4,4,40,1,non_cognate,1,REAL,FALSA
,,,,,,,,,661d78992081260278eea965,001,2024-06-03_09h26.45.477,empathy_intonation_perc,2024.1.4,Win32,60.60606061,,,,,,,,,,,,,,92,nasce,,,,,,74.9348,76.2684,0,1,0.8049,,0,5,5,91,1,pseudoword,0,REAL,FALSA
,,,,,,,,,661d78992081260278eea965,001,2024-06-03_09h26.45.477,empathy_intonation_perc,2024.1.4,Win32,60.60606061,,,,,,,,,,,,,,52,coriar,,,,,,76.269,78.1364,1,0,1.3346,,0,6,6,51,1,pseudoword,0,REAL,FALSA
,,,,,,,,,661d78992081260278eea965,001,2024-06-03_09h26.45.477,empathy_intonation_perc,2024.1.4,Win32,60.60606061,,,,,,,,,,,,,,18,honor,,,,,,78.1369,80.4214,0,1,1.736,,0,7,7,17,1,two_way_cognate,1,REAL,FALSA
,,,,,,,,,661d78992081260278eea965,001,2024-06-03_09h26.45.477,empathy_intonation_perc,2024.1.4,Win32,60.60606061,,,,,,,,,,,,,,23,editor,,,,,,80.4219,83.1567,1,0,2.185,,0,8,8,22,1,two_way_cognate,1,REAL,FALSA
,,,,,,,,,661d78992081260278eea965,001,2024-06-03_09h26.45.477,empathy_intonation_perc,2024.1.4,Win32,60.60606061,,,,,,,,,,,,,,91,chote,,,,,,83.1572,84.7076,1,0,1.0011,,0,9,9,90,1,pseudoword,0,REAL,FALSA
,,,,,,,,,661d78992081260278eea965,001,2024-06-03_09h26.45.477,empathy_intonation_perc,2024.1.4,Win32,60.60606061,,,,,,,,,,,,,,75,babrá,,,,,,84.7081,86.7428,0,1,1.4846,,0,10,10,74,1,pseudoword,0,REAL,FALSA
,,,,,,,,,661d78992081260278eea965,001,2024-06-03_09h26.45.477,empathy_intonation_perc,2024.1.4,Win32,60.60606061,,,,,,,,,,,,,,77,toges,,,,,,86.7434,88.1268,1,0,0.8338,,0,11,11,76,1,pseudoword,0,REAL,FALSA
,,,,,,,,,661d78992081260278eea965,001,2024-06-03_09h26.45.477,empathy_intonation_perc,2024.1.4,Win32,60.60606061,,,,,,,,,,,,,,33,latón,,,,,,88.1272,90.2781,1,0,1.6018,,0,12,12,32,1,non_cognate,1,REAL,FALSA
,,,,,,,,,661d78992081260278eea965,001,2024-06-03_09h26.45.477,empathy_intonation_perc,2024.1.4,Win32,60.60606061,,,,,,,,,,,,,,56,qucrá,,,,,,90.2785,92.2129,0,1,1.4013,,0,13,13,55,1,pseudoword,0,REAL,FALSA
,,,,,,,,,661d78992081260278eea965,001,2024-06-03_09h26.45.477,empathy_intonation_perc,2024.1.4,Win32,60.60606061,,,,,,,,,,,,,,2,clan,,,,,,92.2134,93.8973,1,0,1.1346,,0,14,14,1,1,three_way_cognate,1,REAL,FALSA
,,,,,,,,,661d78992081260278eea965,001,2024-06-03_09h26.45.477,empathy_intonation_perc,2024.1.4,Win32,60.60606061,,,,,,,,,,,,,,96,brigan,,,,,,93.8979,95.7321,0,1,1.2844,,0,15,15,95,1,pseudoword,0,REAL,FALSA
,,,,,,,,,661d78992081260278eea965,001,2024-06-03_09h26.45.477,empathy_intonation_perc,2024.1.4,Win32,60.60606061,,,,,,,,,,,,,,51,tandir,,,,,,95.7327,97.4,1,0,1.1127,,0,16,16,50,1,pseudoword,0,REAL,FALSA
,,,,,,,,,661d78992081260278eea965,001,2024-06-03_09h26.45.477,empathy_intonation_perc,2024.1.4,Win32,60.60606061,,,,,,,,,,,,,,40,cuento,,,,,,97.4005,98.5736,1,0,0.6507,,0,17,17,39,1,non_cognate,1,REAL,FALSA
,,,,,,,,,661d78992081260278eea965,001,2024-06-03_09h26.45.477,empathy_intonation_perc,2024.1.4,Win32,60.60606061,,,,,,,,,,,,,,7,retina,,,,,,98.5742,100.5019,1,0,1.3897,,0,18,18,6,1,three_way_cognate,1,REAL,FALSA
,,,,,,,,,661d78992081260278eea965,001,2024-06-03_09h26.45.477,empathy_intonation_perc,2024.1.4,Win32,60.60606061,,,,,,,,,,,,,,57,calto,,,,,,100.5024,103.8811,0,1,2.8384,,0,19,19,56,1,pseudoword,0,REAL,FALSA
,,,,,,,,,661d78992081260278eea965,001,2024-06-03_09h26.45.477,empathy_intonation_perc,2024.1.4,Win32,60.60606061,,,,,,,,,,,,,,24,civil,,,,,,103.8818,105.1217,1,0,0.7034,,0,20,20,23,1,two_way_cognate,1,REAL,FALSA
,,,,,,,,,661d78992081260278eea965,001,2024-06-03_09h26.45.477,empathy_intonation_perc,2024.1.4,Win32,60.60606061,,,,,,,,,,,,,,81,rombar,,,,,,105.1222,106.773,1,0,1.1178,,0,21,21,80,1,pseudoword,0,REAL,FALSA
,,,,,,,,,661d78992081260278eea965,001,2024-06-03_09h26.45.477,empathy_intonation_perc,2024.1.4,Win32,60.60606061,,,,,,,,,,,,,,49,diebro,,,,,,106.7734,109.6616,0,1,2.3397,,0,22,22,48,1,pseudoword,0,REAL,FALSA
,,,,,,,,,661d78992081260278eea965,001,2024-06-03_09h26.45.477,empathy_intonation_perc,2024.1.4,Win32,60.60606061,,,,,,,,,,,,,,3,bingo,,,,,,109.6621,110.909,1,0,0.704,,0,23,23,2,1,three_way_cognate,1,REAL,FALSA
,,,,,,,,,661d78992081260278eea965,001,2024-06-03_09h26.45.477,empathy_intonation_perc,2024.1.4,Win32,60.60606061,,,,,,,,,,,,,,74,mibro,,,,,,110.9094,112.4601,0,1,1.0172,,0,24,24,73,1,pseudoword,0,REAL,FALSA
,,,,,,,,,661d78992081260278eea965,001,2024-06-03_09h26.45.477,empathy_intonation_perc,2024.1.4,Win32,60.60606061,,,,,,,,,,,,,,50,suaja,,,,,,112.4606,113.6952,0,1,0.7014,,0,25,25,49,1,pseudoword,0,REAL,FALSA
,,,,,,,,,661d78992081260278eea965,001,2024-06-03_09h26.45.477,empathy_intonation_perc,2024.1.4,Win32,60.60606061,,,,,,,,,,,,,,5,fauna,,,,,,113.6956,114.9791,1,0,0.7382,,0,26,26,4,1,three_way_cognate,1,REAL,FALSA
,,,,,,,,,661d78992081260278eea965,001,2024-06-03_09h26.45.477,empathy_intonation_perc,2024.1.4,Win32,60.60606061,,,,,,,,,,,,,,89,barezo,,,,,,114.9796,116.4633,1,0,0.934,,0,27,27,88,1,pseudoword,0,REAL,FALSA
,,,,,,,,,661d78992081260278eea965,001,2024-06-03_09h26.45.477,empathy_intonation_perc,2024.1.4,Win32,60.60606061,,,,,,,,,,,,,,48,taza,,,,,,116.4638,117.764,0,1,0.7513,,0,28,28,47,1,non_cognate,1,REAL,FALSA
,,,,,,,,,661d78992081260278eea965,001,2024-06-03_09h26.45.477,empathy_intonation_perc,2024.1.4,Win32,60.60606061,,,,,,,,,,,,,,83,monsos,,,,,,117.7647,120.7327,0,1,2.4186,,0,29,29,82,1,pseudoword,0,REAL,FALSA
,,,,,,,,,661d78992081260278eea965,001,2024-06-03_09h26.45.477,empathy_intonation_perc,2024.1.4,Win32,60.60606061,,,,,,,,,,,,,,12,bar,,,,,,120.7537,121.8003,1,0,0.5027,,0,30,30,11,1,three_way_cognate,1,REAL,FALSA
,,,,,,,,,661d78992081260278eea965,001,2024-06-03_09h26.45.477,empathy_intonation_perc,2024.1.4,Win32,60.60606061,,,,,,,,,,,,,,15,actor,,,,,,121.8009,122.9011,1,0,0.5521,,0,31,31,14,1,two_way_cognate,1,REAL,FALSA
,,,,,,,,,661d78992081260278eea965,001,2024-06-03_09h26.45.477,empathy_intonation_perc,2024.1.4,Win32,60.60606061,,,,,,,,,,,,,,80,suelet,,,,,,122.9015,125.2142,1,0,1.7682,,0,32,32,79,1,pseudoword,0,REAL,FALSA
,,,,,,,,,661d78992081260278eea965,001,2024-06-03_09h26.45.477,empathy_intonation_perc,2024.1.4,Win32,60.60606061,,,,,,,,,,,,,,16,animal,,,,,,125.2148,126.3201,1,0,0.5677,,0,33,33,15,1,two_way_cognate,1,REAL,FALSA
,,,,,,,,,661d78992081260278eea965,001,2024-06-03_09h26.45.477,empathy_intonation_perc,2024.1.4,Win32,60.60606061,,,,,,,,,,,,,,45,viga,,,,,,126.3206,127.9825,1,0,1.1178,,0,34,34,44,1,non_cognate,1,REAL,FALSA
,,,,,,,,,661d78992081260278eea965,001,2024-06-03_09h26.45.477,empathy_intonation_perc,2024.1.4,Win32,60.60606061,,,,,,,,,,,,,,31,campo,,,,,,127.983,129.3723,1,0,0.8509,,0,35,35,30,1,non_cognate,1,REAL,FALSA
,,,,,,,,,661d78992081260278eea965,001,2024-06-03_09h26.45.477,empathy_intonation_perc,2024.1.4,Win32,60.60606061,,,,,,,,,,,,,,11,sauna,,,,,,129.3728,130.5231,1,0,0.6002,,0,36,36,10,1,three_way_cognate,1,REAL,FALSA
,,,,,,,,,661d78992081260278eea965,001,2024-06-03_09h26.45.477,empathy_intonation_perc,2024.1.4,Win32,60.60606061,,,,,,,,,,,,,,17,enigma,,,,,,130.5235,131.7239,1,0,0.652,,0,37,37,16,1,two_way_cognate,1,REAL,FALSA
,,,,,,,,,661d78992081260278eea965,001,2024-06-03_09h26.45.477,empathy_intonation_perc,2024.1.4,Win32,60.60606061,,,,,,,,,,,,,,26,hilo,,,,,,131.7244,133.0415,0,1,0.7679,,0,38,38,25,1,non_cognate,1,REAL,FALSA
,,,,,,,,,661d78992081260278eea965,001,2024-06-03_09h26.45.477,empathy_intonation_perc,2024.1.4,Win32,60.60606061,,,,,,,,,,,,,,43,huella,,,,,,133.042,134.9261,1,0,1.3344,,0,39,39,42,1,non_cognate,1,REAL,FALSA
,,,,,,,,,661d78992081260278eea965,001,2024-06-03_09h26.45.477,empathy_intonation_perc,2024.1.4,Win32,60.60606061,,,,,,,,,,,,,,72,diguán,,,,,,134.9268,136.1934,0,1,0.7179,,0,40,40,71,1,pseudoword,0,REAL,FALSA
,,,,,,,,,661d78992081260278eea965,001,2024-06-03_09h26.45.477,empathy_intonation_perc,2024.1.4,Win32,60.60606061,,,,,,,,,,,,,,35,pájaro,,,,,,136.194,137.978,0,1,1.2337,,0,41,41,34,1,non_cognate,1,REAL,FALSA
,,,,,,,,,661d78992081260278eea965,001,2024-06-03_09h26.45.477,empathy_intonation_perc,2024.1.4,Win32,60.60606061,,,,,,,,,,,,,,60,debada,,,,,,137.9785,139.5287,0,1,1.0036,,0,42,42,59,1,pseudoword,0,REAL,FALSA
,,,,,,,,,661d78992081260278eea965,001,2024-06-03_09h26.45.477,empathy_intonation_perc,2024.1.4,Win32,60.60606061,,,,,,,,,,,,,,86,abamos,,,,,,139.5291,140.8635,1,0,0.8008,,0,43,43,85,1,pseudoword,0,REAL,FALSA
,,,,,,,,,661d78992081260278eea965,001,2024-06-03_09h26.45.477,empathy_intonation_perc,2024.1.4,Win32,60.60606061,,,,,,,,,,,,,,68,hurmo,,,,,,140.8641,143.0155,1,0,1.6015,,0,44,44,67,1,pseudoword,0,REAL,FALSA
,,,,,,,,,661d78992081260278eea965,001,2024-06-03_09h26.45.477,empathy_intonation_perc,2024.1.4,Win32,60.60606061,,,,,,,,,,,,,,58,abunal,,,,,,143.0159,144.633,0,1,1.0683,,0,45,45,57,1,pseudoword,0,REAL,FALSA
,,,,,,,,,661d78992081260278eea965,001,2024-06-03_09h26.45.477,empathy_intonation_perc,2024.1.4,Win32,60.60606061,,,,,,,,,,,,,,66,clazas,,,,,,144.6336,145.9834,0,1,0.8007,,0,46,46,65,1,pseudoword,0,REAL,FALSA
,,,,,,,,,661d78992081260278eea965,001,2024-06-03_09h26.45.477,empathy_intonation_perc,2024.1.4,Win32,60.60606061,,,,,,,,,,,,,,71,rande,,,,,,145.9839,148.0852,0,1,1.5518,,0,47,47,70,1,pseudoword,0,REAL,FALSA
,,,,,,,,,661d78992081260278eea965,001,2024-06-03_09h26.45.477,empathy_intonation_perc,2024.1.4,Win32,60.60606061,,,,,,,,,,,,,,38,trenza,,,,,,148.0856,149.7197,1,0,1.0842,,0,48,48,37,1,non_cognate,1,REAL,FALSA
,,,,,,,,,661d78992081260278eea965,001,2024-06-03_09h26.45.477,empathy_intonation_perc,2024.1.4,Win32,60.60606061,,,,,,,,,,,,,,53,samón,,,,,,149.7202,151.4043,1,0,1.134,,0,49,49,52,1,pseudoword,0,REAL,FALSA
,,,,,,,,,661d78992081260278eea965,001,2024-06-03_09h26.45.477,empathy_intonation_perc,2024.1.4,Win32,60.60606061,,,,,,,,,,,,,,82,alla,,,,,,151.405,153.0385,0,1,1.0849,,0,50,50,81,1,pseudoword,0,REAL,FALSA
,,,,,,,,,661d78992081260278eea965,001,2024-06-03_09h26.45.477,empathy_intonation_perc,2024.1.4,Win32,60.60606061,,,,,,,,,,,,,,32,caro,,,,,,153.039,154.3393,1,0,0.756,,0,51,51,31,1,non_cognate,1,REAL,FALSA
,,,,,,,,,661d78992081260278eea965,001,2024-06-03_09h26.45.477,empathy_intonation_perc,2024.1.4,Win32,60.60606061,,,,,,,,,,,,,,73,meolar,,,,,,154.3398,155.807,0,1,0.9181,,0,52,52,72,1,pseudoword,0,REAL,FALSA
,,,,,,,,,661d78992081260278eea965,001,2024-06-03_09h26.45.477,empathy_intonation_perc,2024.1.4,Win32,60.60606061,,,,,,,,,,,,,,85,tutaba,,,,,,155.8075,157.2416,0,1,0.8843,,0,53,53,84,1,pseudoword,0,REAL,FALSA
,,,,,,,,,661d78992081260278eea965,001,2024-06-03_09h26.45.477,empathy_intonation_perc,2024.1.4,Win32,60.60606061,,,,,,,,,,,,,,4,chip,,,,,,157.2421,158.3587,1,0,0.5677,,0,54,54,3,1,three_way_cognate,1,REAL,FALSA
,,,,,,,,,661d78992081260278eea965,001,2024-06-03_09h26.45.477,empathy_intonation_perc,2024.1.4,Win32,60.60606061,,,,,,,,,,,,,,65,edidé,,,,,,158.3592,160.0099,1,0,1.1015,,0,55,55,64,1,pseudoword,0,REAL,FALSA
,,,,,,,,,661d78992081260278eea965,001,2024-06-03_09h26.45.477,empathy_intonation_perc,2024.1.4,Win32,60.60606061,,,,,,,,,,,,,,63,aljizo,,,,,,160.0103,162.0781,0,1,1.5181,,0,56,56,62,1,pseudoword,0,REAL,FALSA
,,,,,,,,,661d78992081260278eea965,001,2024-06-03_09h26.45.477,empathy_intonation_perc,2024.1.4,Win32,60.60606061,,,,,,,,,,,,,,46,cumbre,,,,,,162.0786,163.196,1,0,0.5673,,0,57,57,45,1,non_cognate,1,REAL,FALSA
,,,,,,,,,661d78992081260278eea965,001,2024-06-03_09h26.45.477,empathy_intonation_perc,2024.1.4,Win32,60.60606061,,,,,,,,,,,,,,67,huzas,,,,,,163.1965,165.297,1,0,1.5489,,0,58,58,66,1,pseudoword,0,REAL,FALSA
,,,,,,,,,661d78992081260278eea965,001,2024-06-03_09h26.45.477,empathy_intonation_perc,2024.1.4,Win32,60.60606061,,,,,,,,,,,,,,61,trip,,,,,,165.2976,166.3646,1,0,0.5171,,0,59,59,60,1,pseudoword,0,REAL,FALSA
,,,,,,,,,661d78992081260278eea965,001,2024-06-03_09h26.45.477,empathy_intonation_perc,2024.1.4,Win32,60.60606061,,,,,,,,,,,,,,59,mandio,,,,,,166.365,167.8657,1,0,0.951,,0,60,60,58,1,pseudoword,0,REAL,FALSA
,,,,,,,,,661d78992081260278eea965,001,2024-06-03_09h26.45.477,empathy_intonation_perc,2024.1.4,Win32,60.60606061,,,,,,,,,,,,,,9,limbo,,,,,,167.8662,169.0331,1,0,0.6184,,0,61,61,8,1,three_way_cognate,1,REAL,FALSA
,,,,,,,,,661d78992081260278eea965,001,2024-06-03_09h26.45.477,empathy_intonation_perc,2024.1.4,Win32,60.60606061,,,,,,,,,,,,,,19,pelvis,,,,,,169.0336,170.1336,1,0,0.5513,,0,62,62,18,1,two_way_cognate,1,REAL,FALSA
,,,,,,,,,661d78992081260278eea965,001,2024-06-03_09h26.45.477,empathy_intonation_perc,2024.1.4,Win32,60.60606061,,,,,,,,,,,,,,94,bomos,,,,,,170.1341,171.5348,0,1,0.8675,,0,63,63,93,1,pseudoword,0,REAL,FALSA
,,,,,,,,,661d78992081260278eea965,001,2024-06-03_09h26.45.477,empathy_intonation_perc,2024.1.4,Win32,60.60606061,,,,,,,,,,,,,,14,clamor,,,,,,171.5353,172.8859,1,0,0.8013,,0,64,64,13,1,two_way_cognate,1,REAL,FALSA
,,,,,,,,,661d78992081260278eea965,001,2024-06-03_09h26.45.477,empathy_intonation_perc,2024.1.4,Win32,60.60606061,,,,,,,,,,,,,,47,alivio,,,,,,172.8863,174.77,1,0,1.3393,,0,65,65,46,1,non_cognate,1,REAL,FALSA
,,,,,,,,,661d78992081260278eea965,001,2024-06-03_09h26.45.477,empathy_intonation_perc,2024.1.4,Win32,60.60606061,,,,,,,,,,,,,,8,solar,,,,,,174.7705,176.1544,1,0,0.8504,,0,66,66,7,1,three_way_cognate,1,REAL,FALSA
,,,,,,,,,661d78992081260278eea965,001,2024-06-03_09h26.45.477,empathy_intonation_perc,2024.1.4,Win32,60.60606061,,,,,,,,,,,,,,87,racaer,,,,,,176.1548,177.884,0,1,1.2015,,0,67,67,86,1,pseudoword,0,REAL,FALSA
,,,,,,,,,661d78992081260278eea965,001,2024-06-03_09h26.45.477,empathy_intonation_perc,2024.1.4,Win32,60.60606061,,,,,,,,,,,,,,36,visión,,,,,,177.8847,179.852,1,0,1.4351,,0,68,68,35,1,non_cognate,1,REAL,FALSA
,,,,,,,,,661d78992081260278eea965,001,2024-06-03_09h26.45.477,empathy_intonation_perc,2024.1.4,Win32,60.60606061,,,,,,,,,,,,,,6,horror,,,,,,179.8526,181.5256,1,0,1.1339,,0,69,69,5,1,three_way_cognate,1,REAL,FALSA
,,,,,,,,,661d78992081260278eea965,001,2024-06-03_09h26.45.477,empathy_intonation_perc,2024.1.4,Win32,60.60606061,,,,,,,,,,,,,,90,duyo,,,,,,181.526,182.7586,0,1,0.6846,,0,70,70,89,1,pseudoword,0,REAL,FALSA
,,,,,,,,,661d78992081260278eea965,001,2024-06-03_09h26.45.477,empathy_intonation_perc,2024.1.4,Win32,60.60606061,,,,,,,,,,,,,,22,pasta,,,,,,182.7589,183.8935,1,0,0.6008,,0,71,71,21,1,two_way_cognate,1,REAL,FALSA
,,,,,,,,,661d78992081260278eea965,001,2024-06-03_09h26.45.477,empathy_intonation_perc,2024.1.4,Win32,60.60606061,,,,,,,,,,,,,,42,premio,,,,,,183.8941,185.5614,1,0,1.1181,,0,72,72,41,1,non_cognate,1,REAL,FALSA
,,,,,,,,,661d78992081260278eea965,001,2024-06-03_09h26.45.477,empathy_intonation_perc,2024.1.4,Win32,60.60606061,,,,,,,,,,,,,,30,llamar,,,,,,185.562,186.9622,1,0,0.8694,,0,73,73,29,1,non_cognate,1,REAL,FALSA
,,,,,,,,,661d78992081260278eea965,001,2024-06-03_09h26.45.477,empathy_intonation_perc,2024.1.4,Win32,60.60606061,,,,,,,,,,,,,,13,aurora,,,,,,186.9626,188.2294,1,0,0.7225,,0,74,74,12,1,two_way_cognate,1,REAL,FALSA
,,,,,,,,,661d78992081260278eea965,001,2024-06-03_09h26.45.477,empathy_intonation_perc,2024.1.4,Win32,60.60606061,,,,,,,,,,,,,,55,ropis,,,,,,188.2299,189.3743,0,1,0.6167,,0,75,75,54,1,pseudoword,0,REAL,FALSA
,,,,,,,,,661d78992081260278eea965,001,2024-06-03_09h26.45.477,empathy_intonation_perc,2024.1.4,Win32,60.60606061,,,,,,,,,,,,,,1,torso,,,,,,189.3746,190.5148,1,0,0.6008,,0,76,76,0,1,three_way_cognate,1,REAL,FALSA
,,,,,,,,,661d78992081260278eea965,001,2024-06-03_09h26.45.477,empathy_intonation_perc,2024.1.4,Win32,60.60606061,,,,,,,,,,,,,,54,barbo,,,,,,190.5151,192.4492,0,1,1.4006,,0,77,77,53,1,pseudoword,0,REAL,FALSA
,,,,,,,,,661d78992081260278eea965,001,2024-06-03_09h26.45.477,empathy_intonation_perc,2024.1.4,Win32,60.60606061,,,,,,,,,,,,,,34,sermón,,,,,,192.4496,193.6835,0,1,0.6843,,0,78,78,33,1,non_cognate,1,REAL,FALSA
,,,,,,,,,661d78992081260278eea965,001,2024-06-03_09h26.45.477,empathy_intonation_perc,2024.1.4,Win32,60.60606061,,,,,,,,,,,,,,88,hento,,,,,,193.6841,195.5852,0,1,1.3514,,0,79,79,87,1,pseudoword,0,REAL,FALSA
,,,,,,,,,661d78992081260278eea965,001,2024-06-03_09h26.45.477,empathy_intonation_perc,2024.1.4,Win32,60.60606061,,,,,,,,,,,,,,10,tango,,,,,,195.5857,196.6855,1,0,0.5509,,0,80,80,9,1,three_way_cognate,1,REAL,FALSA
,,,,,,,,,661d78992081260278eea965,001,2024-06-03_09h26.45.477,empathy_intonation_perc,2024.1.4,Win32,60.60606061,,,,,,,,,,,,,,25,exigir,,,,,,196.686,198.2702,1,0,1.0341,,0,81,81,24,1,non_cognate,1,REAL,FALSA
,,,,,,,,,661d78992081260278eea965,001,2024-06-03_09h26.45.477,empathy_intonation_perc,2024.1.4,Win32,60.60606061,,,,,,,,,,,,,,76,orida,,,,,,198.2707,200.366,0,1,1.5517,,0,82,82,75,1,pseudoword,0,REAL,FALSA
,,,,,,,,,661d78992081260278eea965,001,2024-06-03_09h26.45.477,empathy_intonation_perc,2024.1.4,Win32,60.60606061,,,,,,,,,,,,,,37,delito,,,,,,200.3666,202.4732,0,1,1.5682,,0,83,83,36,1,non_cognate,1,REAL,FALSA
,,,,,,,,,661d78992081260278eea965,001,2024-06-03_09h26.45.477,empathy_intonation_perc,2024.1.4,Win32,60.60606061,,,,,,,,,,,,,,28,debido,,,,,,202.4736,204.0405,1,0,1.0218,,0,84,84,27,1,non_cognate,1,REAL,FALSA
,,,,,,,,,661d78992081260278eea965,001,2024-06-03_09h26.45.477,empathy_intonation_perc,2024.1.4,Win32,60.60606061,,,,,,,,,,,,,,84,jomas,,,,,,204.0409,206.4921,0,1,1.9223,,0,85,85,83,1,pseudoword,0,REAL,FALSA
,,,,,,,,,661d78992081260278eea965,001,2024-06-03_09h26.45.477,empathy_intonation_perc,2024.1.4,Win32,60.60606061,,,,,,,,,,,,,,21,casual,,,,,,206.5131,207.6096,1,0,0.5553,,0,86,86,20,1,two_way_cognate,1,REAL,FALSA
,,,,,,,,,661d78992081260278eea965,001,2024-06-03_09h26.45.477,empathy_intonation_perc,2024.1.4,Win32,60.60606061,,,,,,,,,,,,,,64,altimo,,,,,,207.61,209.3946,1,0,1.2344,,0,87,87,63,1,pseudoword,0,REAL,FALSA
,,,,,,,,,661d78992081260278eea965,001,2024-06-03_09h26.45.477,empathy_intonation_perc,2024.1.4,Win32,60.60606061,,,,,,,,,,,,,,44,llamar,,,,,,209.3953,210.8622,1,0,0.9177,,0,88,88,43,1,non_cognate,1,REAL,FALSA
,,,,,,,,,661d78992081260278eea965,001,2024-06-03_09h26.45.477,empathy_intonation_perc,2024.1.4,Win32,60.60606061,,,,,,,,,,,,,,39,pista,,,,,,210.8627,212.2794,0,1,0.872,,0,89,89,38,1,non_cognate,1,REAL,FALSA
,,,,,,,,,661d78992081260278eea965,001,2024-06-03_09h26.45.477,empathy_intonation_perc,2024.1.4,Win32,60.60606061,,,,,,,,,,,,,,95,aclaya,,,,,,212.2799,213.8086,0,1,0.9841,,0,90,90,94,1,pseudoword,0,REAL,FALSA
,,,,,,,,,661d78992081260278eea965,001,2024-06-03_09h26.45.477,empathy_intonation_perc,2024.1.4,Win32,60.60606061,,,,,,,,,,,,,,78,alzán,,,,,,213.8092,215.582,0,1,1.2343,,0,91,91,77,1,pseudoword,0,REAL,FALSA
,,,,,,,,,661d78992081260278eea965,001,2024-06-03_09h26.45.477,empathy_intonation_perc,2024.1.4,Win32,60.60606061,,,,,,,,,,,,,,20,total,,,,,,215.5824,216.6335,1,0,0.5233,,0,92,92,19,1,two_way_cognate,1,REAL,FALSA
,,,,,,,,,661d78992081260278eea965,001,2024-06-03_09h26.45.477,empathy_intonation_perc,2024.1.4,Win32,60.60606061,,,,,,,,,,,,,,27,pelado,,,,,,216.634,218.0338,1,0,0.8517,,0,93,93,26,1,non_cognate,1,REAL,FALSA
,,,,,,,,,661d78992081260278eea965,001,2024-06-03_09h26.45.477,empathy_intonation_perc,2024.1.4,Win32,60.60606061,,,,,,,,,,,,,,93,caemal,,,,,,218.0343,219.2347,0,1,0.6518,,0,94,94,92,1,pseudoword,0,REAL,FALSA
,,,,,,,,,661d78992081260278eea965,001,2024-06-03_09h26.45.477,empathy_intonation_perc,2024.1.4,Win32,60.60606061,,,,,,,,,,,,,,69,vemua,,,,,,219.2351,220.7362,0,1,0.9507,,0,95,95,68,1,pseudoword,0,REAL,FALSA
