lextale_instructions.started,lextale_instructions.stopped,lextale_instructions_loop.thisRepN,lextale_instructions_loop.thisTrialN,lextale_instructions_loop.thisN,lextale_instructions_loop.thisIndex,lextale_instructions_loop.ran,instructions_text,continue_text,participant,session,date,expName,psychopyVersion,OS,frameRate,lextale_practice.started,lextale_practice.stopped,key_resp_lextale_practice.keys,key_resp_lextale_practice.corr,key_resp_lextale_practice.rt,key_resp_lextale_practice.duration,lextale_practice_feedback.started,lextale_practice_feedback.stopped,lextale_practice_trials.thisRepN,lextale_practice_trials.thisTrialN,lextale_practice_trials.thisN,lextale_practice_trials.thisIndex,lextale_practice_trials.ran,stim,word,correct_response,prac_button_real,prac_button_false,lextale_check.started,lextale_check.stopped,lextale_trial.started,lextale_trial.stopped,key_resp_lextale_trial.keys,key_resp_lextale_trial.corr,key_resp_lextale_trial.rt,key_resp_lextale_trial.duration,lextail_trials.thisRepN,lextail_trials.thisTrialN,lextail_trials.thisN,lextail_trials.thisIndex,lextail_trials.ran,type,correct_reponse,button_real,button_false
0.0039,8.6724,0,0,0,0,1,"Este es un test de vocabulario en español. 
  
  A continuación vas a ver 90 secuencias de letras que parecen 'españolas'.
  
  Solo algunas de ellas son palabras de verdad.",(presiona la barra espaciadora para continuar),6629435c4c384dcaf8ecce60,001,2024-06-07_07h14.59.069,empathy_intonation_perc,2024.1.4,MacIntel,62.11180124,,,,,,,,,,,,,,,,,,,,,,,,,,,,,,,,,,,
8.673,10.6896,0,1,1,1,1,"Por favor, señala las palabras que tú conoces (aquellas que estás convencido que son palabras españolas, incluso aunque no seas capaz de dar el significado preciso).",(presiona la barra espaciadora para continuar),6629435c4c384dcaf8ecce60,001,2024-06-07_07h14.59.069,empathy_intonation_perc,2024.1.4,MacIntel,62.11180124,,,,,,,,,,,,,,,,,,,,,,,,,,,,,,,,,,,
10.6899,11.6561,0,2,2,2,1,Pero cuidado: los errores se penalizan. Por eso no tiene sentido tratar de incrementar tu puntuación marcando como reales palabras que nunca has visto.,(presiona la barra espaciadora para continuar),6629435c4c384dcaf8ecce60,001,2024-06-07_07h14.59.069,empathy_intonation_perc,2024.1.4,MacIntel,62.11180124,,,,,,,,,,,,,,,,,,,,,,,,,,,,,,,,,,,
11.6564,12.7235,0,3,3,3,1,"Presiona la tecla 1 si piensas que es una palabra real y la tecla 
  0 si piensas que es una palabra falsa. 
  
  Vamos a practicar un poco...",(presiona la barra espaciadora para continuar),6629435c4c384dcaf8ecce60,001,2024-06-07_07h14.59.069,empathy_intonation_perc,2024.1.4,MacIntel,62.11180124,,,,,,,,,,,,,,,,,,,,,,,,,,,,,,,,,,,
,,,,,,,,,6629435c4c384dcaf8ecce60,001,2024-06-07_07h14.59.069,empathy_intonation_perc,2024.1.4,MacIntel,62.11180124,12.7267,34.8939,1,0,21.6231,,34.8942,35.893,0,0,0,0,1,0,depiste,0,REAL,FALSA,,,,,,,,,,,,,,,,,
,,,,,,,,,6629435c4c384dcaf8ecce60,001,2024-06-07_07h14.59.069,empathy_intonation_perc,2024.1.4,MacIntel,62.11180124,35.8933,39.2271,1,1,2.8209,,39.2272,40.2268,0,1,1,1,1,0,sí,1,REAL,FALSA,,,,,,,,,,,,,,,,,
,,,,,,,,,6629435c4c384dcaf8ecce60,001,2024-06-07_07h14.59.069,empathy_intonation_perc,2024.1.4,MacIntel,62.11180124,40.227,41.9275,1,0,1.1791,,41.9275,42.9274,0,2,2,2,1,0,coné,0,REAL,FALSA,,,,,,,,,,,,,,,,,
,,,,,,,,,6629435c4c384dcaf8ecce60,001,2024-06-07_07h14.59.069,empathy_intonation_perc,2024.1.4,MacIntel,62.11180124,42.9277,48.3457,1,0,4.9032,,48.3457,49.3459,0,3,3,3,1,0,calpar,0,REAL,FALSA,,,,,,,,,,,,,,,,,
,,,,,,,,,6629435c4c384dcaf8ecce60,001,2024-06-07_07h14.59.069,empathy_intonation_perc,2024.1.4,MacIntel,62.11180124,49.3463,54.5624,0,1,4.6811,,54.5625,55.5636,0,4,4,4,1,0,joten,0,REAL,FALSA,,,,,,,,,,,,,,,,,
,,,,,,,,,6629435c4c384dcaf8ecce60,001,2024-06-07_07h14.59.069,empathy_intonation_perc,2024.1.4,MacIntel,62.11180124,55.5736,58.4141,1,1,2.3153,,58.4142,59.4142,0,5,5,5,1,0,sacapuntas,1,REAL,FALSA,,,,,,,,,,,,,,,,,
,,,,,,,,,6629435c4c384dcaf8ecce60,001,2024-06-07_07h14.59.069,empathy_intonation_perc,2024.1.4,MacIntel,62.11180124,59.4233,61.6806,1,0,1.7372,,61.6807,62.6806,0,6,6,6,1,0,priba,0,REAL,FALSA,,,,,,,,,,,,,,,,,
,,,,,,,,,6629435c4c384dcaf8ecce60,001,2024-06-07_07h14.59.069,empathy_intonation_perc,2024.1.4,MacIntel,62.11180124,62.6895,63.4139,0,1,0.1971,,63.414,64.414,0,7,7,7,1,0,pelasula,0,REAL,FALSA,,,,,,,,,,,,,,,,,
,,,,,,,,,6629435c4c384dcaf8ecce60,001,2024-06-07_07h14.59.069,empathy_intonation_perc,2024.1.4,MacIntel,62.11180124,64.4143,65.3318,0,0,0.4025,,65.3318,66.3318,0,8,8,8,1,0,bien,1,REAL,FALSA,,,,,,,,,,,,,,,,,
,,,,,,,,,6629435c4c384dcaf8ecce60,001,2024-06-07_07h14.59.069,empathy_intonation_perc,2024.1.4,MacIntel,62.11180124,66.3321,67.6488,1,1,0.7839,,67.6489,68.6491,0,9,9,9,1,0,casa,1,REAL,FALSA,,,,,,,,,,,,,,,,,
,,,,,,,,,6629435c4c384dcaf8ecce60,001,2024-06-07_07h14.59.069,empathy_intonation_perc,2024.1.4,MacIntel,62.11180124,68.6599,70.4325,1,0,1.2526,,70.4325,71.4318,0,10,10,10,1,0,lejo,0,REAL,FALSA,,,,,,,,,,,,,,,,,
,,,,,,,,,6629435c4c384dcaf8ecce60,001,2024-06-07_07h14.59.069,empathy_intonation_perc,2024.1.4,MacIntel,62.11180124,71.432,72.6163,0,1,0.6678,,72.6163,73.6164,0,11,11,11,1,0,pretantas,0,REAL,FALSA,,,,,,,,,,,,,,,,,
,,,,,,,,,6629435c4c384dcaf8ecce60,001,2024-06-07_07h14.59.069,empathy_intonation_perc,2024.1.4,MacIntel,62.11180124,,,,,,,,,,,,,,,,,,,73.6168,76.484,,,,,,,,,,,,,,,
,,,,,,,,,6629435c4c384dcaf8ecce60,001,2024-06-07_07h14.59.069,empathy_intonation_perc,2024.1.4,MacIntel,62.11180124,,,,,,,,,,,,,,3,flora,,,,,,76.4983,78.3668,1,0,1.3558,,0,0,0,2,1,three_way_cognate,1,REAL,FALSA
,,,,,,,,,6629435c4c384dcaf8ecce60,001,2024-06-07_07h14.59.069,empathy_intonation_perc,2024.1.4,MacIntel,62.11180124,,,,,,,,,,,,,,18,mafia,,,,,,78.367,79.7998,1,0,0.9013,,0,1,1,17,1,three_way_cognate,1,REAL,FALSA
,,,,,,,,,6629435c4c384dcaf8ecce60,001,2024-06-07_07h14.59.069,empathy_intonation_perc,2024.1.4,MacIntel,62.11180124,,,,,,,,,,,,,,43,honor,,,,,,79.8001,80.9511,1,0,0.6296,,0,2,2,42,1,two_way_cognate,1,REAL,FALSA
,,,,,,,,,6629435c4c384dcaf8ecce60,001,2024-06-07_07h14.59.069,empathy_intonation_perc,2024.1.4,MacIntel,62.11180124,,,,,,,,,,,,,,108,viarle,,,,,,80.9514,82.4013,0,1,0.9191,,0,3,3,107,1,pseudoword,0,REAL,FALSA
,,,,,,,,,6629435c4c384dcaf8ecce60,001,2024-06-07_07h14.59.069,empathy_intonation_perc,2024.1.4,MacIntel,62.11180124,,,,,,,,,,,,,,101,fertes,,,,,,82.4016,83.6337,1,0,0.7029,,0,4,4,100,1,pseudoword,0,REAL,FALSA
,,,,,,,,,6629435c4c384dcaf8ecce60,001,2024-06-07_07h14.59.069,empathy_intonation_perc,2024.1.4,MacIntel,62.11180124,,,,,,,,,,,,,,37,torso,,,,,,83.6339,84.9345,1,0,0.7735,,0,5,5,36,1,two_way_cognate,1,REAL,FALSA
,,,,,,,,,6629435c4c384dcaf8ecce60,001,2024-06-07_07h14.59.069,empathy_intonation_perc,2024.1.4,MacIntel,62.11180124,,,,,,,,,,,,,,74,ala,,,,,,84.9348,86.3676,0,1,0.9037,,0,6,6,73,1,non_cognate,1,REAL,FALSA
,,,,,,,,,6629435c4c384dcaf8ecce60,001,2024-06-07_07h14.59.069,empathy_intonation_perc,2024.1.4,MacIntel,62.11180124,,,,,,,,,,,,,,141,sumer,,,,,,86.3679,87.3852,1,0,0.5036,,0,7,7,140,1,pseudoword,0,REAL,FALSA
,,,,,,,,,6629435c4c384dcaf8ecce60,001,2024-06-07_07h14.59.069,empathy_intonation_perc,2024.1.4,MacIntel,62.11180124,,,,,,,,,,,,,,57,regalo,,,,,,87.3855,88.6847,1,0,0.7617,,0,8,8,56,1,non_cognate,1,REAL,FALSA
,,,,,,,,,6629435c4c384dcaf8ecce60,001,2024-06-07_07h14.59.069,empathy_intonation_perc,2024.1.4,MacIntel,62.11180124,,,,,,,,,,,,,,59,feo,,,,,,88.685,90.7028,1,0,1.5019,,0,9,9,58,1,non_cognate,1,REAL,FALSA
,,,,,,,,,6629435c4c384dcaf8ecce60,001,2024-06-07_07h14.59.069,empathy_intonation_perc,2024.1.4,MacIntel,62.11180124,,,,,,,,,,,,,,123,escare,,,,,,90.7033,92.6186,1,0,1.3866,,0,10,10,122,1,pseudoword,0,REAL,FALSA
,,,,,,,,,6629435c4c384dcaf8ecce60,001,2024-06-07_07h14.59.069,empathy_intonation_perc,2024.1.4,MacIntel,62.11180124,,,,,,,,,,,,,,91,equipo,,,,,,92.6188,93.8364,1,0,0.6993,,0,11,11,90,1,non_cognate,1,REAL,FALSA
,,,,,,,,,6629435c4c384dcaf8ecce60,001,2024-06-07_07h14.59.069,empathy_intonation_perc,2024.1.4,MacIntel,62.11180124,,,,,,,,,,,,,,124,lobe,,,,,,93.8366,95.0697,1,0,0.7012,,0,12,12,123,1,pseudoword,0,REAL,FALSA
,,,,,,,,,6629435c4c384dcaf8ecce60,001,2024-06-07_07h14.59.069,empathy_intonation_perc,2024.1.4,MacIntel,62.11180124,,,,,,,,,,,,,,93,tapa,,,,,,95.0701,96.0703,1,0,0.4645,,0,13,13,92,1,non_cognate,1,REAL,FALSA
,,,,,,,,,6629435c4c384dcaf8ecce60,001,2024-06-07_07h14.59.069,empathy_intonation_perc,2024.1.4,MacIntel,62.11180124,,,,,,,,,,,,,,60,siglo,,,,,,96.0707,97.7196,0,1,1.1214,,0,14,14,59,1,non_cognate,1,REAL,FALSA
,,,,,,,,,6629435c4c384dcaf8ecce60,001,2024-06-07_07h14.59.069,empathy_intonation_perc,2024.1.4,MacIntel,62.11180124,,,,,,,,,,,,,,69,tiza,,,,,,97.7198,99.0039,0,1,0.7522,,0,15,15,68,1,non_cognate,1,REAL,FALSA
,,,,,,,,,6629435c4c384dcaf8ecce60,001,2024-06-07_07h14.59.069,empathy_intonation_perc,2024.1.4,MacIntel,62.11180124,,,,,,,,,,,,,,64,rizado,,,,,,99.0041,101.4034,0,1,1.8698,,0,16,16,63,1,non_cognate,1,REAL,FALSA
,,,,,,,,,6629435c4c384dcaf8ecce60,001,2024-06-07_07h14.59.069,empathy_intonation_perc,2024.1.4,MacIntel,62.11180124,,,,,,,,,,,,,,42,rumor,,,,,,101.4037,102.6212,1,0,0.7013,,0,17,17,41,1,two_way_cognate,1,REAL,FALSA
,,,,,,,,,6629435c4c384dcaf8ecce60,001,2024-06-07_07h14.59.069,empathy_intonation_perc,2024.1.4,MacIntel,62.11180124,,,,,,,,,,,,,,66,aleta,,,,,,102.6215,103.8543,0,1,0.7002,,0,18,18,65,1,non_cognate,1,REAL,FALSA
,,,,,,,,,6629435c4c384dcaf8ecce60,001,2024-06-07_07h14.59.069,empathy_intonation_perc,2024.1.4,MacIntel,62.11180124,,,,,,,,,,,,,,11,dogma,,,,,,103.8547,104.9717,1,0,0.599,,0,19,19,10,1,three_way_cognate,1,REAL,FALSA
,,,,,,,,,6629435c4c384dcaf8ecce60,001,2024-06-07_07h14.59.069,empathy_intonation_perc,2024.1.4,MacIntel,62.11180124,,,,,,,,,,,,,,23,porno,,,,,,104.972,106.255,1,0,0.7485,,0,20,20,22,1,three_way_cognate,1,REAL,FALSA
,,,,,,,,,6629435c4c384dcaf8ecce60,001,2024-06-07_07h14.59.069,empathy_intonation_perc,2024.1.4,MacIntel,62.11180124,,,,,,,,,,,,,,36,viable,,,,,,106.2552,107.8555,1,0,1.0667,,0,21,21,35,1,two_way_cognate,1,REAL,FALSA
,,,,,,,,,6629435c4c384dcaf8ecce60,001,2024-06-07_07h14.59.069,empathy_intonation_perc,2024.1.4,MacIntel,62.11180124,,,,,,,,,,,,,,52,blando,,,,,,107.8559,109.4224,1,0,1.0291,,0,22,22,51,1,non_cognate,1,REAL,FALSA
,,,,,,,,,6629435c4c384dcaf8ecce60,001,2024-06-07_07h14.59.069,empathy_intonation_perc,2024.1.4,MacIntel,62.11180124,,,,,,,,,,,,,,47,color,,,,,,109.4228,110.706,1,0,0.747,,0,23,23,46,1,two_way_cognate,1,REAL,FALSA
,,,,,,,,,6629435c4c384dcaf8ecce60,001,2024-06-07_07h14.59.069,empathy_intonation_perc,2024.1.4,MacIntel,62.11180124,,,,,,,,,,,,,,15,chat,,,,,,110.7064,111.9051,1,0,0.6711,,0,24,24,14,1,three_way_cognate,1,REAL,FALSA
,,,,,,,,,6629435c4c384dcaf8ecce60,001,2024-06-07_07h14.59.069,empathy_intonation_perc,2024.1.4,MacIntel,62.11180124,,,,,,,,,,,,,,35,aurora,,,,,,111.9054,113.073,1,0,0.653,,0,25,25,34,1,two_way_cognate,1,REAL,FALSA
,,,,,,,,,6629435c4c384dcaf8ecce60,001,2024-06-07_07h14.59.069,empathy_intonation_perc,2024.1.4,MacIntel,62.11180124,,,,,,,,,,,,,,28,ardor,,,,,,113.0733,114.3221,1,0,0.721,,0,26,26,27,1,two_way_cognate,1,REAL,FALSA
,,,,,,,,,6629435c4c384dcaf8ecce60,001,2024-06-07_07h14.59.069,empathy_intonation_perc,2024.1.4,MacIntel,62.11180124,,,,,,,,,,,,,,137,unglés,,,,,,114.3223,116.1902,1,0,1.3524,,0,27,27,136,1,pseudoword,0,REAL,FALSA
,,,,,,,,,6629435c4c384dcaf8ecce60,001,2024-06-07_07h14.59.069,empathy_intonation_perc,2024.1.4,MacIntel,62.11180124,,,,,,,,,,,,,,83,hálito,,,,,,116.1905,117.7071,0,1,0.9875,,0,28,28,82,1,non_cognate,1,REAL,FALSA
,,,,,,,,,6629435c4c384dcaf8ecce60,001,2024-06-07_07h14.59.069,empathy_intonation_perc,2024.1.4,MacIntel,62.11180124,,,,,,,,,,,,,,68,puñal,,,,,,117.7074,121.8577,0,1,3.6139,,0,29,29,67,1,non_cognate,1,REAL,FALSA
,,,,,,,,,6629435c4c384dcaf8ecce60,001,2024-06-07_07h14.59.069,empathy_intonation_perc,2024.1.4,MacIntel,62.11180124,,,,,,,,,,,,,,102,coyo,,,,,,121.868,123.2238,0,1,0.8338,,0,30,30,101,1,pseudoword,0,REAL,FALSA
,,,,,,,,,6629435c4c384dcaf8ecce60,001,2024-06-07_07h14.59.069,empathy_intonation_perc,2024.1.4,MacIntel,62.11180124,,,,,,,,,,,,,,89,muñeca,,,,,,123.2242,124.7077,0,1,0.971,,0,31,31,88,1,non_cognate,1,REAL,FALSA
,,,,,,,,,6629435c4c384dcaf8ecce60,001,2024-06-07_07h14.59.069,empathy_intonation_perc,2024.1.4,MacIntel,62.11180124,,,,,,,,,,,,,,99,mieris,,,,,,124.7079,126.0577,0,1,0.8198,,0,32,32,98,1,pseudoword,0,REAL,FALSA
,,,,,,,,,6629435c4c384dcaf8ecce60,001,2024-06-07_07h14.59.069,empathy_intonation_perc,2024.1.4,MacIntel,62.11180124,,,,,,,,,,,,,,98,erede,,,,,,126.0579,127.5421,0,1,0.9526,,0,33,33,97,1,pseudoword,0,REAL,FALSA
,,,,,,,,,6629435c4c384dcaf8ecce60,001,2024-06-07_07h14.59.069,empathy_intonation_perc,2024.1.4,MacIntel,62.11180124,,,,,,,,,,,,,,31,civil,,,,,,127.5424,128.7578,1,0,0.6814,,0,34,34,30,1,two_way_cognate,1,REAL,FALSA
,,,,,,,,,6629435c4c384dcaf8ecce60,001,2024-06-07_07h14.59.069,empathy_intonation_perc,2024.1.4,MacIntel,62.11180124,,,,,,,,,,,,,,92,flecha,,,,,,128.7582,130.3914,1,0,1.1049,,0,35,35,91,1,non_cognate,1,REAL,FALSA
,,,,,,,,,6629435c4c384dcaf8ecce60,001,2024-06-07_07h14.59.069,empathy_intonation_perc,2024.1.4,MacIntel,62.11180124,,,,,,,,,,,,,,112,cituló,,,,,,130.3916,131.8259,0,1,0.8982,,0,36,36,111,1,pseudoword,0,REAL,FALSA
,,,,,,,,,6629435c4c384dcaf8ecce60,001,2024-06-07_07h14.59.069,empathy_intonation_perc,2024.1.4,MacIntel,62.11180124,,,,,,,,,,,,,,134,fruzas,,,,,,131.8262,134.3927,0,1,2.0298,,0,37,37,133,1,pseudoword,0,REAL,FALSA
,,,,,,,,,6629435c4c384dcaf8ecce60,001,2024-06-07_07h14.59.069,empathy_intonation_perc,2024.1.4,MacIntel,62.11180124,,,,,,,,,,,,,,51,listo,,,,,,134.393,136.1597,1,0,1.2465,,0,38,38,50,1,non_cognate,1,REAL,FALSA
,,,,,,,,,6629435c4c384dcaf8ecce60,001,2024-06-07_07h14.59.069,empathy_intonation_perc,2024.1.4,MacIntel,62.11180124,,,,,,,,,,,,,,41,pasta,,,,,,136.16,137.5271,1,0,0.8297,,0,39,39,40,1,two_way_cognate,1,REAL,FALSA
,,,,,,,,,6629435c4c384dcaf8ecce60,001,2024-06-07_07h14.59.069,empathy_intonation_perc,2024.1.4,MacIntel,62.11180124,,,,,,,,,,,,,,10,golf,,,,,,137.5275,138.7103,1,0,0.6511,,0,40,40,9,1,three_way_cognate,1,REAL,FALSA
,,,,,,,,,6629435c4c384dcaf8ecce60,001,2024-06-07_07h14.59.069,empathy_intonation_perc,2024.1.4,MacIntel,62.11180124,,,,,,,,,,,,,,13,aura,,,,,,138.7106,139.8936,1,0,0.6455,,0,41,41,12,1,three_way_cognate,1,REAL,FALSA
,,,,,,,,,6629435c4c384dcaf8ecce60,001,2024-06-07_07h14.59.069,empathy_intonation_perc,2024.1.4,MacIntel,62.11180124,,,,,,,,,,,,,,77,suave,,,,,,139.894,140.9597,1,0,0.5381,,0,42,42,76,1,non_cognate,1,REAL,FALSA
,,,,,,,,,6629435c4c384dcaf8ecce60,001,2024-06-07_07h14.59.069,empathy_intonation_perc,2024.1.4,MacIntel,62.11180124,,,,,,,,,,,,,,75,patada,,,,,,140.9599,142.0278,1,0,0.5366,,0,43,43,74,1,non_cognate,1,REAL,FALSA
,,,,,,,,,6629435c4c384dcaf8ecce60,001,2024-06-07_07h14.59.069,empathy_intonation_perc,2024.1.4,MacIntel,62.11180124,,,,,,,,,,,,,,127,vien,,,,,,142.0281,142.9774,1,0,0.4146,,0,44,44,126,1,pseudoword,0,REAL,FALSA
,,,,,,,,,6629435c4c384dcaf8ecce60,001,2024-06-07_07h14.59.069,empathy_intonation_perc,2024.1.4,MacIntel,62.11180124,,,,,,,,,,,,,,26,enigma,,,,,,142.9777,143.9112,1,0,0.4024,,0,45,45,25,1,two_way_cognate,1,REAL,FALSA
,,,,,,,,,6629435c4c384dcaf8ecce60,001,2024-06-07_07h14.59.069,empathy_intonation_perc,2024.1.4,MacIntel,62.11180124,,,,,,,,,,,,,,76,chocar,,,,,,143.9115,144.7948,1,0,0.3526,,0,46,46,75,1,non_cognate,1,REAL,FALSA
,,,,,,,,,6629435c4c384dcaf8ecce60,001,2024-06-07_07h14.59.069,empathy_intonation_perc,2024.1.4,MacIntel,62.11180124,,,,,,,,,,,,,,103,babes,,,,,,144.7953,146.078,1,0,0.75,,0,47,47,102,1,pseudoword,0,REAL,FALSA
,,,,,,,,,6629435c4c384dcaf8ecce60,001,2024-06-07_07h14.59.069,empathy_intonation_perc,2024.1.4,MacIntel,62.11180124,,,,,,,,,,,,,,142,viseña,,,,,,146.0784,147.1618,1,0,0.5458,,0,48,48,141,1,pseudoword,0,REAL,FALSA
,,,,,,,,,6629435c4c384dcaf8ecce60,001,2024-06-07_07h14.59.069,empathy_intonation_perc,2024.1.4,MacIntel,62.11180124,,,,,,,,,,,,,,113,difrás,,,,,,147.1622,148.9447,0,1,1.2529,,0,49,49,112,1,pseudoword,0,REAL,FALSA
,,,,,,,,,6629435c4c384dcaf8ecce60,001,2024-06-07_07h14.59.069,empathy_intonation_perc,2024.1.4,MacIntel,62.11180124,,,,,,,,,,,,,,129,suchas,,,,,,148.945,150.3291,0,1,0.8507,,0,50,50,128,1,pseudoword,0,REAL,FALSA
,,,,,,,,,6629435c4c384dcaf8ecce60,001,2024-06-07_07h14.59.069,empathy_intonation_perc,2024.1.4,MacIntel,62.11180124,,,,,,,,,,,,,,119,esís,,,,,,150.3295,152.0794,1,0,1.2191,,0,51,51,118,1,pseudoword,0,REAL,FALSA
,,,,,,,,,6629435c4c384dcaf8ecce60,001,2024-06-07_07h14.59.069,empathy_intonation_perc,2024.1.4,MacIntel,62.11180124,,,,,,,,,,,,,,72,rostro,,,,,,152.0797,153.6129,1,0,0.9984,,0,52,52,71,1,non_cognate,1,REAL,FALSA
,,,,,,,,,6629435c4c384dcaf8ecce60,001,2024-06-07_07h14.59.069,empathy_intonation_perc,2024.1.4,MacIntel,62.11180124,,,,,,,,,,,,,,27,piano,,,,,,153.6133,154.713,1,0,0.5663,,0,53,53,26,1,two_way_cognate,1,REAL,FALSA
,,,,,,,,,6629435c4c384dcaf8ecce60,001,2024-06-07_07h14.59.069,empathy_intonation_perc,2024.1.4,MacIntel,62.11180124,,,,,,,,,,,,,,133,tirafa,,,,,,154.7134,156.03,0,1,0.7779,,0,54,54,132,1,pseudoword,0,REAL,FALSA
,,,,,,,,,6629435c4c384dcaf8ecce60,001,2024-06-07_07h14.59.069,empathy_intonation_perc,2024.1.4,MacIntel,62.11180124,,,,,,,,,,,,,,111,vibler,,,,,,156.0303,157.046,1,0,0.488,,0,55,55,110,1,pseudoword,0,REAL,FALSA
,,,,,,,,,6629435c4c384dcaf8ecce60,001,2024-06-07_07h14.59.069,empathy_intonation_perc,2024.1.4,MacIntel,62.11180124,,,,,,,,,,,,,,17,altar,,,,,,157.0461,158.0459,0,1,0.486,,0,56,56,16,1,three_way_cognate,1,REAL,FALSA
,,,,,,,,,6629435c4c384dcaf8ecce60,001,2024-06-07_07h14.59.069,empathy_intonation_perc,2024.1.4,MacIntel,62.11180124,,,,,,,,,,,,,,2,disco,,,,,,158.0461,159.3462,0,1,0.7896,,0,57,57,1,1,three_way_cognate,1,REAL,FALSA
,,,,,,,,,6629435c4c384dcaf8ecce60,001,2024-06-07_07h14.59.069,empathy_intonation_perc,2024.1.4,MacIntel,62.11180124,,,,,,,,,,,,,,86,cuenco,,,,,,159.3464,160.8137,0,1,0.9394,,0,58,58,85,1,non_cognate,1,REAL,FALSA
,,,,,,,,,6629435c4c384dcaf8ecce60,001,2024-06-07_07h14.59.069,empathy_intonation_perc,2024.1.4,MacIntel,62.11180124,,,,,,,,,,,,,,40,pelvis,,,,,,160.8139,162.4301,1,0,1.1034,,0,59,59,39,1,two_way_cognate,1,REAL,FALSA
,,,,,,,,,6629435c4c384dcaf8ecce60,001,2024-06-07_07h14.59.069,empathy_intonation_perc,2024.1.4,MacIntel,62.11180124,,,,,,,,,,,,,,6,albino,,,,,,162.4303,163.6975,0,1,0.7464,,0,60,60,5,1,three_way_cognate,1,REAL,FALSA
,,,,,,,,,6629435c4c384dcaf8ecce60,001,2024-06-07_07h14.59.069,empathy_intonation_perc,2024.1.4,MacIntel,62.11180124,,,,,,,,,,,,,,82,brillo,,,,,,163.6978,165.3146,0,1,1.0865,,0,61,61,81,1,non_cognate,1,REAL,FALSA
,,,,,,,,,6629435c4c384dcaf8ecce60,001,2024-06-07_07h14.59.069,empathy_intonation_perc,2024.1.4,MacIntel,62.11180124,,,,,,,,,,,,,,29,clamor,,,,,,165.3149,166.4482,1,0,0.6051,,0,62,62,28,1,two_way_cognate,1,REAL,FALSA
,,,,,,,,,6629435c4c384dcaf8ecce60,001,2024-06-07_07h14.59.069,empathy_intonation_perc,2024.1.4,MacIntel,62.11180124,,,,,,,,,,,,,,14,test,,,,,,166.4484,167.4817,0,1,0.4969,,0,63,63,13,1,three_way_cognate,1,REAL,FALSA
,,,,,,,,,6629435c4c384dcaf8ecce60,001,2024-06-07_07h14.59.069,empathy_intonation_perc,2024.1.4,MacIntel,62.11180124,,,,,,,,,,,,,,44,editor,,,,,,167.482,168.4652,1,0,0.4545,,0,64,64,43,1,two_way_cognate,1,REAL,FALSA
,,,,,,,,,6629435c4c384dcaf8ecce60,001,2024-06-07_07h14.59.069,empathy_intonation_perc,2024.1.4,MacIntel,62.11180124,,,,,,,,,,,,,,143,pledú,,,,,,168.4655,169.4486,1,0,0.4547,,0,65,65,142,1,pseudoword,0,REAL,FALSA
,,,,,,,,,6629435c4c384dcaf8ecce60,001,2024-06-07_07h14.59.069,empathy_intonation_perc,2024.1.4,MacIntel,62.11180124,,,,,,,,,,,,,,5,horror,,,,,,169.4488,170.649,0,1,0.6669,,0,66,66,4,1,three_way_cognate,1,REAL,FALSA
,,,,,,,,,6629435c4c384dcaf8ecce60,001,2024-06-07_07h14.59.069,empathy_intonation_perc,2024.1.4,MacIntel,62.11180124,,,,,,,,,,,,,,19,trauma,,,,,,170.6494,172.8325,1,0,1.6542,,0,67,67,18,1,three_way_cognate,1,REAL,FALSA
,,,,,,,,,6629435c4c384dcaf8ecce60,001,2024-06-07_07h14.59.069,empathy_intonation_perc,2024.1.4,MacIntel,62.11180124,,,,,,,,,,,,,,125,ceme,,,,,,172.8328,174.1496,0,1,0.7831,,0,68,68,124,1,pseudoword,0,REAL,FALSA
,,,,,,,,,6629435c4c384dcaf8ecce60,001,2024-06-07_07h14.59.069,empathy_intonation_perc,2024.1.4,MacIntel,62.11180124,,,,,,,,,,,,,,30,fiscal,,,,,,174.15,175.6324,1,0,0.9486,,0,69,69,29,1,two_way_cognate,1,REAL,FALSA
,,,,,,,,,6629435c4c384dcaf8ecce60,001,2024-06-07_07h14.59.069,empathy_intonation_perc,2024.1.4,MacIntel,62.11180124,,,,,,,,,,,,,,96,caro,,,,,,175.6327,176.9664,0,1,0.8142,,0,70,70,95,1,non_cognate,1,REAL,FALSA
,,,,,,,,,6629435c4c384dcaf8ecce60,001,2024-06-07_07h14.59.069,empathy_intonation_perc,2024.1.4,MacIntel,62.11180124,,,,,,,,,,,,,,114,potos,,,,,,176.9667,177.9995,1,0,0.5025,,0,71,71,113,1,pseudoword,0,REAL,FALSA
,,,,,,,,,6629435c4c384dcaf8ecce60,001,2024-06-07_07h14.59.069,empathy_intonation_perc,2024.1.4,MacIntel,62.11180124,,,,,,,,,,,,,,24,retina,,,,,,177.9998,179.417,1,0,0.8895,,0,72,72,23,1,three_way_cognate,1,REAL,FALSA
,,,,,,,,,6629435c4c384dcaf8ecce60,001,2024-06-07_07h14.59.069,empathy_intonation_perc,2024.1.4,MacIntel,62.11180124,,,,,,,,,,,,,,139,furbos,,,,,,179.4172,180.9336,0,1,0.9813,,0,73,73,138,1,pseudoword,0,REAL,FALSA
,,,,,,,,,6629435c4c384dcaf8ecce60,001,2024-06-07_07h14.59.069,empathy_intonation_perc,2024.1.4,MacIntel,62.11180124,,,,,,,,,,,,,,70,ánimo,,,,,,180.9339,182.3175,0,1,0.866,,0,74,74,69,1,non_cognate,1,REAL,FALSA
,,,,,,,,,6629435c4c384dcaf8ecce60,001,2024-06-07_07h14.59.069,empathy_intonation_perc,2024.1.4,MacIntel,62.11180124,,,,,,,,,,,,,,46,mortal,,,,,,182.3179,183.7335,1,0,0.8875,,0,75,75,45,1,two_way_cognate,1,REAL,FALSA
,,,,,,,,,6629435c4c384dcaf8ecce60,001,2024-06-07_07h14.59.069,empathy_intonation_perc,2024.1.4,MacIntel,62.11180124,,,,,,,,,,,,,,100,medón,,,,,,183.7337,185.5512,1,0,1.3044,,0,76,76,99,1,pseudoword,0,REAL,FALSA
,,,,,,,,,6629435c4c384dcaf8ecce60,001,2024-06-07_07h14.59.069,empathy_intonation_perc,2024.1.4,MacIntel,62.11180124,,,,,,,,,,,,,,58,colcha,,,,,,185.5514,187.7016,0,1,1.6183,,0,77,77,57,1,non_cognate,1,REAL,FALSA
,,,,,,,,,6629435c4c384dcaf8ecce60,001,2024-06-07_07h14.59.069,empathy_intonation_perc,2024.1.4,MacIntel,62.11180124,,,,,,,,,,,,,,140,vapen,,,,,,187.7019,189.0352,1,0,0.8036,,0,78,78,139,1,pseudoword,0,REAL,FALSA
,,,,,,,,,6629435c4c384dcaf8ecce60,001,2024-06-07_07h14.59.069,empathy_intonation_perc,2024.1.4,MacIntel,62.11180124,,,,,,,,,,,,,,20,hotel,,,,,,189.0355,190.219,1,0,0.6533,,0,79,79,19,1,three_way_cognate,1,REAL,FALSA
,,,,,,,,,6629435c4c384dcaf8ecce60,001,2024-06-07_07h14.59.069,empathy_intonation_perc,2024.1.4,MacIntel,62.11180124,,,,,,,,,,,,,,62,pegar,,,,,,190.2192,192.5859,0,1,1.8321,,0,80,80,61,1,non_cognate,1,REAL,FALSA
,,,,,,,,,6629435c4c384dcaf8ecce60,001,2024-06-07_07h14.59.069,empathy_intonation_perc,2024.1.4,MacIntel,62.11180124,,,,,,,,,,,,,,131,fuar,,,,,,192.5958,194.0029,0,1,0.8836,,0,81,81,130,1,pseudoword,0,REAL,FALSA
,,,,,,,,,6629435c4c384dcaf8ecce60,001,2024-06-07_07h14.59.069,empathy_intonation_perc,2024.1.4,MacIntel,62.11180124,,,,,,,,,,,,,,122,gravés,,,,,,194.0031,195.553,1,0,1.0155,,0,82,82,121,1,pseudoword,0,REAL,FALSA
,,,,,,,,,6629435c4c384dcaf8ecce60,001,2024-06-07_07h14.59.069,empathy_intonation_perc,2024.1.4,MacIntel,62.11180124,,,,,,,,,,,,,,38,halo,,,,,,195.5533,196.9866,1,0,0.8989,,0,83,83,37,1,two_way_cognate,1,REAL,FALSA
,,,,,,,,,6629435c4c384dcaf8ecce60,001,2024-06-07_07h14.59.069,empathy_intonation_perc,2024.1.4,MacIntel,62.11180124,,,,,,,,,,,,,,16,clan,,,,,,196.9869,198.4694,1,0,0.9556,,0,84,84,15,1,three_way_cognate,1,REAL,FALSA
,,,,,,,,,6629435c4c384dcaf8ecce60,001,2024-06-07_07h14.59.069,empathy_intonation_perc,2024.1.4,MacIntel,62.11180124,,,,,,,,,,,,,,120,hierno,,,,,,198.4695,202.0708,0,1,3.0848,,0,85,85,119,1,pseudoword,0,REAL,FALSA
,,,,,,,,,6629435c4c384dcaf8ecce60,001,2024-06-07_07h14.59.069,empathy_intonation_perc,2024.1.4,MacIntel,62.11180124,,,,,,,,,,,,,,80,cuenco,,,,,,202.0808,203.9211,1,0,1.319,,0,86,86,79,1,non_cognate,1,REAL,FALSA
,,,,,,,,,6629435c4c384dcaf8ecce60,001,2024-06-07_07h14.59.069,empathy_intonation_perc,2024.1.4,MacIntel,62.11180124,,,,,,,,,,,,,,94,forro,,,,,,203.9214,205.4534,1,0,1.0038,,0,87,87,93,1,non_cognate,1,REAL,FALSA
,,,,,,,,,6629435c4c384dcaf8ecce60,001,2024-06-07_07h14.59.069,empathy_intonation_perc,2024.1.4,MacIntel,62.11180124,,,,,,,,,,,,,,45,total,,,,,,205.4536,206.7705,1,0,0.7978,,0,88,88,44,1,two_way_cognate,1,REAL,FALSA
,,,,,,,,,6629435c4c384dcaf8ecce60,001,2024-06-07_07h14.59.069,empathy_intonation_perc,2024.1.4,MacIntel,62.11180124,,,,,,,,,,,,,,130,dubo,,,,,,206.7708,212.0047,1,0,4.713,,0,89,89,129,1,pseudoword,0,REAL,FALSA
,,,,,,,,,6629435c4c384dcaf8ecce60,001,2024-06-07_07h14.59.069,empathy_intonation_perc,2024.1.4,MacIntel,62.11180124,,,,,,,,,,,,,,107,plamos,,,,,,212.0144,214.0561,1,0,1.5126,,0,90,90,106,1,pseudoword,0,REAL,FALSA
,,,,,,,,,6629435c4c384dcaf8ecce60,001,2024-06-07_07h14.59.069,empathy_intonation_perc,2024.1.4,MacIntel,62.11180124,,,,,,,,,,,,,,128,pelí,,,,,,214.0565,215.8895,1,0,1.3016,,0,91,91,127,1,pseudoword,0,REAL,FALSA
,,,,,,,,,6629435c4c384dcaf8ecce60,001,2024-06-07_07h14.59.069,empathy_intonation_perc,2024.1.4,MacIntel,62.11180124,,,,,,,,,,,,,,138,glural,,,,,,215.8898,217.7899,0,1,1.3705,,0,92,92,137,1,pseudoword,0,REAL,FALSA
,,,,,,,,,6629435c4c384dcaf8ecce60,001,2024-06-07_07h14.59.069,empathy_intonation_perc,2024.1.4,MacIntel,62.11180124,,,,,,,,,,,,,,73,llevar,,,,,,217.7902,219.6068,0,1,1.286,,0,93,93,72,1,non_cognate,1,REAL,FALSA
,,,,,,,,,6629435c4c384dcaf8ecce60,001,2024-06-07_07h14.59.069,empathy_intonation_perc,2024.1.4,MacIntel,62.11180124,,,,,,,,,,,,,,9,drama,,,,,,219.607,220.8736,1,0,0.7366,,0,94,94,8,1,three_way_cognate,1,REAL,FALSA
,,,,,,,,,6629435c4c384dcaf8ecce60,001,2024-06-07_07h14.59.069,empathy_intonation_perc,2024.1.4,MacIntel,62.11180124,,,,,,,,,,,,,,50,sierra,,,,,,220.8738,221.9899,1,0,0.5853,,0,95,95,49,1,non_cognate,1,REAL,FALSA
,,,,,,,,,6629435c4c384dcaf8ecce60,001,2024-06-07_07h14.59.069,empathy_intonation_perc,2024.1.4,MacIntel,62.11180124,,,,,,,,,,,,,,53,punta,,,,,,221.9902,223.1233,1,0,0.6209,,0,96,96,52,1,non_cognate,1,REAL,FALSA
,,,,,,,,,6629435c4c384dcaf8ecce60,001,2024-06-07_07h14.59.069,empathy_intonation_perc,2024.1.4,MacIntel,62.11180124,,,,,,,,,,,,,,8,portal,,,,,,223.1235,224.1399,1,0,0.5046,,0,97,97,7,1,three_way_cognate,1,REAL,FALSA
,,,,,,,,,6629435c4c384dcaf8ecce60,001,2024-06-07_07h14.59.069,empathy_intonation_perc,2024.1.4,MacIntel,62.11180124,,,,,,,,,,,,,,4,extra,,,,,,224.1401,225.1577,1,0,0.5014,,0,98,98,3,1,three_way_cognate,1,REAL,FALSA
,,,,,,,,,6629435c4c384dcaf8ecce60,001,2024-06-07_07h14.59.069,empathy_intonation_perc,2024.1.4,MacIntel,62.11180124,,,,,,,,,,,,,,121,rombar,,,,,,225.1581,226.1414,1,0,0.4471,,0,99,99,120,1,pseudoword,0,REAL,FALSA
,,,,,,,,,6629435c4c384dcaf8ecce60,001,2024-06-07_07h14.59.069,empathy_intonation_perc,2024.1.4,MacIntel,62.11180124,,,,,,,,,,,,,,115,civas,,,,,,226.1418,228.191,0,1,1.5191,,0,100,100,114,1,pseudoword,0,REAL,FALSA
,,,,,,,,,6629435c4c384dcaf8ecce60,001,2024-06-07_07h14.59.069,empathy_intonation_perc,2024.1.4,MacIntel,62.11180124,,,,,,,,,,,,,,39,casual,,,,,,228.1913,229.8416,0,1,1.1367,,0,101,101,38,1,two_way_cognate,1,REAL,FALSA
,,,,,,,,,6629435c4c384dcaf8ecce60,001,2024-06-07_07h14.59.069,empathy_intonation_perc,2024.1.4,MacIntel,62.11180124,,,,,,,,,,,,,,12,plan,,,,,,229.8418,231.0926,0,1,0.7368,,0,102,102,11,1,three_way_cognate,1,REAL,FALSA
,,,,,,,,,6629435c4c384dcaf8ecce60,001,2024-06-07_07h14.59.069,empathy_intonation_perc,2024.1.4,MacIntel,62.11180124,,,,,,,,,,,,,,48,pelvis,,,,,,231.0928,233.3416,1,0,1.7212,,0,103,103,47,1,two_way_cognate,1,REAL,FALSA
,,,,,,,,,6629435c4c384dcaf8ecce60,001,2024-06-07_07h14.59.069,empathy_intonation_perc,2024.1.4,MacIntel,62.11180124,,,,,,,,,,,,,,81,sacar,,,,,,233.3419,234.3926,1,0,0.5359,,0,104,104,80,1,non_cognate,1,REAL,FALSA
,,,,,,,,,6629435c4c384dcaf8ecce60,001,2024-06-07_07h14.59.069,empathy_intonation_perc,2024.1.4,MacIntel,62.11180124,,,,,,,,,,,,,,67,llamar,,,,,,234.3928,237.4931,0,1,2.5694,,0,105,105,66,1,non_cognate,1,REAL,FALSA
,,,,,,,,,6629435c4c384dcaf8ecce60,001,2024-06-07_07h14.59.069,empathy_intonation_perc,2024.1.4,MacIntel,62.11180124,,,,,,,,,,,,,,22,plural,,,,,,237.5017,238.8093,1,0,0.788,,0,106,106,21,1,three_way_cognate,1,REAL,FALSA
,,,,,,,,,6629435c4c384dcaf8ecce60,001,2024-06-07_07h14.59.069,empathy_intonation_perc,2024.1.4,MacIntel,62.11180124,,,,,,,,,,,,,,136,sopleó,,,,,,238.8095,240.1101,0,1,0.7641,,0,107,107,135,1,pseudoword,0,REAL,FALSA
,,,,,,,,,6629435c4c384dcaf8ecce60,001,2024-06-07_07h14.59.069,empathy_intonation_perc,2024.1.4,MacIntel,62.11180124,,,,,,,,,,,,,,104,vitra,,,,,,240.1104,241.326,1,0,0.6798,,0,108,108,103,1,pseudoword,0,REAL,FALSA
,,,,,,,,,6629435c4c384dcaf8ecce60,001,2024-06-07_07h14.59.069,empathy_intonation_perc,2024.1.4,MacIntel,62.11180124,,,,,,,,,,,,,,84,aviso,,,,,,241.3263,242.8933,0,1,1.0319,,0,109,109,83,1,non_cognate,1,REAL,FALSA
,,,,,,,,,6629435c4c384dcaf8ecce60,001,2024-06-07_07h14.59.069,empathy_intonation_perc,2024.1.4,MacIntel,62.11180124,,,,,,,,,,,,,,63,hilo,,,,,,242.8936,243.9109,1,0,0.5025,,0,110,110,62,1,non_cognate,1,REAL,FALSA
,,,,,,,,,6629435c4c384dcaf8ecce60,001,2024-06-07_07h14.59.069,empathy_intonation_perc,2024.1.4,MacIntel,62.11180124,,,,,,,,,,,,,,116,crene,,,,,,243.9112,245.4433,0,1,1.005,,0,111,111,115,1,pseudoword,0,REAL,FALSA
,,,,,,,,,6629435c4c384dcaf8ecce60,001,2024-06-07_07h14.59.069,empathy_intonation_perc,2024.1.4,MacIntel,62.11180124,,,,,,,,,,,,,,34,actor,,,,,,245.4436,246.4941,1,0,0.5351,,0,112,112,33,1,two_way_cognate,1,REAL,FALSA
,,,,,,,,,6629435c4c384dcaf8ecce60,001,2024-06-07_07h14.59.069,empathy_intonation_perc,2024.1.4,MacIntel,62.11180124,,,,,,,,,,,,,,21,mango,,,,,,246.4944,247.6104,0,1,0.6043,,0,113,113,20,1,three_way_cognate,1,REAL,FALSA
,,,,,,,,,6629435c4c384dcaf8ecce60,001,2024-06-07_07h14.59.069,empathy_intonation_perc,2024.1.4,MacIntel,62.11180124,,,,,,,,,,,,,,49,teñir,,,,,,247.6107,248.645,1,0,0.5173,,0,114,114,48,1,non_cognate,1,REAL,FALSA
,,,,,,,,,6629435c4c384dcaf8ecce60,001,2024-06-07_07h14.59.069,empathy_intonation_perc,2024.1.4,MacIntel,62.11180124,,,,,,,,,,,,,,71,torta,,,,,,248.6456,249.9947,1,0,0.8173,,0,115,115,70,1,non_cognate,1,REAL,FALSA
,,,,,,,,,6629435c4c384dcaf8ecce60,001,2024-06-07_07h14.59.069,empathy_intonation_perc,2024.1.4,MacIntel,62.11180124,,,,,,,,,,,,,,33,collar,,,,,,249.9949,251.2447,1,0,0.7197,,0,116,116,32,1,two_way_cognate,1,REAL,FALSA
,,,,,,,,,6629435c4c384dcaf8ecce60,001,2024-06-07_07h14.59.069,empathy_intonation_perc,2024.1.4,MacIntel,62.11180124,,,,,,,,,,,,,,106,baurá,,,,,,251.245,254.2788,0,1,2.5199,,0,117,117,105,1,pseudoword,0,REAL,FALSA
,,,,,,,,,6629435c4c384dcaf8ecce60,001,2024-06-07_07h14.59.069,empathy_intonation_perc,2024.1.4,MacIntel,62.11180124,,,,,,,,,,,,,,78,rendir,,,,,,254.279,256.6961,0,1,1.9028,,0,118,118,77,1,non_cognate,1,REAL,FALSA
,,,,,,,,,6629435c4c384dcaf8ecce60,001,2024-06-07_07h14.59.069,empathy_intonation_perc,2024.1.4,MacIntel,62.11180124,,,,,,,,,,,,,,1,tumor,,,,,,256.7036,257.7791,1,0,0.5531,,0,119,119,0,1,three_way_cognate,1,REAL,FALSA
,,,,,,,,,6629435c4c384dcaf8ecce60,001,2024-06-07_07h14.59.069,empathy_intonation_perc,2024.1.4,MacIntel,62.11180124,,,,,,,,,,,,,,90,venado,,,,,,257.7793,261.7794,0,1,3.4877,,0,120,120,89,1,non_cognate,1,REAL,FALSA
,,,,,,,,,6629435c4c384dcaf8ecce60,001,2024-06-07_07h14.59.069,empathy_intonation_perc,2024.1.4,MacIntel,62.11180124,,,,,,,,,,,,,,135,macayó,,,,,,261.7873,263.0806,0,1,0.77,,0,121,121,134,1,pseudoword,0,REAL,FALSA
,,,,,,,,,6629435c4c384dcaf8ecce60,001,2024-06-07_07h14.59.069,empathy_intonation_perc,2024.1.4,MacIntel,62.11180124,,,,,,,,,,,,,,7,kilo,,,,,,263.0808,264.3799,1,0,0.7606,,0,122,122,6,1,three_way_cognate,1,REAL,FALSA
,,,,,,,,,6629435c4c384dcaf8ecce60,001,2024-06-07_07h14.59.069,empathy_intonation_perc,2024.1.4,MacIntel,62.11180124,,,,,,,,,,,,,,79,suelo,,,,,,264.3802,265.8474,0,1,0.9552,,0,123,123,78,1,non_cognate,1,REAL,FALSA
,,,,,,,,,6629435c4c384dcaf8ecce60,001,2024-06-07_07h14.59.069,empathy_intonation_perc,2024.1.4,MacIntel,62.11180124,,,,,,,,,,,,,,117,apunan,,,,,,265.8476,267.2475,0,1,0.8655,,0,124,124,116,1,pseudoword,0,REAL,FALSA
,,,,,,,,,6629435c4c384dcaf8ecce60,001,2024-06-07_07h14.59.069,empathy_intonation_perc,2024.1.4,MacIntel,62.11180124,,,,,,,,,,,,,,132,nocó,,,,,,267.2477,268.4475,0,1,0.6616,,0,125,125,131,1,pseudoword,0,REAL,FALSA
,,,,,,,,,6629435c4c384dcaf8ecce60,001,2024-06-07_07h14.59.069,empathy_intonation_perc,2024.1.4,MacIntel,62.11180124,,,,,,,,,,,,,,25,vigor,,,,,,268.4478,269.664,0,1,0.6881,,0,126,126,24,1,two_way_cognate,1,REAL,FALSA
,,,,,,,,,6629435c4c384dcaf8ecce60,001,2024-06-07_07h14.59.069,empathy_intonation_perc,2024.1.4,MacIntel,62.11180124,,,,,,,,,,,,,,88,percha,,,,,,269.6642,270.8648,1,0,0.6877,,0,127,127,87,1,non_cognate,1,REAL,FALSA
,,,,,,,,,6629435c4c384dcaf8ecce60,001,2024-06-07_07h14.59.069,empathy_intonation_perc,2024.1.4,MacIntel,62.11180124,,,,,,,,,,,,,,54,tapón,,,,,,270.865,272.3814,1,0,1.0025,,0,128,128,53,1,non_cognate,1,REAL,FALSA
,,,,,,,,,6629435c4c384dcaf8ecce60,001,2024-06-07_07h14.59.069,empathy_intonation_perc,2024.1.4,MacIntel,62.11180124,,,,,,,,,,,,,,65,guerra,,,,,,272.3817,273.4149,0,1,0.5186,,0,129,129,64,1,non_cognate,1,REAL,FALSA
,,,,,,,,,6629435c4c384dcaf8ecce60,001,2024-06-07_07h14.59.069,empathy_intonation_perc,2024.1.4,MacIntel,62.11180124,,,,,,,,,,,,,,118,bará,,,,,,273.4152,274.5481,0,1,0.6057,,0,130,130,117,1,pseudoword,0,REAL,FALSA
,,,,,,,,,6629435c4c384dcaf8ecce60,001,2024-06-07_07h14.59.069,empathy_intonation_perc,2024.1.4,MacIntel,62.11180124,,,,,,,,,,,,,,109,hágino,,,,,,274.5483,275.6826,0,1,0.6022,,0,131,131,108,1,pseudoword,0,REAL,FALSA
,,,,,,,,,6629435c4c384dcaf8ecce60,001,2024-06-07_07h14.59.069,empathy_intonation_perc,2024.1.4,MacIntel,62.11180124,,,,,,,,,,,,,,32,animal,,,,,,275.6828,276.9495,1,0,0.7369,,0,132,132,31,1,two_way_cognate,1,REAL,FALSA
,,,,,,,,,6629435c4c384dcaf8ecce60,001,2024-06-07_07h14.59.069,empathy_intonation_perc,2024.1.4,MacIntel,62.11180124,,,,,,,,,,,,,,110,vacapó,,,,,,276.9497,278.3497,0,1,0.8626,,0,133,133,109,1,pseudoword,0,REAL,FALSA
,,,,,,,,,6629435c4c384dcaf8ecce60,001,2024-06-07_07h14.59.069,empathy_intonation_perc,2024.1.4,MacIntel,62.11180124,,,,,,,,,,,,,,95,listo,,,,,,278.3502,279.5666,0,1,0.6858,,0,134,134,94,1,non_cognate,1,REAL,FALSA
,,,,,,,,,6629435c4c384dcaf8ecce60,001,2024-06-07_07h14.59.069,empathy_intonation_perc,2024.1.4,MacIntel,62.11180124,,,,,,,,,,,,,,144,piria,,,,,,279.567,280.7664,0,1,0.6639,,0,135,135,143,1,pseudoword,0,REAL,FALSA
,,,,,,,,,6629435c4c384dcaf8ecce60,001,2024-06-07_07h14.59.069,empathy_intonation_perc,2024.1.4,MacIntel,62.11180124,,,,,,,,,,,,,,61,aduana,,,,,,280.7667,281.8337,0,1,0.5466,,0,136,136,60,1,non_cognate,1,REAL,FALSA
,,,,,,,,,6629435c4c384dcaf8ecce60,001,2024-06-07_07h14.59.069,empathy_intonation_perc,2024.1.4,MacIntel,62.11180124,,,,,,,,,,,,,,56,pico,,,,,,281.834,283.6166,0,1,1.2483,,0,137,137,55,1,non_cognate,1,REAL,FALSA
,,,,,,,,,6629435c4c384dcaf8ecce60,001,2024-06-07_07h14.59.069,empathy_intonation_perc,2024.1.4,MacIntel,62.11180124,,,,,,,,,,,,,,105,curgué,,,,,,283.617,284.7502,0,1,0.6214,,0,138,138,104,1,pseudoword,0,REAL,FALSA
,,,,,,,,,6629435c4c384dcaf8ecce60,001,2024-06-07_07h14.59.069,empathy_intonation_perc,2024.1.4,MacIntel,62.11180124,,,,,,,,,,,,,,97,hufón,,,,,,284.7504,285.8166,0,1,0.5472,,0,139,139,96,1,pseudoword,0,REAL,FALSA
,,,,,,,,,6629435c4c384dcaf8ecce60,001,2024-06-07_07h14.59.069,empathy_intonation_perc,2024.1.4,MacIntel,62.11180124,,,,,,,,,,,,,,55,maldad,,,,,,285.8169,286.9345,0,1,0.5948,,0,140,140,54,1,non_cognate,1,REAL,FALSA
,,,,,,,,,6629435c4c384dcaf8ecce60,001,2024-06-07_07h14.59.069,empathy_intonation_perc,2024.1.4,MacIntel,62.11180124,,,,,,,,,,,,,,87,muleta,,,,,,286.9348,288.0014,0,1,0.5358,,0,141,141,86,1,non_cognate,1,REAL,FALSA
,,,,,,,,,6629435c4c384dcaf8ecce60,001,2024-06-07_07h14.59.069,empathy_intonation_perc,2024.1.4,MacIntel,62.11180124,,,,,,,,,,,,,,85,enorme,,,,,,288.0018,289.501,1,0,0.9644,,0,142,142,84,1,non_cognate,1,REAL,FALSA
,,,,,,,,,6629435c4c384dcaf8ecce60,001,2024-06-07_07h14.59.069,empathy_intonation_perc,2024.1.4,MacIntel,62.11180124,,,,,,,,,,,,,,126,anicio,,,,,,289.5013,290.8685,0,1,0.8366,,0,143,143,125,1,pseudoword,0,REAL,FALSA
