lextale_instructions.started,lextale_instructions.stopped,lextale_instructions_loop.thisRepN,lextale_instructions_loop.thisTrialN,lextale_instructions_loop.thisN,lextale_instructions_loop.thisIndex,lextale_instructions_loop.ran,instructions_text,continue_text,participant,session,date,expName,psychopyVersion,OS,frameRate,lextale_practice.started,lextale_practice.stopped,key_resp_lextale_practice.keys,key_resp_lextale_practice.corr,key_resp_lextale_practice.rt,key_resp_lextale_practice.duration,lextale_practice_feedback.started,lextale_practice_feedback.stopped,lextale_practice_trials.thisRepN,lextale_practice_trials.thisTrialN,lextale_practice_trials.thisN,lextale_practice_trials.thisIndex,lextale_practice_trials.ran,stim,word,correct_response,prac_button_real,prac_button_false,lextale_check.started,lextale_check.stopped,lextale_trial.started,lextale_trial.stopped,key_resp_lextale_trial.keys,key_resp_lextale_trial.corr,key_resp_lextale_trial.rt,key_resp_lextale_trial.duration,lextail_trials.thisRepN,lextail_trials.thisTrialN,lextail_trials.thisN,lextail_trials.thisIndex,lextail_trials.ran,type,correct_reponse,button_real,button_false
0.011,2.428,0,0,0,0,1,"Este es un test de vocabulario en español. 
  
  A continuación vas a ver 90 secuencias de letras que parecen 'españolas'.
  
  Solo algunas de ellas son palabras de verdad.",(presiona la barra espaciadora para continuar),665cc47a17d25ef9f0db3ad9,001,2024-06-07_07h54.06.663,empathy_intonation_perc,2024.1.4,Win32,59.66587112,,,,,,,,,,,,,,,,,,,,,,,,,,,,,,,,,,,
2.429,2.949,0,1,1,1,1,"Por favor, señala las palabras que tú conoces (aquellas que estás convencido que son palabras españolas, incluso aunque no seas capaz de dar el significado preciso).",(presiona la barra espaciadora para continuar),665cc47a17d25ef9f0db3ad9,001,2024-06-07_07h54.06.663,empathy_intonation_perc,2024.1.4,Win32,59.66587112,,,,,,,,,,,,,,,,,,,,,,,,,,,,,,,,,,,
2.949,4.017,0,2,2,2,1,Pero cuidado: los errores se penalizan. Por eso no tiene sentido tratar de incrementar tu puntuación marcando como reales palabras que nunca has visto.,(presiona la barra espaciadora para continuar),665cc47a17d25ef9f0db3ad9,001,2024-06-07_07h54.06.663,empathy_intonation_perc,2024.1.4,Win32,59.66587112,,,,,,,,,,,,,,,,,,,,,,,,,,,,,,,,,,,
4.018,4.453,0,3,3,3,1,"Presiona la tecla 1 si piensas que es una palabra real y la tecla 
  0 si piensas que es una palabra falsa. 
  
  Vamos a practicar un poco...",(presiona la barra espaciadora para continuar),665cc47a17d25ef9f0db3ad9,001,2024-06-07_07h54.06.663,empathy_intonation_perc,2024.1.4,Win32,59.66587112,,,,,,,,,,,,,,,,,,,,,,,,,,,,,,,,,,,
,,,,,,,,,665cc47a17d25ef9f0db3ad9,001,2024-06-07_07h54.06.663,empathy_intonation_perc,2024.1.4,Win32,59.66587112,4.468,8.035,0,1,3.024,,8.035,9.038,0,0,0,0,1,0,depiste,0,REAL,FALSA,,,,,,,,,,,,,,,,,
,,,,,,,,,665cc47a17d25ef9f0db3ad9,001,2024-06-07_07h54.06.663,empathy_intonation_perc,2024.1.4,Win32,59.66587112,9.04,10.886,0,0,1.312,,10.886,11.876,0,1,1,1,1,0,sí,1,REAL,FALSA,,,,,,,,,,,,,,,,,
,,,,,,,,,665cc47a17d25ef9f0db3ad9,001,2024-06-07_07h54.06.663,empathy_intonation_perc,2024.1.4,Win32,59.66587112,11.877,13.287,1,0,0.859,,13.287,14.29,0,2,2,2,1,0,coné,0,REAL,FALSA,,,,,,,,,,,,,,,,,
,,,,,,,,,665cc47a17d25ef9f0db3ad9,001,2024-06-07_07h54.06.663,empathy_intonation_perc,2024.1.4,Win32,59.66587112,14.29,15.546,0,1,0.715,,15.546,16.538,0,3,3,3,1,0,calpar,0,REAL,FALSA,,,,,,,,,,,,,,,,,
,,,,,,,,,665cc47a17d25ef9f0db3ad9,001,2024-06-07_07h54.06.663,empathy_intonation_perc,2024.1.4,Win32,59.66587112,16.538,17.94,0,1,0.876,,17.94,18.943,0,4,4,4,1,0,joten,0,REAL,FALSA,,,,,,,,,,,,,,,,,
,,,,,,,,,665cc47a17d25ef9f0db3ad9,001,2024-06-07_07h54.06.663,empathy_intonation_perc,2024.1.4,Win32,59.66587112,18.944,20.117,0,0,0.636,,20.117,21.116,0,5,5,5,1,0,sacapuntas,1,REAL,FALSA,,,,,,,,,,,,,,,,,
,,,,,,,,,665cc47a17d25ef9f0db3ad9,001,2024-06-07_07h54.06.663,empathy_intonation_perc,2024.1.4,Win32,59.66587112,21.117,22.771,0,1,1.13,,22.771,23.763,0,6,6,6,1,0,priba,0,REAL,FALSA,,,,,,,,,,,,,,,,,
,,,,,,,,,665cc47a17d25ef9f0db3ad9,001,2024-06-07_07h54.06.663,empathy_intonation_perc,2024.1.4,Win32,59.66587112,23.764,25.059,1,0,0.773,,25.059,26.052,0,7,7,7,1,0,pelasula,0,REAL,FALSA,,,,,,,,,,,,,,,,,
,,,,,,,,,665cc47a17d25ef9f0db3ad9,001,2024-06-07_07h54.06.663,empathy_intonation_perc,2024.1.4,Win32,59.66587112,26.053,27.347,0,0,0.755,,27.347,28.343,0,8,8,8,1,0,bien,1,REAL,FALSA,,,,,,,,,,,,,,,,,
,,,,,,,,,665cc47a17d25ef9f0db3ad9,001,2024-06-07_07h54.06.663,empathy_intonation_perc,2024.1.4,Win32,59.66587112,28.343,29.824,1,1,0.948,,29.825,30.809,0,9,9,9,1,0,casa,1,REAL,FALSA,,,,,,,,,,,,,,,,,
,,,,,,,,,665cc47a17d25ef9f0db3ad9,001,2024-06-07_07h54.06.663,empathy_intonation_perc,2024.1.4,Win32,59.66587112,30.814,32.325,0,1,0.97,,32.325,33.333,0,10,10,10,1,0,lejo,0,REAL,FALSA,,,,,,,,,,,,,,,,,
,,,,,,,,,665cc47a17d25ef9f0db3ad9,001,2024-06-07_07h54.06.663,empathy_intonation_perc,2024.1.4,Win32,59.66587112,33.333,34.803,0,1,0.94,,34.803,35.803,0,11,11,11,1,0,pretantas,0,REAL,FALSA,,,,,,,,,,,,,,,,,
,,,,,,,,,665cc47a17d25ef9f0db3ad9,001,2024-06-07_07h54.06.663,empathy_intonation_perc,2024.1.4,Win32,59.66587112,,,,,,,,,,,,,,,,,,,35.803,37.355,,,,,,,,,,,,,,,
,,,,,,,,,665cc47a17d25ef9f0db3ad9,001,2024-06-07_07h54.06.663,empathy_intonation_perc,2024.1.4,Win32,59.66587112,,,,,,,,,,,,,,66,aleta,,,,,,37.389,39.323,1,0,1.4,,0,0,0,65,1,non_cognate,1,REAL,FALSA
,,,,,,,,,665cc47a17d25ef9f0db3ad9,001,2024-06-07_07h54.06.663,empathy_intonation_perc,2024.1.4,Win32,59.66587112,,,,,,,,,,,,,,7,kilo,,,,,,39.325,39.958,0,1,0.097,,0,1,1,6,1,three_way_cognate,1,REAL,FALSA
,,,,,,,,,665cc47a17d25ef9f0db3ad9,001,2024-06-07_07h54.06.663,empathy_intonation_perc,2024.1.4,Win32,59.66587112,,,,,,,,,,,,,,103,babes,,,,,,39.959,40.531,1,0,0.037,,0,2,2,102,1,pseudoword,0,REAL,FALSA
,,,,,,,,,665cc47a17d25ef9f0db3ad9,001,2024-06-07_07h54.06.663,empathy_intonation_perc,2024.1.4,Win32,59.66587112,,,,,,,,,,,,,,109,hágino,,,,,,40.532,42.067,0,1,0.997,,0,3,3,108,1,pseudoword,0,REAL,FALSA
,,,,,,,,,665cc47a17d25ef9f0db3ad9,001,2024-06-07_07h54.06.663,empathy_intonation_perc,2024.1.4,Win32,59.66587112,,,,,,,,,,,,,,44,editor,,,,,,42.068,43.285,1,0,0.687,,0,4,4,43,1,two_way_cognate,1,REAL,FALSA
,,,,,,,,,665cc47a17d25ef9f0db3ad9,001,2024-06-07_07h54.06.663,empathy_intonation_perc,2024.1.4,Win32,59.66587112,,,,,,,,,,,,,,86,cuenco,,,,,,43.286,44.546,0,1,0.732,,0,5,5,85,1,non_cognate,1,REAL,FALSA
,,,,,,,,,665cc47a17d25ef9f0db3ad9,001,2024-06-07_07h54.06.663,empathy_intonation_perc,2024.1.4,Win32,59.66587112,,,,,,,,,,,,,,61,aduana,,,,,,44.547,45.699,1,0,0.62,,0,6,6,60,1,non_cognate,1,REAL,FALSA
,,,,,,,,,665cc47a17d25ef9f0db3ad9,001,2024-06-07_07h54.06.663,empathy_intonation_perc,2024.1.4,Win32,59.66587112,,,,,,,,,,,,,,131,fuar,,,,,,45.703,46.923,0,1,0.695,,0,7,7,130,1,pseudoword,0,REAL,FALSA
,,,,,,,,,665cc47a17d25ef9f0db3ad9,001,2024-06-07_07h54.06.663,empathy_intonation_perc,2024.1.4,Win32,59.66587112,,,,,,,,,,,,,,119,esís,,,,,,46.924,48.204,0,1,0.746,,0,8,8,118,1,pseudoword,0,REAL,FALSA
,,,,,,,,,665cc47a17d25ef9f0db3ad9,001,2024-06-07_07h54.06.663,empathy_intonation_perc,2024.1.4,Win32,59.66587112,,,,,,,,,,,,,,33,collar,,,,,,48.204,49.246,1,0,0.517,,0,9,9,32,1,two_way_cognate,1,REAL,FALSA
,,,,,,,,,665cc47a17d25ef9f0db3ad9,001,2024-06-07_07h54.06.663,empathy_intonation_perc,2024.1.4,Win32,59.66587112,,,,,,,,,,,,,,127,vien,,,,,,49.246,50.682,1,0,0.912,,0,10,10,126,1,pseudoword,0,REAL,FALSA
,,,,,,,,,665cc47a17d25ef9f0db3ad9,001,2024-06-07_07h54.06.663,empathy_intonation_perc,2024.1.4,Win32,59.66587112,,,,,,,,,,,,,,32,animal,,,,,,50.682,51.825,1,0,0.611,,0,11,11,31,1,two_way_cognate,1,REAL,FALSA
,,,,,,,,,665cc47a17d25ef9f0db3ad9,001,2024-06-07_07h54.06.663,empathy_intonation_perc,2024.1.4,Win32,59.66587112,,,,,,,,,,,,,,34,actor,,,,,,51.825,52.824,1,0,0.47,,0,12,12,33,1,two_way_cognate,1,REAL,FALSA
,,,,,,,,,665cc47a17d25ef9f0db3ad9,001,2024-06-07_07h54.06.663,empathy_intonation_perc,2024.1.4,Win32,59.66587112,,,,,,,,,,,,,,31,civil,,,,,,52.825,53.919,1,0,0.563,,0,13,13,30,1,two_way_cognate,1,REAL,FALSA
,,,,,,,,,665cc47a17d25ef9f0db3ad9,001,2024-06-07_07h54.06.663,empathy_intonation_perc,2024.1.4,Win32,59.66587112,,,,,,,,,,,,,,25,vigor,,,,,,53.921,54.855,1,0,0.406,,0,14,14,24,1,two_way_cognate,1,REAL,FALSA
,,,,,,,,,665cc47a17d25ef9f0db3ad9,001,2024-06-07_07h54.06.663,empathy_intonation_perc,2024.1.4,Win32,59.66587112,,,,,,,,,,,,,,117,apunan,,,,,,54.856,56.004,1,0,0.617,,0,15,15,116,1,pseudoword,0,REAL,FALSA
,,,,,,,,,665cc47a17d25ef9f0db3ad9,001,2024-06-07_07h54.06.663,empathy_intonation_perc,2024.1.4,Win32,59.66587112,,,,,,,,,,,,,,99,mieris,,,,,,56.004,57.347,0,1,0.814,,0,16,16,98,1,pseudoword,0,REAL,FALSA
,,,,,,,,,665cc47a17d25ef9f0db3ad9,001,2024-06-07_07h54.06.663,empathy_intonation_perc,2024.1.4,Win32,59.66587112,,,,,,,,,,,,,,94,forro,,,,,,57.348,58.874,0,1,0.996,,0,17,17,93,1,non_cognate,1,REAL,FALSA
,,,,,,,,,665cc47a17d25ef9f0db3ad9,001,2024-06-07_07h54.06.663,empathy_intonation_perc,2024.1.4,Win32,59.66587112,,,,,,,,,,,,,,125,ceme,,,,,,58.875,59.954,0,1,0.479,,0,18,18,124,1,pseudoword,0,REAL,FALSA
,,,,,,,,,665cc47a17d25ef9f0db3ad9,001,2024-06-07_07h54.06.663,empathy_intonation_perc,2024.1.4,Win32,59.66587112,,,,,,,,,,,,,,62,pegar,,,,,,59.955,61.177,0,1,0.69,,0,19,19,61,1,non_cognate,1,REAL,FALSA
,,,,,,,,,665cc47a17d25ef9f0db3ad9,001,2024-06-07_07h54.06.663,empathy_intonation_perc,2024.1.4,Win32,59.66587112,,,,,,,,,,,,,,85,enorme,,,,,,61.181,62.32,0,1,0.605,,0,20,20,84,1,non_cognate,1,REAL,FALSA
,,,,,,,,,665cc47a17d25ef9f0db3ad9,001,2024-06-07_07h54.06.663,empathy_intonation_perc,2024.1.4,Win32,59.66587112,,,,,,,,,,,,,,75,patada,,,,,,62.322,63.466,1,0,0.605,,0,21,21,74,1,non_cognate,1,REAL,FALSA
,,,,,,,,,665cc47a17d25ef9f0db3ad9,001,2024-06-07_07h54.06.663,empathy_intonation_perc,2024.1.4,Win32,59.66587112,,,,,,,,,,,,,,136,sopleó,,,,,,63.466,64.748,0,1,0.755,,0,22,22,135,1,pseudoword,0,REAL,FALSA
,,,,,,,,,665cc47a17d25ef9f0db3ad9,001,2024-06-07_07h54.06.663,empathy_intonation_perc,2024.1.4,Win32,59.66587112,,,,,,,,,,,,,,90,venado,,,,,,64.748,65.834,1,0,0.531,,0,23,23,89,1,non_cognate,1,REAL,FALSA
,,,,,,,,,665cc47a17d25ef9f0db3ad9,001,2024-06-07_07h54.06.663,empathy_intonation_perc,2024.1.4,Win32,59.66587112,,,,,,,,,,,,,,10,golf,,,,,,65.836,66.962,1,0,0.6,,0,24,24,9,1,three_way_cognate,1,REAL,FALSA
,,,,,,,,,665cc47a17d25ef9f0db3ad9,001,2024-06-07_07h54.06.663,empathy_intonation_perc,2024.1.4,Win32,59.66587112,,,,,,,,,,,,,,122,gravés,,,,,,66.963,68.227,1,0,0.729,,0,25,25,121,1,pseudoword,0,REAL,FALSA
,,,,,,,,,665cc47a17d25ef9f0db3ad9,001,2024-06-07_07h54.06.663,empathy_intonation_perc,2024.1.4,Win32,59.66587112,,,,,,,,,,,,,,82,brillo,,,,,,68.227,69.466,1,0,0.709,,0,26,26,81,1,non_cognate,1,REAL,FALSA
,,,,,,,,,665cc47a17d25ef9f0db3ad9,001,2024-06-07_07h54.06.663,empathy_intonation_perc,2024.1.4,Win32,59.66587112,,,,,,,,,,,,,,59,feo,,,,,,69.467,70.657,1,0,0.65,,0,27,27,58,1,non_cognate,1,REAL,FALSA
,,,,,,,,,665cc47a17d25ef9f0db3ad9,001,2024-06-07_07h54.06.663,empathy_intonation_perc,2024.1.4,Win32,59.66587112,,,,,,,,,,,,,,2,disco,,,,,,70.659,71.669,0,1,0.479,,0,28,28,1,1,three_way_cognate,1,REAL,FALSA
,,,,,,,,,665cc47a17d25ef9f0db3ad9,001,2024-06-07_07h54.06.663,empathy_intonation_perc,2024.1.4,Win32,59.66587112,,,,,,,,,,,,,,141,sumer,,,,,,71.671,72.78,1,0,0.574,,0,29,29,140,1,pseudoword,0,REAL,FALSA
,,,,,,,,,665cc47a17d25ef9f0db3ad9,001,2024-06-07_07h54.06.663,empathy_intonation_perc,2024.1.4,Win32,59.66587112,,,,,,,,,,,,,,37,torso,,,,,,72.782,74.619,1,0,1.314,,0,30,30,36,1,two_way_cognate,1,REAL,FALSA
,,,,,,,,,665cc47a17d25ef9f0db3ad9,001,2024-06-07_07h54.06.663,empathy_intonation_perc,2024.1.4,Win32,59.66587112,,,,,,,,,,,,,,72,rostro,,,,,,74.619,75.644,0,1,0.486,,0,31,31,71,1,non_cognate,1,REAL,FALSA
,,,,,,,,,665cc47a17d25ef9f0db3ad9,001,2024-06-07_07h54.06.663,empathy_intonation_perc,2024.1.4,Win32,59.66587112,,,,,,,,,,,,,,21,mango,,,,,,75.655,76.796,1,0,0.604,,0,32,32,20,1,three_way_cognate,1,REAL,FALSA
,,,,,,,,,665cc47a17d25ef9f0db3ad9,001,2024-06-07_07h54.06.663,empathy_intonation_perc,2024.1.4,Win32,59.66587112,,,,,,,,,,,,,,64,rizado,,,,,,76.797,78.08,1,0,0.744,,0,33,33,63,1,non_cognate,1,REAL,FALSA
,,,,,,,,,665cc47a17d25ef9f0db3ad9,001,2024-06-07_07h54.06.663,empathy_intonation_perc,2024.1.4,Win32,59.66587112,,,,,,,,,,,,,,13,aura,,,,,,78.081,79.983,1,0,1.381,,0,34,34,12,1,three_way_cognate,1,REAL,FALSA
,,,,,,,,,665cc47a17d25ef9f0db3ad9,001,2024-06-07_07h54.06.663,empathy_intonation_perc,2024.1.4,Win32,59.66587112,,,,,,,,,,,,,,96,caro,,,,,,79.986,81.165,1,0,0.649,,0,35,35,95,1,non_cognate,1,REAL,FALSA
,,,,,,,,,665cc47a17d25ef9f0db3ad9,001,2024-06-07_07h54.06.663,empathy_intonation_perc,2024.1.4,Win32,59.66587112,,,,,,,,,,,,,,139,furbos,,,,,,81.166,82.795,1,0,1.1,,0,36,36,138,1,pseudoword,0,REAL,FALSA
,,,,,,,,,665cc47a17d25ef9f0db3ad9,001,2024-06-07_07h54.06.663,empathy_intonation_perc,2024.1.4,Win32,59.66587112,,,,,,,,,,,,,,30,fiscal,,,,,,82.796,83.875,0,1,0.551,,0,37,37,29,1,two_way_cognate,1,REAL,FALSA
,,,,,,,,,665cc47a17d25ef9f0db3ad9,001,2024-06-07_07h54.06.663,empathy_intonation_perc,2024.1.4,Win32,59.66587112,,,,,,,,,,,,,,17,altar,,,,,,83.875,84.874,1,0,0.468,,0,38,38,16,1,three_way_cognate,1,REAL,FALSA
,,,,,,,,,665cc47a17d25ef9f0db3ad9,001,2024-06-07_07h54.06.663,empathy_intonation_perc,2024.1.4,Win32,59.66587112,,,,,,,,,,,,,,9,drama,,,,,,84.875,85.986,1,0,0.578,,0,39,39,8,1,three_way_cognate,1,REAL,FALSA
,,,,,,,,,665cc47a17d25ef9f0db3ad9,001,2024-06-07_07h54.06.663,empathy_intonation_perc,2024.1.4,Win32,59.66587112,,,,,,,,,,,,,,89,muñeca,,,,,,85.989,87.403,0,1,0.889,,0,40,40,88,1,non_cognate,1,REAL,FALSA
,,,,,,,,,665cc47a17d25ef9f0db3ad9,001,2024-06-07_07h54.06.663,empathy_intonation_perc,2024.1.4,Win32,59.66587112,,,,,,,,,,,,,,98,erede,,,,,,87.404,88.309,1,0,0.371,,0,41,41,97,1,pseudoword,0,REAL,FALSA
,,,,,,,,,665cc47a17d25ef9f0db3ad9,001,2024-06-07_07h54.06.663,empathy_intonation_perc,2024.1.4,Win32,59.66587112,,,,,,,,,,,,,,73,llevar,,,,,,88.311,89.781,1,0,0.947,,0,42,42,72,1,non_cognate,1,REAL,FALSA
,,,,,,,,,665cc47a17d25ef9f0db3ad9,001,2024-06-07_07h54.06.663,empathy_intonation_perc,2024.1.4,Win32,59.66587112,,,,,,,,,,,,,,49,teñir,,,,,,89.782,91.156,1,0,0.854,,0,43,43,48,1,non_cognate,1,REAL,FALSA
,,,,,,,,,665cc47a17d25ef9f0db3ad9,001,2024-06-07_07h54.06.663,empathy_intonation_perc,2024.1.4,Win32,59.66587112,,,,,,,,,,,,,,42,rumor,,,,,,91.157,92.307,1,0,0.622,,0,44,44,41,1,two_way_cognate,1,REAL,FALSA
,,,,,,,,,665cc47a17d25ef9f0db3ad9,001,2024-06-07_07h54.06.663,empathy_intonation_perc,2024.1.4,Win32,59.66587112,,,,,,,,,,,,,,84,aviso,,,,,,92.311,93.443,1,0,0.599,,0,45,45,83,1,non_cognate,1,REAL,FALSA
,,,,,,,,,665cc47a17d25ef9f0db3ad9,001,2024-06-07_07h54.06.663,empathy_intonation_perc,2024.1.4,Win32,59.66587112,,,,,,,,,,,,,,56,pico,,,,,,93.444,94.587,0,1,0.609,,0,46,46,55,1,non_cognate,1,REAL,FALSA
,,,,,,,,,665cc47a17d25ef9f0db3ad9,001,2024-06-07_07h54.06.663,empathy_intonation_perc,2024.1.4,Win32,59.66587112,,,,,,,,,,,,,,112,cituló,,,,,,94.587,95.619,1,0,0.496,,0,47,47,111,1,pseudoword,0,REAL,FALSA
,,,,,,,,,665cc47a17d25ef9f0db3ad9,001,2024-06-07_07h54.06.663,empathy_intonation_perc,2024.1.4,Win32,59.66587112,,,,,,,,,,,,,,6,albino,,,,,,95.62,97.059,0,1,0.904,,0,48,48,5,1,three_way_cognate,1,REAL,FALSA
,,,,,,,,,665cc47a17d25ef9f0db3ad9,001,2024-06-07_07h54.06.663,empathy_intonation_perc,2024.1.4,Win32,59.66587112,,,,,,,,,,,,,,16,clan,,,,,,97.062,97.864,1,0,0.268,,0,49,49,15,1,three_way_cognate,1,REAL,FALSA
,,,,,,,,,665cc47a17d25ef9f0db3ad9,001,2024-06-07_07h54.06.663,empathy_intonation_perc,2024.1.4,Win32,59.66587112,,,,,,,,,,,,,,43,honor,,,,,,97.865,98.754,0,1,0.352,,0,50,50,42,1,two_way_cognate,1,REAL,FALSA
,,,,,,,,,665cc47a17d25ef9f0db3ad9,001,2024-06-07_07h54.06.663,empathy_intonation_perc,2024.1.4,Win32,59.66587112,,,,,,,,,,,,,,123,escare,,,,,,98.755,99.645,1,0,0.352,,0,51,51,122,1,pseudoword,0,REAL,FALSA
,,,,,,,,,665cc47a17d25ef9f0db3ad9,001,2024-06-07_07h54.06.663,empathy_intonation_perc,2024.1.4,Win32,59.66587112,,,,,,,,,,,,,,104,vitra,,,,,,99.645,100.455,0,1,0.268,,0,52,52,103,1,pseudoword,0,REAL,FALSA
,,,,,,,,,665cc47a17d25ef9f0db3ad9,001,2024-06-07_07h54.06.663,empathy_intonation_perc,2024.1.4,Win32,59.66587112,,,,,,,,,,,,,,116,crene,,,,,,100.456,101.418,0,1,0.425,,0,53,53,115,1,pseudoword,0,REAL,FALSA
,,,,,,,,,665cc47a17d25ef9f0db3ad9,001,2024-06-07_07h54.06.663,empathy_intonation_perc,2024.1.4,Win32,59.66587112,,,,,,,,,,,,,,132,nocó,,,,,,101.419,102.305,0,1,0.353,,0,54,54,131,1,pseudoword,0,REAL,FALSA
,,,,,,,,,665cc47a17d25ef9f0db3ad9,001,2024-06-07_07h54.06.663,empathy_intonation_perc,2024.1.4,Win32,59.66587112,,,,,,,,,,,,,,87,muleta,,,,,,102.306,103.156,1,0,0.319,,0,55,55,86,1,non_cognate,1,REAL,FALSA
,,,,,,,,,665cc47a17d25ef9f0db3ad9,001,2024-06-07_07h54.06.663,empathy_intonation_perc,2024.1.4,Win32,59.66587112,,,,,,,,,,,,,,46,mortal,,,,,,103.157,104.098,0,1,0.405,,0,56,56,45,1,two_way_cognate,1,REAL,FALSA
,,,,,,,,,665cc47a17d25ef9f0db3ad9,001,2024-06-07_07h54.06.663,empathy_intonation_perc,2024.1.4,Win32,59.66587112,,,,,,,,,,,,,,5,horror,,,,,,104.099,106.275,1,0,1.637,,0,57,57,4,1,three_way_cognate,1,REAL,FALSA
,,,,,,,,,665cc47a17d25ef9f0db3ad9,001,2024-06-07_07h54.06.663,empathy_intonation_perc,2024.1.4,Win32,59.66587112,,,,,,,,,,,,,,101,fertes,,,,,,106.276,107.836,1,0,1.036,,0,58,58,100,1,pseudoword,0,REAL,FALSA
,,,,,,,,,665cc47a17d25ef9f0db3ad9,001,2024-06-07_07h54.06.663,empathy_intonation_perc,2024.1.4,Win32,59.66587112,,,,,,,,,,,,,,48,pelvis,,,,,,107.838,109.003,1,0,0.632,,0,59,59,47,1,two_way_cognate,1,REAL,FALSA
,,,,,,,,,665cc47a17d25ef9f0db3ad9,001,2024-06-07_07h54.06.663,empathy_intonation_perc,2024.1.4,Win32,59.66587112,,,,,,,,,,,,,,133,tirafa,,,,,,109.004,110.223,0,1,0.69,,0,60,60,132,1,pseudoword,0,REAL,FALSA
,,,,,,,,,665cc47a17d25ef9f0db3ad9,001,2024-06-07_07h54.06.663,empathy_intonation_perc,2024.1.4,Win32,59.66587112,,,,,,,,,,,,,,71,torta,,,,,,110.224,111.334,1,0,0.574,,0,61,61,70,1,non_cognate,1,REAL,FALSA
,,,,,,,,,665cc47a17d25ef9f0db3ad9,001,2024-06-07_07h54.06.663,empathy_intonation_perc,2024.1.4,Win32,59.66587112,,,,,,,,,,,,,,128,pelí,,,,,,111.335,112.643,1,0,0.776,,0,62,62,127,1,pseudoword,0,REAL,FALSA
,,,,,,,,,665cc47a17d25ef9f0db3ad9,001,2024-06-07_07h54.06.663,empathy_intonation_perc,2024.1.4,Win32,59.66587112,,,,,,,,,,,,,,22,plural,,,,,,112.644,113.81,1,0,0.635,,0,63,63,21,1,three_way_cognate,1,REAL,FALSA
,,,,,,,,,665cc47a17d25ef9f0db3ad9,001,2024-06-07_07h54.06.663,empathy_intonation_perc,2024.1.4,Win32,59.66587112,,,,,,,,,,,,,,77,suave,,,,,,113.81,114.904,1,0,0.565,,0,64,64,76,1,non_cognate,1,REAL,FALSA
,,,,,,,,,665cc47a17d25ef9f0db3ad9,001,2024-06-07_07h54.06.663,empathy_intonation_perc,2024.1.4,Win32,59.66587112,,,,,,,,,,,,,,36,viable,,,,,,114.905,116.358,1,0,0.929,,0,65,65,35,1,two_way_cognate,1,REAL,FALSA
,,,,,,,,,665cc47a17d25ef9f0db3ad9,001,2024-06-07_07h54.06.663,empathy_intonation_perc,2024.1.4,Win32,59.66587112,,,,,,,,,,,,,,40,pelvis,,,,,,116.358,117.317,1,0,0.428,,0,66,66,39,1,two_way_cognate,1,REAL,FALSA
,,,,,,,,,665cc47a17d25ef9f0db3ad9,001,2024-06-07_07h54.06.663,empathy_intonation_perc,2024.1.4,Win32,59.66587112,,,,,,,,,,,,,,121,rombar,,,,,,117.318,119.136,0,1,1.292,,0,67,67,120,1,pseudoword,0,REAL,FALSA
,,,,,,,,,665cc47a17d25ef9f0db3ad9,001,2024-06-07_07h54.06.663,empathy_intonation_perc,2024.1.4,Win32,59.66587112,,,,,,,,,,,,,,120,hierno,,,,,,119.136,120.381,0,1,0.707,,0,68,68,119,1,pseudoword,0,REAL,FALSA
,,,,,,,,,665cc47a17d25ef9f0db3ad9,001,2024-06-07_07h54.06.663,empathy_intonation_perc,2024.1.4,Win32,59.66587112,,,,,,,,,,,,,,3,flora,,,,,,120.382,121.412,1,0,0.503,,0,69,69,2,1,three_way_cognate,1,REAL,FALSA
,,,,,,,,,665cc47a17d25ef9f0db3ad9,001,2024-06-07_07h54.06.663,empathy_intonation_perc,2024.1.4,Win32,59.66587112,,,,,,,,,,,,,,79,suelo,,,,,,121.412,122.844,0,1,0.889,,0,70,70,78,1,non_cognate,1,REAL,FALSA
,,,,,,,,,665cc47a17d25ef9f0db3ad9,001,2024-06-07_07h54.06.663,empathy_intonation_perc,2024.1.4,Win32,59.66587112,,,,,,,,,,,,,,58,colcha,,,,,,122.845,124.299,1,0,0.93,,0,71,71,57,1,non_cognate,1,REAL,FALSA
,,,,,,,,,665cc47a17d25ef9f0db3ad9,001,2024-06-07_07h54.06.663,empathy_intonation_perc,2024.1.4,Win32,59.66587112,,,,,,,,,,,,,,108,viarle,,,,,,124.3,125.491,1,0,0.668,,0,72,72,107,1,pseudoword,0,REAL,FALSA
,,,,,,,,,665cc47a17d25ef9f0db3ad9,001,2024-06-07_07h54.06.663,empathy_intonation_perc,2024.1.4,Win32,59.66587112,,,,,,,,,,,,,,20,hotel,,,,,,125.491,126.52,1,0,0.495,,0,73,73,19,1,three_way_cognate,1,REAL,FALSA
,,,,,,,,,665cc47a17d25ef9f0db3ad9,001,2024-06-07_07h54.06.663,empathy_intonation_perc,2024.1.4,Win32,59.66587112,,,,,,,,,,,,,,23,porno,,,,,,126.521,127.623,1,0,0.575,,0,74,74,22,1,three_way_cognate,1,REAL,FALSA
,,,,,,,,,665cc47a17d25ef9f0db3ad9,001,2024-06-07_07h54.06.663,empathy_intonation_perc,2024.1.4,Win32,59.66587112,,,,,,,,,,,,,,115,civas,,,,,,127.623,128.719,1,0,0.559,,0,75,75,114,1,pseudoword,0,REAL,FALSA
,,,,,,,,,665cc47a17d25ef9f0db3ad9,001,2024-06-07_07h54.06.663,empathy_intonation_perc,2024.1.4,Win32,59.66587112,,,,,,,,,,,,,,39,casual,,,,,,128.72,129.85,1,0,0.593,,0,76,76,38,1,two_way_cognate,1,REAL,FALSA
,,,,,,,,,665cc47a17d25ef9f0db3ad9,001,2024-06-07_07h54.06.663,empathy_intonation_perc,2024.1.4,Win32,59.66587112,,,,,,,,,,,,,,38,halo,,,,,,129.85,130.944,1,0,0.573,,0,77,77,37,1,two_way_cognate,1,REAL,FALSA
,,,,,,,,,665cc47a17d25ef9f0db3ad9,001,2024-06-07_07h54.06.663,empathy_intonation_perc,2024.1.4,Win32,59.66587112,,,,,,,,,,,,,,97,hufón,,,,,,130.945,132.428,0,1,0.953,,0,78,78,96,1,pseudoword,0,REAL,FALSA
,,,,,,,,,665cc47a17d25ef9f0db3ad9,001,2024-06-07_07h54.06.663,empathy_intonation_perc,2024.1.4,Win32,59.66587112,,,,,,,,,,,,,,138,glural,,,,,,132.429,135.693,1,0,2.716,,0,79,79,137,1,pseudoword,0,REAL,FALSA
,,,,,,,,,665cc47a17d25ef9f0db3ad9,001,2024-06-07_07h54.06.663,empathy_intonation_perc,2024.1.4,Win32,59.66587112,,,,,,,,,,,,,,53,punta,,,,,,135.697,136.819,1,0,0.587,,0,80,80,52,1,non_cognate,1,REAL,FALSA
,,,,,,,,,665cc47a17d25ef9f0db3ad9,001,2024-06-07_07h54.06.663,empathy_intonation_perc,2024.1.4,Win32,59.66587112,,,,,,,,,,,,,,55,maldad,,,,,,136.82,138.019,1,0,0.667,,0,81,81,54,1,non_cognate,1,REAL,FALSA
,,,,,,,,,665cc47a17d25ef9f0db3ad9,001,2024-06-07_07h54.06.663,empathy_intonation_perc,2024.1.4,Win32,59.66587112,,,,,,,,,,,,,,50,sierra,,,,,,138.02,139.062,1,0,0.503,,0,82,82,49,1,non_cognate,1,REAL,FALSA
,,,,,,,,,665cc47a17d25ef9f0db3ad9,001,2024-06-07_07h54.06.663,empathy_intonation_perc,2024.1.4,Win32,59.66587112,,,,,,,,,,,,,,19,trauma,,,,,,139.062,140.055,1,0,0.454,,0,83,83,18,1,three_way_cognate,1,REAL,FALSA
,,,,,,,,,665cc47a17d25ef9f0db3ad9,001,2024-06-07_07h54.06.663,empathy_intonation_perc,2024.1.4,Win32,59.66587112,,,,,,,,,,,,,,111,vibler,,,,,,140.055,140.961,1,0,0.373,,0,84,84,110,1,pseudoword,0,REAL,FALSA
,,,,,,,,,665cc47a17d25ef9f0db3ad9,001,2024-06-07_07h54.06.663,empathy_intonation_perc,2024.1.4,Win32,59.66587112,,,,,,,,,,,,,,15,chat,,,,,,140.961,141.904,0,1,0.408,,0,85,85,14,1,three_way_cognate,1,REAL,FALSA
,,,,,,,,,665cc47a17d25ef9f0db3ad9,001,2024-06-07_07h54.06.663,empathy_intonation_perc,2024.1.4,Win32,59.66587112,,,,,,,,,,,,,,88,percha,,,,,,141.905,143.025,1,0,0.599,,0,86,86,87,1,non_cognate,1,REAL,FALSA
,,,,,,,,,665cc47a17d25ef9f0db3ad9,001,2024-06-07_07h54.06.663,empathy_intonation_perc,2024.1.4,Win32,59.66587112,,,,,,,,,,,,,,27,piano,,,,,,143.026,144.111,1,0,0.544,,0,87,87,26,1,two_way_cognate,1,REAL,FALSA
,,,,,,,,,665cc47a17d25ef9f0db3ad9,001,2024-06-07_07h54.06.663,empathy_intonation_perc,2024.1.4,Win32,59.66587112,,,,,,,,,,,,,,80,cuenco,,,,,,144.115,145.316,1,0,0.664,,0,88,88,79,1,non_cognate,1,REAL,FALSA
,,,,,,,,,665cc47a17d25ef9f0db3ad9,001,2024-06-07_07h54.06.663,empathy_intonation_perc,2024.1.4,Win32,59.66587112,,,,,,,,,,,,,,68,puñal,,,,,,145.318,146.286,1,0,0.432,,0,89,89,67,1,non_cognate,1,REAL,FALSA
,,,,,,,,,665cc47a17d25ef9f0db3ad9,001,2024-06-07_07h54.06.663,empathy_intonation_perc,2024.1.4,Win32,59.66587112,,,,,,,,,,,,,,29,clamor,,,,,,146.287,147.27,1,0,0.456,,0,90,90,28,1,two_way_cognate,1,REAL,FALSA
,,,,,,,,,665cc47a17d25ef9f0db3ad9,001,2024-06-07_07h54.06.663,empathy_intonation_perc,2024.1.4,Win32,59.66587112,,,,,,,,,,,,,,92,flecha,,,,,,147.27,148.218,1,0,0.412,,0,91,91,91,1,non_cognate,1,REAL,FALSA
,,,,,,,,,665cc47a17d25ef9f0db3ad9,001,2024-06-07_07h54.06.663,empathy_intonation_perc,2024.1.4,Win32,59.66587112,,,,,,,,,,,,,,126,anicio,,,,,,148.219,149.266,1,0,0.524,,0,92,92,125,1,pseudoword,0,REAL,FALSA
,,,,,,,,,665cc47a17d25ef9f0db3ad9,001,2024-06-07_07h54.06.663,empathy_intonation_perc,2024.1.4,Win32,59.66587112,,,,,,,,,,,,,,100,medón,,,,,,149.268,150.661,1,0,0.869,,0,93,93,99,1,pseudoword,0,REAL,FALSA
,,,,,,,,,665cc47a17d25ef9f0db3ad9,001,2024-06-07_07h54.06.663,empathy_intonation_perc,2024.1.4,Win32,59.66587112,,,,,,,,,,,,,,24,retina,,,,,,150.662,151.57,1,0,0.374,,0,94,94,23,1,three_way_cognate,1,REAL,FALSA
,,,,,,,,,665cc47a17d25ef9f0db3ad9,001,2024-06-07_07h54.06.663,empathy_intonation_perc,2024.1.4,Win32,59.66587112,,,,,,,,,,,,,,130,dubo,,,,,,151.57,152.509,1,0,0.398,,0,95,95,129,1,pseudoword,0,REAL,FALSA
,,,,,,,,,665cc47a17d25ef9f0db3ad9,001,2024-06-07_07h54.06.663,empathy_intonation_perc,2024.1.4,Win32,59.66587112,,,,,,,,,,,,,,76,chocar,,,,,,152.509,153.431,1,0,0.397,,0,96,96,75,1,non_cognate,1,REAL,FALSA
,,,,,,,,,665cc47a17d25ef9f0db3ad9,001,2024-06-07_07h54.06.663,empathy_intonation_perc,2024.1.4,Win32,59.66587112,,,,,,,,,,,,,,91,equipo,,,,,,153.432,154.803,0,1,0.836,,0,97,97,90,1,non_cognate,1,REAL,FALSA
,,,,,,,,,665cc47a17d25ef9f0db3ad9,001,2024-06-07_07h54.06.663,empathy_intonation_perc,2024.1.4,Win32,59.66587112,,,,,,,,,,,,,,1,tumor,,,,,,154.803,156.194,1,0,0.863,,0,98,98,0,1,three_way_cognate,1,REAL,FALSA
,,,,,,,,,665cc47a17d25ef9f0db3ad9,001,2024-06-07_07h54.06.663,empathy_intonation_perc,2024.1.4,Win32,59.66587112,,,,,,,,,,,,,,93,tapa,,,,,,156.195,157.235,1,0,0.505,,0,99,99,92,1,non_cognate,1,REAL,FALSA
,,,,,,,,,665cc47a17d25ef9f0db3ad9,001,2024-06-07_07h54.06.663,empathy_intonation_perc,2024.1.4,Win32,59.66587112,,,,,,,,,,,,,,57,regalo,,,,,,157.235,158.498,0,1,0.725,,0,100,100,56,1,non_cognate,1,REAL,FALSA
,,,,,,,,,665cc47a17d25ef9f0db3ad9,001,2024-06-07_07h54.06.663,empathy_intonation_perc,2024.1.4,Win32,59.66587112,,,,,,,,,,,,,,83,hálito,,,,,,158.499,159.579,1,0,0.548,,0,101,101,82,1,non_cognate,1,REAL,FALSA
,,,,,,,,,665cc47a17d25ef9f0db3ad9,001,2024-06-07_07h54.06.663,empathy_intonation_perc,2024.1.4,Win32,59.66587112,,,,,,,,,,,,,,18,mafia,,,,,,159.579,160.687,1,0,0.576,,0,102,102,17,1,three_way_cognate,1,REAL,FALSA
,,,,,,,,,665cc47a17d25ef9f0db3ad9,001,2024-06-07_07h54.06.663,empathy_intonation_perc,2024.1.4,Win32,59.66587112,,,,,,,,,,,,,,124,lobe,,,,,,160.688,161.697,1,0,0.479,,0,103,103,123,1,pseudoword,0,REAL,FALSA
,,,,,,,,,665cc47a17d25ef9f0db3ad9,001,2024-06-07_07h54.06.663,empathy_intonation_perc,2024.1.4,Win32,59.66587112,,,,,,,,,,,,,,8,portal,,,,,,161.697,162.697,1,0,0.463,,0,104,104,7,1,three_way_cognate,1,REAL,FALSA
,,,,,,,,,665cc47a17d25ef9f0db3ad9,001,2024-06-07_07h54.06.663,empathy_intonation_perc,2024.1.4,Win32,59.66587112,,,,,,,,,,,,,,129,suchas,,,,,,162.698,163.863,1,0,0.626,,0,105,105,128,1,pseudoword,0,REAL,FALSA
,,,,,,,,,665cc47a17d25ef9f0db3ad9,001,2024-06-07_07h54.06.663,empathy_intonation_perc,2024.1.4,Win32,59.66587112,,,,,,,,,,,,,,95,listo,,,,,,163.866,164.914,1,0,0.516,,0,106,106,94,1,non_cognate,1,REAL,FALSA
,,,,,,,,,665cc47a17d25ef9f0db3ad9,001,2024-06-07_07h54.06.663,empathy_intonation_perc,2024.1.4,Win32,59.66587112,,,,,,,,,,,,,,11,dogma,,,,,,164.918,165.934,1,0,0.493,,0,107,107,10,1,three_way_cognate,1,REAL,FALSA
,,,,,,,,,665cc47a17d25ef9f0db3ad9,001,2024-06-07_07h54.06.663,empathy_intonation_perc,2024.1.4,Win32,59.66587112,,,,,,,,,,,,,,45,total,,,,,,165.934,166.901,0,1,0.435,,0,108,108,44,1,two_way_cognate,1,REAL,FALSA
,,,,,,,,,665cc47a17d25ef9f0db3ad9,001,2024-06-07_07h54.06.663,empathy_intonation_perc,2024.1.4,Win32,59.66587112,,,,,,,,,,,,,,65,guerra,,,,,,166.902,167.829,1,0,0.395,,0,109,109,64,1,non_cognate,1,REAL,FALSA
,,,,,,,,,665cc47a17d25ef9f0db3ad9,001,2024-06-07_07h54.06.663,empathy_intonation_perc,2024.1.4,Win32,59.66587112,,,,,,,,,,,,,,106,baurá,,,,,,167.83,168.751,1,0,0.388,,0,110,110,105,1,pseudoword,0,REAL,FALSA
,,,,,,,,,665cc47a17d25ef9f0db3ad9,001,2024-06-07_07h54.06.663,empathy_intonation_perc,2024.1.4,Win32,59.66587112,,,,,,,,,,,,,,135,macayó,,,,,,168.752,169.906,1,0,0.626,,0,111,111,134,1,pseudoword,0,REAL,FALSA
,,,,,,,,,665cc47a17d25ef9f0db3ad9,001,2024-06-07_07h54.06.663,empathy_intonation_perc,2024.1.4,Win32,59.66587112,,,,,,,,,,,,,,140,vapen,,,,,,169.908,171.01,1,0,0.568,,0,112,112,139,1,pseudoword,0,REAL,FALSA
,,,,,,,,,665cc47a17d25ef9f0db3ad9,001,2024-06-07_07h54.06.663,empathy_intonation_perc,2024.1.4,Win32,59.66587112,,,,,,,,,,,,,,110,vacapó,,,,,,171.012,172.001,0,1,0.452,,0,113,113,109,1,pseudoword,0,REAL,FALSA
,,,,,,,,,665cc47a17d25ef9f0db3ad9,001,2024-06-07_07h54.06.663,empathy_intonation_perc,2024.1.4,Win32,59.66587112,,,,,,,,,,,,,,67,llamar,,,,,,172.003,173.078,1,0,0.542,,0,114,114,66,1,non_cognate,1,REAL,FALSA
,,,,,,,,,665cc47a17d25ef9f0db3ad9,001,2024-06-07_07h54.06.663,empathy_intonation_perc,2024.1.4,Win32,59.66587112,,,,,,,,,,,,,,118,bará,,,,,,173.078,174.164,1,0,0.562,,0,115,115,117,1,pseudoword,0,REAL,FALSA
,,,,,,,,,665cc47a17d25ef9f0db3ad9,001,2024-06-07_07h54.06.663,empathy_intonation_perc,2024.1.4,Win32,59.66587112,,,,,,,,,,,,,,105,curgué,,,,,,174.165,175.22,0,1,0.516,,0,116,116,104,1,pseudoword,0,REAL,FALSA
,,,,,,,,,665cc47a17d25ef9f0db3ad9,001,2024-06-07_07h54.06.663,empathy_intonation_perc,2024.1.4,Win32,59.66587112,,,,,,,,,,,,,,134,fruzas,,,,,,175.222,176.518,1,0,0.768,,0,117,117,133,1,pseudoword,0,REAL,FALSA
,,,,,,,,,665cc47a17d25ef9f0db3ad9,001,2024-06-07_07h54.06.663,empathy_intonation_perc,2024.1.4,Win32,59.66587112,,,,,,,,,,,,,,69,tiza,,,,,,176.518,177.432,0,1,0.39,,0,118,118,68,1,non_cognate,1,REAL,FALSA
,,,,,,,,,665cc47a17d25ef9f0db3ad9,001,2024-06-07_07h54.06.663,empathy_intonation_perc,2024.1.4,Win32,59.66587112,,,,,,,,,,,,,,47,color,,,,,,177.433,178.301,1,0,0.337,,0,119,119,46,1,two_way_cognate,1,REAL,FALSA
,,,,,,,,,665cc47a17d25ef9f0db3ad9,001,2024-06-07_07h54.06.663,empathy_intonation_perc,2024.1.4,Win32,59.66587112,,,,,,,,,,,,,,137,unglés,,,,,,178.301,179.378,0,1,0.543,,0,120,120,136,1,pseudoword,0,REAL,FALSA
,,,,,,,,,665cc47a17d25ef9f0db3ad9,001,2024-06-07_07h54.06.663,empathy_intonation_perc,2024.1.4,Win32,59.66587112,,,,,,,,,,,,,,74,ala,,,,,,179.378,180.441,1,0,0.537,,0,121,121,73,1,non_cognate,1,REAL,FALSA
,,,,,,,,,665cc47a17d25ef9f0db3ad9,001,2024-06-07_07h54.06.663,empathy_intonation_perc,2024.1.4,Win32,59.66587112,,,,,,,,,,,,,,26,enigma,,,,,,180.442,181.451,1,0,0.486,,0,122,122,25,1,two_way_cognate,1,REAL,FALSA
,,,,,,,,,665cc47a17d25ef9f0db3ad9,001,2024-06-07_07h54.06.663,empathy_intonation_perc,2024.1.4,Win32,59.66587112,,,,,,,,,,,,,,4,extra,,,,,,181.452,182.474,1,0,0.486,,0,123,123,3,1,three_way_cognate,1,REAL,FALSA
,,,,,,,,,665cc47a17d25ef9f0db3ad9,001,2024-06-07_07h54.06.663,empathy_intonation_perc,2024.1.4,Win32,59.66587112,,,,,,,,,,,,,,14,test,,,,,,182.474,183.377,1,0,0.37,,0,124,124,13,1,three_way_cognate,1,REAL,FALSA
,,,,,,,,,665cc47a17d25ef9f0db3ad9,001,2024-06-07_07h54.06.663,empathy_intonation_perc,2024.1.4,Win32,59.66587112,,,,,,,,,,,,,,113,difrás,,,,,,183.378,184.292,1,0,0.373,,0,125,125,112,1,pseudoword,0,REAL,FALSA
,,,,,,,,,665cc47a17d25ef9f0db3ad9,001,2024-06-07_07h54.06.663,empathy_intonation_perc,2024.1.4,Win32,59.66587112,,,,,,,,,,,,,,143,pledú,,,,,,184.292,185.234,1,0,0.409,,0,126,126,142,1,pseudoword,0,REAL,FALSA
,,,,,,,,,665cc47a17d25ef9f0db3ad9,001,2024-06-07_07h54.06.663,empathy_intonation_perc,2024.1.4,Win32,59.66587112,,,,,,,,,,,,,,107,plamos,,,,,,185.235,186.237,1,0,0.469,,0,127,127,106,1,pseudoword,0,REAL,FALSA
,,,,,,,,,665cc47a17d25ef9f0db3ad9,001,2024-06-07_07h54.06.663,empathy_intonation_perc,2024.1.4,Win32,59.66587112,,,,,,,,,,,,,,12,plan,,,,,,186.238,187.246,1,0,0.483,,0,128,128,11,1,three_way_cognate,1,REAL,FALSA
,,,,,,,,,665cc47a17d25ef9f0db3ad9,001,2024-06-07_07h54.06.663,empathy_intonation_perc,2024.1.4,Win32,59.66587112,,,,,,,,,,,,,,142,viseña,,,,,,187.248,188.616,1,0,0.837,,0,129,129,141,1,pseudoword,0,REAL,FALSA
,,,,,,,,,665cc47a17d25ef9f0db3ad9,001,2024-06-07_07h54.06.663,empathy_intonation_perc,2024.1.4,Win32,59.66587112,,,,,,,,,,,,,,144,piria,,,,,,188.617,189.935,0,1,0.777,,0,130,130,143,1,pseudoword,0,REAL,FALSA
,,,,,,,,,665cc47a17d25ef9f0db3ad9,001,2024-06-07_07h54.06.663,empathy_intonation_perc,2024.1.4,Win32,59.66587112,,,,,,,,,,,,,,78,rendir,,,,,,189.936,190.925,1,0,0.467,,0,131,131,77,1,non_cognate,1,REAL,FALSA
,,,,,,,,,665cc47a17d25ef9f0db3ad9,001,2024-06-07_07h54.06.663,empathy_intonation_perc,2024.1.4,Win32,59.66587112,,,,,,,,,,,,,,114,potos,,,,,,190.926,192.442,1,0,0.977,,0,132,132,113,1,pseudoword,0,REAL,FALSA
,,,,,,,,,665cc47a17d25ef9f0db3ad9,001,2024-06-07_07h54.06.663,empathy_intonation_perc,2024.1.4,Win32,59.66587112,,,,,,,,,,,,,,63,hilo,,,,,,192.442,193.772,0,1,0.799,,0,133,133,62,1,non_cognate,1,REAL,FALSA
,,,,,,,,,665cc47a17d25ef9f0db3ad9,001,2024-06-07_07h54.06.663,empathy_intonation_perc,2024.1.4,Win32,59.66587112,,,,,,,,,,,,,,28,ardor,,,,,,193.772,195.115,0,1,0.813,,0,134,134,27,1,two_way_cognate,1,REAL,FALSA
,,,,,,,,,665cc47a17d25ef9f0db3ad9,001,2024-06-07_07h54.06.663,empathy_intonation_perc,2024.1.4,Win32,59.66587112,,,,,,,,,,,,,,52,blando,,,,,,195.116,196.364,1,0,0.717,,0,135,135,51,1,non_cognate,1,REAL,FALSA
,,,,,,,,,665cc47a17d25ef9f0db3ad9,001,2024-06-07_07h54.06.663,empathy_intonation_perc,2024.1.4,Win32,59.66587112,,,,,,,,,,,,,,60,siglo,,,,,,196.367,197.535,0,1,0.627,,0,136,136,59,1,non_cognate,1,REAL,FALSA
,,,,,,,,,665cc47a17d25ef9f0db3ad9,001,2024-06-07_07h54.06.663,empathy_intonation_perc,2024.1.4,Win32,59.66587112,,,,,,,,,,,,,,102,coyo,,,,,,197.537,198.778,0,1,0.7,,0,137,137,101,1,pseudoword,0,REAL,FALSA
,,,,,,,,,665cc47a17d25ef9f0db3ad9,001,2024-06-07_07h54.06.663,empathy_intonation_perc,2024.1.4,Win32,59.66587112,,,,,,,,,,,,,,81,sacar,,,,,,198.779,200.099,1,0,0.795,,0,138,138,80,1,non_cognate,1,REAL,FALSA
,,,,,,,,,665cc47a17d25ef9f0db3ad9,001,2024-06-07_07h54.06.663,empathy_intonation_perc,2024.1.4,Win32,59.66587112,,,,,,,,,,,,,,54,tapón,,,,,,200.1,201.286,0,1,0.655,,0,139,139,53,1,non_cognate,1,REAL,FALSA
,,,,,,,,,665cc47a17d25ef9f0db3ad9,001,2024-06-07_07h54.06.663,empathy_intonation_perc,2024.1.4,Win32,59.66587112,,,,,,,,,,,,,,35,aurora,,,,,,201.287,202.381,1,0,0.571,,0,140,140,34,1,two_way_cognate,1,REAL,FALSA
,,,,,,,,,665cc47a17d25ef9f0db3ad9,001,2024-06-07_07h54.06.663,empathy_intonation_perc,2024.1.4,Win32,59.66587112,,,,,,,,,,,,,,70,ánimo,,,,,,202.382,203.647,1,0,0.729,,0,141,141,69,1,non_cognate,1,REAL,FALSA
,,,,,,,,,665cc47a17d25ef9f0db3ad9,001,2024-06-07_07h54.06.663,empathy_intonation_perc,2024.1.4,Win32,59.66587112,,,,,,,,,,,,,,51,listo,,,,,,203.648,204.737,1,0,0.555,,0,142,142,50,1,non_cognate,1,REAL,FALSA
,,,,,,,,,665cc47a17d25ef9f0db3ad9,001,2024-06-07_07h54.06.663,empathy_intonation_perc,2024.1.4,Win32,59.66587112,,,,,,,,,,,,,,41,pasta,,,,,,204.739,205.877,1,0,0.609,,0,143,143,40,1,two_way_cognate,1,REAL,FALSA
