lextale_instructions.started,lextale_instructions.stopped,lextale_instructions_loop.thisRepN,lextale_instructions_loop.thisTrialN,lextale_instructions_loop.thisN,lextale_instructions_loop.thisIndex,lextale_instructions_loop.ran,instructions_text,continue_text,participant,session,date,expName,psychopyVersion,OS,frameRate,lextale_practice.started,lextale_practice.stopped,key_resp_lextale_practice.keys,key_resp_lextale_practice.corr,key_resp_lextale_practice.rt,key_resp_lextale_practice.duration,lextale_practice_feedback.started,lextale_practice_feedback.stopped,lextale_practice_trials.thisRepN,lextale_practice_trials.thisTrialN,lextale_practice_trials.thisN,lextale_practice_trials.thisIndex,lextale_practice_trials.ran,stim,word,correct_response,prac_button_real,prac_button_false,lextale_check.started,lextale_check.stopped,lextale_trial.started,lextale_trial.stopped,key_resp_lextale_trial.keys,key_resp_lextale_trial.corr,key_resp_lextale_trial.rt,key_resp_lextale_trial.duration,lextail_trials.thisRepN,lextail_trials.thisTrialN,lextail_trials.thisN,lextail_trials.thisIndex,lextail_trials.ran,type,correct_reponse,button_real,button_false
0.0073,21.044,0,0,0,0,1,"Este es un test de vocabulario en español. 
  
  A continuación vas a ver 90 secuencias de letras que parecen 'españolas'.
  
  Solo algunas de ellas son palabras de verdad.",(presiona la barra espaciadora para continuar),6661ac7f36dba1d289f2827a,001,2024-06-07_07h39.39.476,empathy_intonation_perc,2024.1.4,Win32,59.52380952,,,,,,,,,,,,,,,,,,,,,,,,,,,,,,,,,,,
21.0459,27.1241,0,1,1,1,1,"Por favor, señala las palabras que tú conoces (aquellas que estás convencido que son palabras españolas, incluso aunque no seas capaz de dar el significado preciso).",(presiona la barra espaciadora para continuar),6661ac7f36dba1d289f2827a,001,2024-06-07_07h39.39.476,empathy_intonation_perc,2024.1.4,Win32,59.52380952,,,,,,,,,,,,,,,,,,,,,,,,,,,,,,,,,,,
27.1251,34.6898,0,2,2,2,1,Pero cuidado: los errores se penalizan. Por eso no tiene sentido tratar de incrementar tu puntuación marcando como reales palabras que nunca has visto.,(presiona la barra espaciadora para continuar),6661ac7f36dba1d289f2827a,001,2024-06-07_07h39.39.476,empathy_intonation_perc,2024.1.4,Win32,59.52380952,,,,,,,,,,,,,,,,,,,,,,,,,,,,,,,,,,,
34.6906,41.3898,0,3,3,3,1,"Presiona la tecla 1 si piensas que es una palabra real y la tecla 
  0 si piensas que es una palabra falsa. 
  
  Vamos a practicar un poco...",(presiona la barra espaciadora para continuar),6661ac7f36dba1d289f2827a,001,2024-06-07_07h39.39.476,empathy_intonation_perc,2024.1.4,Win32,59.52380952,,,,,,,,,,,,,,,,,,,,,,,,,,,,,,,,,,,
,,,,,,,,,6661ac7f36dba1d289f2827a,001,2024-06-07_07h39.39.476,empathy_intonation_perc,2024.1.4,Win32,59.52380952,41.398,47.2901,1,0,5.3549,,47.2906,48.2895,0,0,0,0,1,0,depiste,0,REAL,FALSA,,,,,,,,,,,,,,,,,
,,,,,,,,,6661ac7f36dba1d289f2827a,001,2024-06-07_07h39.39.476,empathy_intonation_perc,2024.1.4,Win32,59.52380952,48.2906,50.1564,1,1,1.3328,,50.1566,51.1563,0,1,1,1,1,0,sí,1,REAL,FALSA,,,,,,,,,,,,,,,,,
,,,,,,,,,6661ac7f36dba1d289f2827a,001,2024-06-07_07h39.39.476,empathy_intonation_perc,2024.1.4,Win32,59.52380952,51.1569,53.7062,0,1,2.0064,,53.7064,54.7055,0,2,2,2,1,0,coné,0,REAL,FALSA,,,,,,,,,,,,,,,,,
,,,,,,,,,6661ac7f36dba1d289f2827a,001,2024-06-07_07h39.39.476,empathy_intonation_perc,2024.1.4,Win32,59.52380952,54.7064,56.9557,0,1,1.7126,,56.9558,57.9557,0,3,3,3,1,0,calpar,0,REAL,FALSA,,,,,,,,,,,,,,,,,
,,,,,,,,,6661ac7f36dba1d289f2827a,001,2024-06-07_07h39.39.476,empathy_intonation_perc,2024.1.4,Win32,59.52380952,57.9563,59.6055,1,0,1.1152,,59.6057,60.6058,0,4,4,4,1,0,joten,0,REAL,FALSA,,,,,,,,,,,,,,,,,
,,,,,,,,,6661ac7f36dba1d289f2827a,001,2024-06-07_07h39.39.476,empathy_intonation_perc,2024.1.4,Win32,59.52380952,60.6369,62.1219,1,1,0.9651,,62.1222,63.1217,0,5,5,5,1,0,sacapuntas,1,REAL,FALSA,,,,,,,,,,,,,,,,,
,,,,,,,,,6661ac7f36dba1d289f2827a,001,2024-06-07_07h39.39.476,empathy_intonation_perc,2024.1.4,Win32,59.52380952,63.1225,65.0885,0,1,1.4276,,65.0887,66.0886,0,6,6,6,1,0,priba,0,REAL,FALSA,,,,,,,,,,,,,,,,,
,,,,,,,,,6661ac7f36dba1d289f2827a,001,2024-06-07_07h39.39.476,empathy_intonation_perc,2024.1.4,Win32,59.52380952,66.0893,67.8217,1,0,1.1971,,67.8218,68.8218,0,7,7,7,1,0,pelasula,0,REAL,FALSA,,,,,,,,,,,,,,,,,
,,,,,,,,,6661ac7f36dba1d289f2827a,001,2024-06-07_07h39.39.476,empathy_intonation_perc,2024.1.4,Win32,59.52380952,68.855,70.3041,1,1,0.9098,,70.3042,71.3044,0,8,8,8,1,0,bien,1,REAL,FALSA,,,,,,,,,,,,,,,,,
,,,,,,,,,6661ac7f36dba1d289f2827a,001,2024-06-07_07h39.39.476,empathy_intonation_perc,2024.1.4,Win32,59.52380952,71.3053,72.5378,1,1,0.7004,,72.5379,73.5377,0,9,9,9,1,0,casa,1,REAL,FALSA,,,,,,,,,,,,,,,,,
,,,,,,,,,6661ac7f36dba1d289f2827a,001,2024-06-07_07h39.39.476,empathy_intonation_perc,2024.1.4,Win32,59.52380952,73.5389,75.6375,1,0,1.5611,,75.6375,76.6377,0,10,10,10,1,0,lejo,0,REAL,FALSA,,,,,,,,,,,,,,,,,
,,,,,,,,,6661ac7f36dba1d289f2827a,001,2024-06-07_07h39.39.476,empathy_intonation_perc,2024.1.4,Win32,59.52380952,76.6648,78.7209,0,1,1.5347,,78.721,79.7208,0,11,11,11,1,0,pretantas,0,REAL,FALSA,,,,,,,,,,,,,,,,,
,,,,,,,,,6661ac7f36dba1d289f2827a,001,2024-06-07_07h39.39.476,empathy_intonation_perc,2024.1.4,Win32,59.52380952,,,,,,,,,,,,,,,,,,,79.7229,81.9051,,,,,,,,,,,,,,,
,,,,,,,,,6661ac7f36dba1d289f2827a,001,2024-06-07_07h39.39.476,empathy_intonation_perc,2024.1.4,Win32,59.52380952,,,,,,,,,,,,,,88,percha,,,,,,81.9672,84.5392,0,1,2.04,,0,0,0,87,1,non_cognate,1,REAL,FALSA
,,,,,,,,,6661ac7f36dba1d289f2827a,001,2024-06-07_07h39.39.476,empathy_intonation_perc,2024.1.4,Win32,59.52380952,,,,,,,,,,,,,,104,vitra,,,,,,84.5702,86.3033,0,1,1.215,,0,1,1,103,1,pseudoword,0,REAL,FALSA
,,,,,,,,,6661ac7f36dba1d289f2827a,001,2024-06-07_07h39.39.476,empathy_intonation_perc,2024.1.4,Win32,59.52380952,,,,,,,,,,,,,,55,maldad,,,,,,86.304,87.9866,0,1,1.1483,,0,2,2,54,1,non_cognate,1,REAL,FALSA
,,,,,,,,,6661ac7f36dba1d289f2827a,001,2024-06-07_07h39.39.476,empathy_intonation_perc,2024.1.4,Win32,59.52380952,,,,,,,,,,,,,,73,llevar,,,,,,87.9872,89.2868,1,0,0.768,,0,3,3,72,1,non_cognate,1,REAL,FALSA
,,,,,,,,,6661ac7f36dba1d289f2827a,001,2024-06-07_07h39.39.476,empathy_intonation_perc,2024.1.4,Win32,59.52380952,,,,,,,,,,,,,,12,plan,,,,,,89.2875,91.5532,0,1,1.735,,0,4,4,11,1,three_way_cognate,1,REAL,FALSA
,,,,,,,,,6661ac7f36dba1d289f2827a,001,2024-06-07_07h39.39.476,empathy_intonation_perc,2024.1.4,Win32,59.52380952,,,,,,,,,,,,,,117,apunan,,,,,,91.5536,93.1864,0,1,1.1032,,0,5,5,116,1,pseudoword,0,REAL,FALSA
,,,,,,,,,6661ac7f36dba1d289f2827a,001,2024-06-07_07h39.39.476,empathy_intonation_perc,2024.1.4,Win32,59.52380952,,,,,,,,,,,,,,137,unglés,,,,,,93.1872,94.7034,0,1,0.9783,,0,6,6,136,1,pseudoword,0,REAL,FALSA
,,,,,,,,,6661ac7f36dba1d289f2827a,001,2024-06-07_07h39.39.476,empathy_intonation_perc,2024.1.4,Win32,59.52380952,,,,,,,,,,,,,,46,mortal,,,,,,94.7041,96.2867,0,1,1.0467,,0,7,7,45,1,two_way_cognate,1,REAL,FALSA
,,,,,,,,,6661ac7f36dba1d289f2827a,001,2024-06-07_07h39.39.476,empathy_intonation_perc,2024.1.4,Win32,59.52380952,,,,,,,,,,,,,,58,colcha,,,,,,96.2878,97.4028,1,0,0.5828,,0,8,8,57,1,non_cognate,1,REAL,FALSA
,,,,,,,,,6661ac7f36dba1d289f2827a,001,2024-06-07_07h39.39.476,empathy_intonation_perc,2024.1.4,Win32,59.52380952,,,,,,,,,,,,,,17,altar,,,,,,97.4032,98.4698,1,0,0.5299,,0,9,9,16,1,three_way_cognate,1,REAL,FALSA
,,,,,,,,,6661ac7f36dba1d289f2827a,001,2024-06-07_07h39.39.476,empathy_intonation_perc,2024.1.4,Win32,59.52380952,,,,,,,,,,,,,,37,torso,,,,,,98.4705,100.0693,0,1,1.0671,,0,10,10,36,1,two_way_cognate,1,REAL,FALSA
,,,,,,,,,6661ac7f36dba1d289f2827a,001,2024-06-07_07h39.39.476,empathy_intonation_perc,2024.1.4,Win32,59.52380952,,,,,,,,,,,,,,129,suchas,,,,,,100.0699,101.8363,0,1,1.2389,,0,11,11,128,1,pseudoword,0,REAL,FALSA
,,,,,,,,,6661ac7f36dba1d289f2827a,001,2024-06-07_07h39.39.476,empathy_intonation_perc,2024.1.4,Win32,59.52380952,,,,,,,,,,,,,,133,tirafa,,,,,,101.837,102.9028,1,0,0.5287,,0,12,12,132,1,pseudoword,0,REAL,FALSA
,,,,,,,,,6661ac7f36dba1d289f2827a,001,2024-06-07_07h39.39.476,empathy_intonation_perc,2024.1.4,Win32,59.52380952,,,,,,,,,,,,,,101,fertes,,,,,,102.9034,104.036,1,0,0.5999,,0,13,13,100,1,pseudoword,0,REAL,FALSA
,,,,,,,,,6661ac7f36dba1d289f2827a,001,2024-06-07_07h39.39.476,empathy_intonation_perc,2024.1.4,Win32,59.52380952,,,,,,,,,,,,,,80,cuenco,,,,,,104.0368,105.5191,1,0,0.9442,,0,14,14,79,1,non_cognate,1,REAL,FALSA
,,,,,,,,,6661ac7f36dba1d289f2827a,001,2024-06-07_07h39.39.476,empathy_intonation_perc,2024.1.4,Win32,59.52380952,,,,,,,,,,,,,,113,difrás,,,,,,105.5198,106.6692,0,1,0.6184,,0,15,15,112,1,pseudoword,0,REAL,FALSA
,,,,,,,,,6661ac7f36dba1d289f2827a,001,2024-06-07_07h39.39.476,empathy_intonation_perc,2024.1.4,Win32,59.52380952,,,,,,,,,,,,,,57,regalo,,,,,,106.6698,107.9038,1,0,0.7051,,0,16,16,56,1,non_cognate,1,REAL,FALSA
,,,,,,,,,6661ac7f36dba1d289f2827a,001,2024-06-07_07h39.39.476,empathy_intonation_perc,2024.1.4,Win32,59.52380952,,,,,,,,,,,,,,114,potos,,,,,,107.9048,109.252,0,1,0.8159,,0,17,17,113,1,pseudoword,0,REAL,FALSA
,,,,,,,,,6661ac7f36dba1d289f2827a,001,2024-06-07_07h39.39.476,empathy_intonation_perc,2024.1.4,Win32,59.52380952,,,,,,,,,,,,,,65,guerra,,,,,,109.2523,110.4689,1,0,0.687,,0,18,18,64,1,non_cognate,1,REAL,FALSA
,,,,,,,,,6661ac7f36dba1d289f2827a,001,2024-06-07_07h39.39.476,empathy_intonation_perc,2024.1.4,Win32,59.52380952,,,,,,,,,,,,,,19,trauma,,,,,,110.4696,112.3854,0,1,1.3782,,0,19,19,18,1,three_way_cognate,1,REAL,FALSA
,,,,,,,,,6661ac7f36dba1d289f2827a,001,2024-06-07_07h39.39.476,empathy_intonation_perc,2024.1.4,Win32,59.52380952,,,,,,,,,,,,,,3,flora,,,,,,112.386,113.5687,1,0,0.6474,,0,20,20,2,1,three_way_cognate,1,REAL,FALSA
,,,,,,,,,6661ac7f36dba1d289f2827a,001,2024-06-07_07h39.39.476,empathy_intonation_perc,2024.1.4,Win32,59.52380952,,,,,,,,,,,,,,83,hálito,,,,,,113.5692,115.1519,0,1,1.0432,,0,21,21,82,1,non_cognate,1,REAL,FALSA
,,,,,,,,,6661ac7f36dba1d289f2827a,001,2024-06-07_07h39.39.476,empathy_intonation_perc,2024.1.4,Win32,59.52380952,,,,,,,,,,,,,,72,rostro,,,,,,115.1524,116.6185,0,1,0.9392,,0,22,22,71,1,non_cognate,1,REAL,FALSA
,,,,,,,,,6661ac7f36dba1d289f2827a,001,2024-06-07_07h39.39.476,empathy_intonation_perc,2024.1.4,Win32,59.52380952,,,,,,,,,,,,,,125,ceme,,,,,,116.6191,117.8851,1,0,0.7305,,0,23,23,124,1,pseudoword,0,REAL,FALSA
,,,,,,,,,6661ac7f36dba1d289f2827a,001,2024-06-07_07h39.39.476,empathy_intonation_perc,2024.1.4,Win32,59.52380952,,,,,,,,,,,,,,111,vibler,,,,,,117.8857,119.0684,1,0,0.6461,,0,24,24,110,1,pseudoword,0,REAL,FALSA
,,,,,,,,,6661ac7f36dba1d289f2827a,001,2024-06-07_07h39.39.476,empathy_intonation_perc,2024.1.4,Win32,59.52380952,,,,,,,,,,,,,,10,golf,,,,,,119.0691,120.5017,0,1,0.8939,,0,25,25,9,1,three_way_cognate,1,REAL,FALSA
,,,,,,,,,6661ac7f36dba1d289f2827a,001,2024-06-07_07h39.39.476,empathy_intonation_perc,2024.1.4,Win32,59.52380952,,,,,,,,,,,,,,79,suelo,,,,,,120.5022,121.6849,1,0,0.6461,,0,26,26,78,1,non_cognate,1,REAL,FALSA
,,,,,,,,,6661ac7f36dba1d289f2827a,001,2024-06-07_07h39.39.476,empathy_intonation_perc,2024.1.4,Win32,59.52380952,,,,,,,,,,,,,,81,sacar,,,,,,121.6855,123.2348,1,0,1.0148,,0,27,27,80,1,non_cognate,1,REAL,FALSA
,,,,,,,,,6661ac7f36dba1d289f2827a,001,2024-06-07_07h39.39.476,empathy_intonation_perc,2024.1.4,Win32,59.52380952,,,,,,,,,,,,,,36,viable,,,,,,123.2355,125.5514,0,1,1.79,,0,28,28,35,1,two_way_cognate,1,REAL,FALSA
,,,,,,,,,6661ac7f36dba1d289f2827a,001,2024-06-07_07h39.39.476,empathy_intonation_perc,2024.1.4,Win32,59.52380952,,,,,,,,,,,,,,56,pico,,,,,,125.5521,126.9179,1,0,0.8284,,0,29,29,55,1,non_cognate,1,REAL,FALSA
,,,,,,,,,6661ac7f36dba1d289f2827a,001,2024-06-07_07h39.39.476,empathy_intonation_perc,2024.1.4,Win32,59.52380952,,,,,,,,,,,,,,100,medón,,,,,,126.9185,128.4851,1,0,1.0391,,0,30,30,99,1,pseudoword,0,REAL,FALSA
,,,,,,,,,6661ac7f36dba1d289f2827a,001,2024-06-07_07h39.39.476,empathy_intonation_perc,2024.1.4,Win32,59.52380952,,,,,,,,,,,,,,118,bará,,,,,,128.4857,129.7511,1,0,0.7257,,0,31,31,117,1,pseudoword,0,REAL,FALSA
,,,,,,,,,6661ac7f36dba1d289f2827a,001,2024-06-07_07h39.39.476,empathy_intonation_perc,2024.1.4,Win32,59.52380952,,,,,,,,,,,,,,62,pegar,,,,,,129.7517,131.5178,0,1,1.2379,,0,32,32,61,1,non_cognate,1,REAL,FALSA
,,,,,,,,,6661ac7f36dba1d289f2827a,001,2024-06-07_07h39.39.476,empathy_intonation_perc,2024.1.4,Win32,59.52380952,,,,,,,,,,,,,,44,editor,,,,,,131.5186,133.3346,0,1,1.2791,,0,33,33,43,1,two_way_cognate,1,REAL,FALSA
,,,,,,,,,6661ac7f36dba1d289f2827a,001,2024-06-07_07h39.39.476,empathy_intonation_perc,2024.1.4,Win32,59.52380952,,,,,,,,,,,,,,25,vigor,,,,,,133.3353,135.1176,0,1,1.2433,,0,34,34,24,1,two_way_cognate,1,REAL,FALSA
,,,,,,,,,6661ac7f36dba1d289f2827a,001,2024-06-07_07h39.39.476,empathy_intonation_perc,2024.1.4,Win32,59.52380952,,,,,,,,,,,,,,61,aduana,,,,,,135.1184,138.2342,0,1,2.5816,,0,35,35,60,1,non_cognate,1,REAL,FALSA
,,,,,,,,,6661ac7f36dba1d289f2827a,001,2024-06-07_07h39.39.476,empathy_intonation_perc,2024.1.4,Win32,59.52380952,,,,,,,,,,,,,,66,aleta,,,,,,138.2349,139.7342,1,0,0.9593,,0,36,36,65,1,non_cognate,1,REAL,FALSA
,,,,,,,,,6661ac7f36dba1d289f2827a,001,2024-06-07_07h39.39.476,empathy_intonation_perc,2024.1.4,Win32,59.52380952,,,,,,,,,,,,,,34,actor,,,,,,139.735,141.1009,0,1,0.8289,,0,37,37,33,1,two_way_cognate,1,REAL,FALSA
,,,,,,,,,6661ac7f36dba1d289f2827a,001,2024-06-07_07h39.39.476,empathy_intonation_perc,2024.1.4,Win32,59.52380952,,,,,,,,,,,,,,82,brillo,,,,,,141.1015,142.9842,1,0,1.342,,0,38,38,81,1,non_cognate,1,REAL,FALSA
,,,,,,,,,6661ac7f36dba1d289f2827a,001,2024-06-07_07h39.39.476,empathy_intonation_perc,2024.1.4,Win32,59.52380952,,,,,,,,,,,,,,90,venado,,,,,,142.9848,144.3838,1,0,0.8643,,0,39,39,89,1,non_cognate,1,REAL,FALSA
,,,,,,,,,6661ac7f36dba1d289f2827a,001,2024-06-07_07h39.39.476,empathy_intonation_perc,2024.1.4,Win32,59.52380952,,,,,,,,,,,,,,32,animal,,,,,,144.3846,146.7011,0,1,1.7888,,0,40,40,31,1,two_way_cognate,1,REAL,FALSA
,,,,,,,,,6661ac7f36dba1d289f2827a,001,2024-06-07_07h39.39.476,empathy_intonation_perc,2024.1.4,Win32,59.52380952,,,,,,,,,,,,,,54,tapón,,,,,,147.0453,148.4666,1,0,0.9048,,0,41,41,53,1,non_cognate,1,REAL,FALSA
,,,,,,,,,6661ac7f36dba1d289f2827a,001,2024-06-07_07h39.39.476,empathy_intonation_perc,2024.1.4,Win32,59.52380952,,,,,,,,,,,,,,4,extra,,,,,,148.4671,149.933,0,1,0.9319,,0,42,42,3,1,three_way_cognate,1,REAL,FALSA
,,,,,,,,,6661ac7f36dba1d289f2827a,001,2024-06-07_07h39.39.476,empathy_intonation_perc,2024.1.4,Win32,59.52380952,,,,,,,,,,,,,,68,puñal,,,,,,149.9336,151.3832,1,0,0.912,,0,43,43,67,1,non_cognate,1,REAL,FALSA
,,,,,,,,,6661ac7f36dba1d289f2827a,001,2024-06-07_07h39.39.476,empathy_intonation_perc,2024.1.4,Win32,59.52380952,,,,,,,,,,,,,,43,honor,,,,,,151.384,152.55,0,1,0.6265,,0,44,44,42,1,two_way_cognate,1,REAL,FALSA
,,,,,,,,,6661ac7f36dba1d289f2827a,001,2024-06-07_07h39.39.476,empathy_intonation_perc,2024.1.4,Win32,59.52380952,,,,,,,,,,,,,,119,esís,,,,,,152.5507,153.6999,1,0,0.6143,,0,45,45,118,1,pseudoword,0,REAL,FALSA
,,,,,,,,,6661ac7f36dba1d289f2827a,001,2024-06-07_07h39.39.476,empathy_intonation_perc,2024.1.4,Win32,59.52380952,,,,,,,,,,,,,,95,listo,,,,,,153.7013,154.8834,1,0,0.6532,,0,46,46,94,1,non_cognate,1,REAL,FALSA
,,,,,,,,,6661ac7f36dba1d289f2827a,001,2024-06-07_07h39.39.476,empathy_intonation_perc,2024.1.4,Win32,59.52380952,,,,,,,,,,,,,,2,disco,,,,,,154.8853,156.0331,1,0,0.6223,,0,47,47,1,1,three_way_cognate,1,REAL,FALSA
,,,,,,,,,6661ac7f36dba1d289f2827a,001,2024-06-07_07h39.39.476,empathy_intonation_perc,2024.1.4,Win32,59.52380952,,,,,,,,,,,,,,140,vapen,,,,,,156.0342,157.4161,0,1,0.8537,,0,48,48,139,1,pseudoword,0,REAL,FALSA
,,,,,,,,,6661ac7f36dba1d289f2827a,001,2024-06-07_07h39.39.476,empathy_intonation_perc,2024.1.4,Win32,59.52380952,,,,,,,,,,,,,,41,pasta,,,,,,157.4163,159.8661,0,1,1.9118,,0,49,49,40,1,two_way_cognate,1,REAL,FALSA
,,,,,,,,,6661ac7f36dba1d289f2827a,001,2024-06-07_07h39.39.476,empathy_intonation_perc,2024.1.4,Win32,59.52380952,,,,,,,,,,,,,,23,porno,,,,,,159.867,161.4823,0,1,1.0783,,0,50,50,22,1,three_way_cognate,1,REAL,FALSA
,,,,,,,,,6661ac7f36dba1d289f2827a,001,2024-06-07_07h39.39.476,empathy_intonation_perc,2024.1.4,Win32,59.52380952,,,,,,,,,,,,,,84,aviso,,,,,,161.4828,162.7989,1,0,0.7812,,0,51,51,83,1,non_cognate,1,REAL,FALSA
,,,,,,,,,6661ac7f36dba1d289f2827a,001,2024-06-07_07h39.39.476,empathy_intonation_perc,2024.1.4,Win32,59.52380952,,,,,,,,,,,,,,107,plamos,,,,,,162.7994,164.5325,0,1,1.1978,,0,52,52,106,1,pseudoword,0,REAL,FALSA
,,,,,,,,,6661ac7f36dba1d289f2827a,001,2024-06-07_07h39.39.476,empathy_intonation_perc,2024.1.4,Win32,59.52380952,,,,,,,,,,,,,,142,viseña,,,,,,164.5331,165.7659,1,0,0.6923,,0,53,53,141,1,pseudoword,0,REAL,FALSA
,,,,,,,,,6661ac7f36dba1d289f2827a,001,2024-06-07_07h39.39.476,empathy_intonation_perc,2024.1.4,Win32,59.52380952,,,,,,,,,,,,,,45,total,,,,,,165.7665,167.2656,0,1,0.9691,,0,54,54,44,1,two_way_cognate,1,REAL,FALSA
,,,,,,,,,6661ac7f36dba1d289f2827a,001,2024-06-07_07h39.39.476,empathy_intonation_perc,2024.1.4,Win32,59.52380952,,,,,,,,,,,,,,86,cuenco,,,,,,167.2666,168.4989,1,0,0.6978,,0,55,55,85,1,non_cognate,1,REAL,FALSA
,,,,,,,,,6661ac7f36dba1d289f2827a,001,2024-06-07_07h39.39.476,empathy_intonation_perc,2024.1.4,Win32,59.52380952,,,,,,,,,,,,,,124,lobe,,,,,,168.4996,171.5325,0,1,2.5074,,0,56,56,123,1,pseudoword,0,REAL,FALSA
,,,,,,,,,6661ac7f36dba1d289f2827a,001,2024-06-07_07h39.39.476,empathy_intonation_perc,2024.1.4,Win32,59.52380952,,,,,,,,,,,,,,30,fiscal,,,,,,171.5643,172.7985,0,1,0.7158,,0,57,57,29,1,two_way_cognate,1,REAL,FALSA
,,,,,,,,,6661ac7f36dba1d289f2827a,001,2024-06-07_07h39.39.476,empathy_intonation_perc,2024.1.4,Win32,59.52380952,,,,,,,,,,,,,,108,viarle,,,,,,172.799,173.9487,0,1,0.6174,,0,58,58,107,1,pseudoword,0,REAL,FALSA
,,,,,,,,,6661ac7f36dba1d289f2827a,001,2024-06-07_07h39.39.476,empathy_intonation_perc,2024.1.4,Win32,59.52380952,,,,,,,,,,,,,,18,mafia,,,,,,173.9493,175.1322,0,1,0.647,,0,59,59,17,1,three_way_cognate,1,REAL,FALSA
,,,,,,,,,6661ac7f36dba1d289f2827a,001,2024-06-07_07h39.39.476,empathy_intonation_perc,2024.1.4,Win32,59.52380952,,,,,,,,,,,,,,75,patada,,,,,,175.133,176.0982,1,0,0.4397,,0,60,60,74,1,non_cognate,1,REAL,FALSA
,,,,,,,,,6661ac7f36dba1d289f2827a,001,2024-06-07_07h39.39.476,empathy_intonation_perc,2024.1.4,Win32,59.52380952,,,,,,,,,,,,,,97,hufón,,,,,,176.0986,177.5988,0,1,0.9797,,0,61,61,96,1,pseudoword,0,REAL,FALSA
,,,,,,,,,6661ac7f36dba1d289f2827a,001,2024-06-07_07h39.39.476,empathy_intonation_perc,2024.1.4,Win32,59.52380952,,,,,,,,,,,,,,105,curgué,,,,,,177.5995,179.1983,0,1,1.0646,,0,62,62,104,1,pseudoword,0,REAL,FALSA
,,,,,,,,,6661ac7f36dba1d289f2827a,001,2024-06-07_07h39.39.476,empathy_intonation_perc,2024.1.4,Win32,59.52380952,,,,,,,,,,,,,,116,crene,,,,,,179.1988,180.0982,1,0,0.3671,,0,63,63,115,1,pseudoword,0,REAL,FALSA
,,,,,,,,,6661ac7f36dba1d289f2827a,001,2024-06-07_07h39.39.476,empathy_intonation_perc,2024.1.4,Win32,59.52380952,,,,,,,,,,,,,,38,halo,,,,,,180.0987,181.1651,1,0,0.5309,,0,64,64,37,1,two_way_cognate,1,REAL,FALSA
,,,,,,,,,6661ac7f36dba1d289f2827a,001,2024-06-07_07h39.39.476,empathy_intonation_perc,2024.1.4,Win32,59.52380952,,,,,,,,,,,,,,9,drama,,,,,,181.1657,181.9814,0,1,0.2864,,0,65,65,8,1,three_way_cognate,1,REAL,FALSA
,,,,,,,,,6661ac7f36dba1d289f2827a,001,2024-06-07_07h39.39.476,empathy_intonation_perc,2024.1.4,Win32,59.52380952,,,,,,,,,,,,,,49,teñir,,,,,,181.9818,182.8146,1,0,0.2979,,0,66,66,48,1,non_cognate,1,REAL,FALSA
,,,,,,,,,6661ac7f36dba1d289f2827a,001,2024-06-07_07h39.39.476,empathy_intonation_perc,2024.1.4,Win32,59.52380952,,,,,,,,,,,,,,96,caro,,,,,,182.815,183.8816,0,1,0.5353,,0,67,67,95,1,non_cognate,1,REAL,FALSA
,,,,,,,,,6661ac7f36dba1d289f2827a,001,2024-06-07_07h39.39.476,empathy_intonation_perc,2024.1.4,Win32,59.52380952,,,,,,,,,,,,,,51,listo,,,,,,183.8823,184.7315,1,0,0.3248,,0,68,68,50,1,non_cognate,1,REAL,FALSA
,,,,,,,,,6661ac7f36dba1d289f2827a,001,2024-06-07_07h39.39.476,empathy_intonation_perc,2024.1.4,Win32,59.52380952,,,,,,,,,,,,,,33,collar,,,,,,184.7323,186.2319,0,1,0.9667,,0,69,69,32,1,two_way_cognate,1,REAL,FALSA
,,,,,,,,,6661ac7f36dba1d289f2827a,001,2024-06-07_07h39.39.476,empathy_intonation_perc,2024.1.4,Win32,59.52380952,,,,,,,,,,,,,,130,dubo,,,,,,186.2328,187.5982,0,1,0.8383,,0,70,70,129,1,pseudoword,0,REAL,FALSA
,,,,,,,,,6661ac7f36dba1d289f2827a,001,2024-06-07_07h39.39.476,empathy_intonation_perc,2024.1.4,Win32,59.52380952,,,,,,,,,,,,,,27,piano,,,,,,187.5988,188.9315,0,1,0.7978,,0,71,71,26,1,two_way_cognate,1,REAL,FALSA
,,,,,,,,,6661ac7f36dba1d289f2827a,001,2024-06-07_07h39.39.476,empathy_intonation_perc,2024.1.4,Win32,59.52380952,,,,,,,,,,,,,,67,llamar,,,,,,188.9323,190.1313,1,0,0.6604,,0,72,72,66,1,non_cognate,1,REAL,FALSA
,,,,,,,,,6661ac7f36dba1d289f2827a,001,2024-06-07_07h39.39.476,empathy_intonation_perc,2024.1.4,Win32,59.52380952,,,,,,,,,,,,,,93,tapa,,,,,,190.1321,191.481,1,0,0.8226,,0,73,73,92,1,non_cognate,1,REAL,FALSA
,,,,,,,,,6661ac7f36dba1d289f2827a,001,2024-06-07_07h39.39.476,empathy_intonation_perc,2024.1.4,Win32,59.52380952,,,,,,,,,,,,,,6,albino,,,,,,191.4816,192.7309,1,0,0.7139,,0,74,74,5,1,three_way_cognate,1,REAL,FALSA
,,,,,,,,,6661ac7f36dba1d289f2827a,001,2024-06-07_07h39.39.476,empathy_intonation_perc,2024.1.4,Win32,59.52380952,,,,,,,,,,,,,,98,erede,,,,,,192.7315,194.0478,0,1,0.7801,,0,75,75,97,1,pseudoword,0,REAL,FALSA
,,,,,,,,,6661ac7f36dba1d289f2827a,001,2024-06-07_07h39.39.476,empathy_intonation_perc,2024.1.4,Win32,59.52380952,,,,,,,,,,,,,,13,aura,,,,,,194.0484,195.3645,0,1,0.7765,,0,76,76,12,1,three_way_cognate,1,REAL,FALSA
,,,,,,,,,6661ac7f36dba1d289f2827a,001,2024-06-07_07h39.39.476,empathy_intonation_perc,2024.1.4,Win32,59.52380952,,,,,,,,,,,,,,70,ánimo,,,,,,195.3652,196.5309,1,0,0.6353,,0,77,77,69,1,non_cognate,1,REAL,FALSA
,,,,,,,,,6661ac7f36dba1d289f2827a,001,2024-06-07_07h39.39.476,empathy_intonation_perc,2024.1.4,Win32,59.52380952,,,,,,,,,,,,,,42,rumor,,,,,,196.5315,197.7149,0,1,0.6569,,0,78,78,41,1,two_way_cognate,1,REAL,FALSA
,,,,,,,,,6661ac7f36dba1d289f2827a,001,2024-06-07_07h39.39.476,empathy_intonation_perc,2024.1.4,Win32,59.52380952,,,,,,,,,,,,,,31,civil,,,,,,197.7157,198.9642,0,1,0.7182,,0,79,79,30,1,two_way_cognate,1,REAL,FALSA
,,,,,,,,,6661ac7f36dba1d289f2827a,001,2024-06-07_07h39.39.476,empathy_intonation_perc,2024.1.4,Win32,59.52380952,,,,,,,,,,,,,,59,feo,,,,,,198.965,200.664,1,0,1.1726,,0,80,80,58,1,non_cognate,1,REAL,FALSA
,,,,,,,,,6661ac7f36dba1d289f2827a,001,2024-06-07_07h39.39.476,empathy_intonation_perc,2024.1.4,Win32,59.52380952,,,,,,,,,,,,,,64,rizado,,,,,,200.6649,201.8471,0,1,0.6503,,0,81,81,63,1,non_cognate,1,REAL,FALSA
,,,,,,,,,6661ac7f36dba1d289f2827a,001,2024-06-07_07h39.39.476,empathy_intonation_perc,2024.1.4,Win32,59.52380952,,,,,,,,,,,,,,121,rombar,,,,,,201.8478,203.2973,1,0,0.9174,,0,82,82,120,1,pseudoword,0,REAL,FALSA
,,,,,,,,,6661ac7f36dba1d289f2827a,001,2024-06-07_07h39.39.476,empathy_intonation_perc,2024.1.4,Win32,59.52380952,,,,,,,,,,,,,,5,horror,,,,,,203.2981,204.5471,0,1,0.712,,0,83,83,4,1,three_way_cognate,1,REAL,FALSA
,,,,,,,,,6661ac7f36dba1d289f2827a,001,2024-06-07_07h39.39.476,empathy_intonation_perc,2024.1.4,Win32,59.52380952,,,,,,,,,,,,,,60,siglo,,,,,,204.5477,205.747,0,1,0.6708,,0,84,84,59,1,non_cognate,1,REAL,FALSA
,,,,,,,,,6661ac7f36dba1d289f2827a,001,2024-06-07_07h39.39.476,empathy_intonation_perc,2024.1.4,Win32,59.52380952,,,,,,,,,,,,,,22,plural,,,,,,205.7476,206.8471,1,0,0.5677,,0,85,85,21,1,three_way_cognate,1,REAL,FALSA
,,,,,,,,,6661ac7f36dba1d289f2827a,001,2024-06-07_07h39.39.476,empathy_intonation_perc,2024.1.4,Win32,59.52380952,,,,,,,,,,,,,,91,equipo,,,,,,206.8482,207.9802,1,0,0.5925,,0,86,86,90,1,non_cognate,1,REAL,FALSA
,,,,,,,,,6661ac7f36dba1d289f2827a,001,2024-06-07_07h39.39.476,empathy_intonation_perc,2024.1.4,Win32,59.52380952,,,,,,,,,,,,,,120,hierno,,,,,,207.9807,209.1802,1,0,0.6685,,0,87,87,119,1,pseudoword,0,REAL,FALSA
,,,,,,,,,6661ac7f36dba1d289f2827a,001,2024-06-07_07h39.39.476,empathy_intonation_perc,2024.1.4,Win32,59.52380952,,,,,,,,,,,,,,53,punta,,,,,,209.181,210.38,1,0,0.6621,,0,88,88,52,1,non_cognate,1,REAL,FALSA
,,,,,,,,,6661ac7f36dba1d289f2827a,001,2024-06-07_07h39.39.476,empathy_intonation_perc,2024.1.4,Win32,59.52380952,,,,,,,,,,,,,,122,gravés,,,,,,210.3807,211.6301,0,1,0.721,,0,89,89,121,1,pseudoword,0,REAL,FALSA
,,,,,,,,,6661ac7f36dba1d289f2827a,001,2024-06-07_07h39.39.476,empathy_intonation_perc,2024.1.4,Win32,59.52380952,,,,,,,,,,,,,,63,hilo,,,,,,211.6308,212.8634,0,1,0.7119,,0,90,90,62,1,non_cognate,1,REAL,FALSA
,,,,,,,,,6661ac7f36dba1d289f2827a,001,2024-06-07_07h39.39.476,empathy_intonation_perc,2024.1.4,Win32,59.52380952,,,,,,,,,,,,,,26,enigma,,,,,,212.8643,215.4632,0,1,2.0686,,0,91,91,25,1,two_way_cognate,1,REAL,FALSA
,,,,,,,,,6661ac7f36dba1d289f2827a,001,2024-06-07_07h39.39.476,empathy_intonation_perc,2024.1.4,Win32,59.52380952,,,,,,,,,,,,,,92,flecha,,,,,,215.4639,216.5966,1,0,0.5922,,0,92,92,91,1,non_cognate,1,REAL,FALSA
,,,,,,,,,6661ac7f36dba1d289f2827a,001,2024-06-07_07h39.39.476,empathy_intonation_perc,2024.1.4,Win32,59.52380952,,,,,,,,,,,,,,132,nocó,,,,,,216.5973,218.0798,0,1,0.9481,,0,93,93,131,1,pseudoword,0,REAL,FALSA
,,,,,,,,,6661ac7f36dba1d289f2827a,001,2024-06-07_07h39.39.476,empathy_intonation_perc,2024.1.4,Win32,59.52380952,,,,,,,,,,,,,,134,fruzas,,,,,,218.0808,219.2964,1,0,0.6797,,0,94,94,133,1,pseudoword,0,REAL,FALSA
,,,,,,,,,6661ac7f36dba1d289f2827a,001,2024-06-07_07h39.39.476,empathy_intonation_perc,2024.1.4,Win32,59.52380952,,,,,,,,,,,,,,136,sopleó,,,,,,219.2969,220.6464,0,1,0.8131,,0,95,95,135,1,pseudoword,0,REAL,FALSA
,,,,,,,,,6661ac7f36dba1d289f2827a,001,2024-06-07_07h39.39.476,empathy_intonation_perc,2024.1.4,Win32,59.52380952,,,,,,,,,,,,,,109,hágino,,,,,,220.6471,222.1131,0,1,0.9262,,0,96,96,108,1,pseudoword,0,REAL,FALSA
,,,,,,,,,6661ac7f36dba1d289f2827a,001,2024-06-07_07h39.39.476,empathy_intonation_perc,2024.1.4,Win32,59.52380952,,,,,,,,,,,,,,11,dogma,,,,,,222.1136,223.5296,1,0,0.8883,,0,97,97,10,1,three_way_cognate,1,REAL,FALSA
,,,,,,,,,6661ac7f36dba1d289f2827a,001,2024-06-07_07h39.39.476,empathy_intonation_perc,2024.1.4,Win32,59.52380952,,,,,,,,,,,,,,20,hotel,,,,,,223.5302,224.7296,0,1,0.6679,,0,98,98,19,1,three_way_cognate,1,REAL,FALSA
,,,,,,,,,6661ac7f36dba1d289f2827a,001,2024-06-07_07h39.39.476,empathy_intonation_perc,2024.1.4,Win32,59.52380952,,,,,,,,,,,,,,14,test,,,,,,224.7304,225.8294,0,1,0.5686,,0,99,99,13,1,three_way_cognate,1,REAL,FALSA
,,,,,,,,,6661ac7f36dba1d289f2827a,001,2024-06-07_07h39.39.476,empathy_intonation_perc,2024.1.4,Win32,59.52380952,,,,,,,,,,,,,,85,enorme,,,,,,225.8302,227.2295,1,0,0.8642,,0,100,100,84,1,non_cognate,1,REAL,FALSA
,,,,,,,,,6661ac7f36dba1d289f2827a,001,2024-06-07_07h39.39.476,empathy_intonation_perc,2024.1.4,Win32,59.52380952,,,,,,,,,,,,,,21,mango,,,,,,227.2303,228.7131,0,1,0.9517,,0,101,101,20,1,three_way_cognate,1,REAL,FALSA
,,,,,,,,,6661ac7f36dba1d289f2827a,001,2024-06-07_07h39.39.476,empathy_intonation_perc,2024.1.4,Win32,59.52380952,,,,,,,,,,,,,,28,ardor,,,,,,228.7139,229.4459,0,1,0.1995,,0,102,102,27,1,two_way_cognate,1,REAL,FALSA
,,,,,,,,,6661ac7f36dba1d289f2827a,001,2024-06-07_07h39.39.476,empathy_intonation_perc,2024.1.4,Win32,59.52380952,,,,,,,,,,,,,,39,casual,,,,,,229.4466,230.9964,0,1,1.0227,,0,103,103,38,1,two_way_cognate,1,REAL,FALSA
,,,,,,,,,6661ac7f36dba1d289f2827a,001,2024-06-07_07h39.39.476,empathy_intonation_perc,2024.1.4,Win32,59.52380952,,,,,,,,,,,,,,87,muleta,,,,,,230.9971,232.296,1,0,0.7658,,0,104,104,86,1,non_cognate,1,REAL,FALSA
,,,,,,,,,6661ac7f36dba1d289f2827a,001,2024-06-07_07h39.39.476,empathy_intonation_perc,2024.1.4,Win32,59.52380952,,,,,,,,,,,,,,123,escare,,,,,,232.2966,233.7289,0,1,0.9044,,0,105,105,122,1,pseudoword,0,REAL,FALSA
,,,,,,,,,6661ac7f36dba1d289f2827a,001,2024-06-07_07h39.39.476,empathy_intonation_perc,2024.1.4,Win32,59.52380952,,,,,,,,,,,,,,24,retina,,,,,,233.7295,235.4122,0,1,1.1542,,0,106,106,23,1,three_way_cognate,1,REAL,FALSA
,,,,,,,,,6661ac7f36dba1d289f2827a,001,2024-06-07_07h39.39.476,empathy_intonation_perc,2024.1.4,Win32,59.52380952,,,,,,,,,,,,,,52,blando,,,,,,235.4129,236.9453,1,0,0.9961,,0,107,107,51,1,non_cognate,1,REAL,FALSA
,,,,,,,,,6661ac7f36dba1d289f2827a,001,2024-06-07_07h39.39.476,empathy_intonation_perc,2024.1.4,Win32,59.52380952,,,,,,,,,,,,,,1,tumor,,,,,,236.9461,238.2622,0,1,0.7859,,0,108,108,0,1,three_way_cognate,1,REAL,FALSA
,,,,,,,,,6661ac7f36dba1d289f2827a,001,2024-06-07_07h39.39.476,empathy_intonation_perc,2024.1.4,Win32,59.52380952,,,,,,,,,,,,,,35,aurora,,,,,,238.2631,239.7287,1,0,0.9368,,0,109,109,34,1,two_way_cognate,1,REAL,FALSA
,,,,,,,,,6661ac7f36dba1d289f2827a,001,2024-06-07_07h39.39.476,empathy_intonation_perc,2024.1.4,Win32,59.52380952,,,,,,,,,,,,,,106,baurá,,,,,,239.7295,240.9118,0,1,0.6525,,0,110,110,105,1,pseudoword,0,REAL,FALSA
,,,,,,,,,6661ac7f36dba1d289f2827a,001,2024-06-07_07h39.39.476,empathy_intonation_perc,2024.1.4,Win32,59.52380952,,,,,,,,,,,,,,99,mieris,,,,,,240.9127,242.1792,0,1,0.7393,,0,111,111,98,1,pseudoword,0,REAL,FALSA
,,,,,,,,,6661ac7f36dba1d289f2827a,001,2024-06-07_07h39.39.476,empathy_intonation_perc,2024.1.4,Win32,59.52380952,,,,,,,,,,,,,,143,pledú,,,,,,242.1805,244.5618,0,1,1.8455,,0,112,112,142,1,pseudoword,0,REAL,FALSA
,,,,,,,,,6661ac7f36dba1d289f2827a,001,2024-06-07_07h39.39.476,empathy_intonation_perc,2024.1.4,Win32,59.52380952,,,,,,,,,,,,,,89,muñeca,,,,,,244.5626,246.0118,1,0,0.9138,,0,113,113,88,1,non_cognate,1,REAL,FALSA
,,,,,,,,,6661ac7f36dba1d289f2827a,001,2024-06-07_07h39.39.476,empathy_intonation_perc,2024.1.4,Win32,59.52380952,,,,,,,,,,,,,,139,furbos,,,,,,246.0124,247.4618,1,0,0.9092,,0,114,114,138,1,pseudoword,0,REAL,FALSA
,,,,,,,,,6661ac7f36dba1d289f2827a,001,2024-06-07_07h39.39.476,empathy_intonation_perc,2024.1.4,Win32,59.52380952,,,,,,,,,,,,,,8,portal,,,,,,247.4625,248.6616,0,1,0.6636,,0,115,115,7,1,three_way_cognate,1,REAL,FALSA
,,,,,,,,,6661ac7f36dba1d289f2827a,001,2024-06-07_07h39.39.476,empathy_intonation_perc,2024.1.4,Win32,59.52380952,,,,,,,,,,,,,,110,vacapó,,,,,,248.6629,250.1614,0,1,0.9623,,0,116,116,109,1,pseudoword,0,REAL,FALSA
,,,,,,,,,6661ac7f36dba1d289f2827a,001,2024-06-07_07h39.39.476,empathy_intonation_perc,2024.1.4,Win32,59.52380952,,,,,,,,,,,,,,127,vien,,,,,,250.1623,251.3955,0,1,0.6964,,0,117,117,126,1,pseudoword,0,REAL,FALSA
,,,,,,,,,6661ac7f36dba1d289f2827a,001,2024-06-07_07h39.39.476,empathy_intonation_perc,2024.1.4,Win32,59.52380952,,,,,,,,,,,,,,15,chat,,,,,,251.3965,252.7113,0,1,0.778,,0,118,118,14,1,three_way_cognate,1,REAL,FALSA
,,,,,,,,,6661ac7f36dba1d289f2827a,001,2024-06-07_07h39.39.476,empathy_intonation_perc,2024.1.4,Win32,59.52380952,,,,,,,,,,,,,,135,macayó,,,,,,252.7121,254.0944,1,0,0.8429,,0,119,119,134,1,pseudoword,0,REAL,FALSA
,,,,,,,,,6661ac7f36dba1d289f2827a,001,2024-06-07_07h39.39.476,empathy_intonation_perc,2024.1.4,Win32,59.52380952,,,,,,,,,,,,,,128,pelí,,,,,,254.0952,255.4272,0,1,0.8006,,0,120,120,127,1,pseudoword,0,REAL,FALSA
,,,,,,,,,6661ac7f36dba1d289f2827a,001,2024-06-07_07h39.39.476,empathy_intonation_perc,2024.1.4,Win32,59.52380952,,,,,,,,,,,,,,131,fuar,,,,,,255.4276,256.6942,0,1,0.7315,,0,121,121,130,1,pseudoword,0,REAL,FALSA
,,,,,,,,,6661ac7f36dba1d289f2827a,001,2024-06-07_07h39.39.476,empathy_intonation_perc,2024.1.4,Win32,59.52380952,,,,,,,,,,,,,,141,sumer,,,,,,256.6955,258.2939,1,0,1.0664,,0,122,122,140,1,pseudoword,0,REAL,FALSA
,,,,,,,,,6661ac7f36dba1d289f2827a,001,2024-06-07_07h39.39.476,empathy_intonation_perc,2024.1.4,Win32,59.52380952,,,,,,,,,,,,,,78,rendir,,,,,,258.2942,259.661,1,0,0.8277,,0,123,123,77,1,non_cognate,1,REAL,FALSA
,,,,,,,,,6661ac7f36dba1d289f2827a,001,2024-06-07_07h39.39.476,empathy_intonation_perc,2024.1.4,Win32,59.52380952,,,,,,,,,,,,,,74,ala,,,,,,259.6616,261.511,1,0,1.3173,,0,124,124,73,1,non_cognate,1,REAL,FALSA
,,,,,,,,,6661ac7f36dba1d289f2827a,001,2024-06-07_07h39.39.476,empathy_intonation_perc,2024.1.4,Win32,59.52380952,,,,,,,,,,,,,,126,anicio,,,,,,261.5117,262.794,1,0,0.7502,,0,125,125,125,1,pseudoword,0,REAL,FALSA
,,,,,,,,,6661ac7f36dba1d289f2827a,001,2024-06-07_07h39.39.476,empathy_intonation_perc,2024.1.4,Win32,59.52380952,,,,,,,,,,,,,,50,sierra,,,,,,262.7948,264.4608,0,1,1.1316,,0,126,126,49,1,non_cognate,1,REAL,FALSA
,,,,,,,,,6661ac7f36dba1d289f2827a,001,2024-06-07_07h39.39.476,empathy_intonation_perc,2024.1.4,Win32,59.52380952,,,,,,,,,,,,,,94,forro,,,,,,264.4616,266.6774,1,0,1.6855,,0,127,127,93,1,non_cognate,1,REAL,FALSA
,,,,,,,,,6661ac7f36dba1d289f2827a,001,2024-06-07_07h39.39.476,empathy_intonation_perc,2024.1.4,Win32,59.52380952,,,,,,,,,,,,,,40,pelvis,,,,,,266.7076,268.7111,0,1,1.4843,,0,128,128,39,1,two_way_cognate,1,REAL,FALSA
,,,,,,,,,6661ac7f36dba1d289f2827a,001,2024-06-07_07h39.39.476,empathy_intonation_perc,2024.1.4,Win32,59.52380952,,,,,,,,,,,,,,29,clamor,,,,,,268.7121,271.56,0,1,2.316,,0,129,129,28,1,two_way_cognate,1,REAL,FALSA
,,,,,,,,,6661ac7f36dba1d289f2827a,001,2024-06-07_07h39.39.476,empathy_intonation_perc,2024.1.4,Win32,59.52380952,,,,,,,,,,,,,,138,glural,,,,,,271.5607,340.056,0,1,67.9672,,0,130,130,137,1,pseudoword,0,REAL,FALSA
,,,,,,,,,6661ac7f36dba1d289f2827a,001,2024-06-07_07h39.39.476,empathy_intonation_perc,2024.1.4,Win32,59.52380952,,,,,,,,,,,,,,144,piria,,,,,,340.057,344.0224,0,1,3.4341,,0,131,131,143,1,pseudoword,0,REAL,FALSA
,,,,,,,,,6661ac7f36dba1d289f2827a,001,2024-06-07_07h39.39.476,empathy_intonation_perc,2024.1.4,Win32,59.52380952,,,,,,,,,,,,,,7,kilo,,,,,,344.0413,345.8389,1,0,1.2584,,0,132,132,6,1,three_way_cognate,1,REAL,FALSA
,,,,,,,,,6661ac7f36dba1d289f2827a,001,2024-06-07_07h39.39.476,empathy_intonation_perc,2024.1.4,Win32,59.52380952,,,,,,,,,,,,,,103,babes,,,,,,345.8403,347.4728,1,0,1.1024,,0,133,133,102,1,pseudoword,0,REAL,FALSA
,,,,,,,,,6661ac7f36dba1d289f2827a,001,2024-06-07_07h39.39.476,empathy_intonation_perc,2024.1.4,Win32,59.52380952,,,,,,,,,,,,,,112,cituló,,,,,,347.4738,348.9061,0,1,0.8923,,0,134,134,111,1,pseudoword,0,REAL,FALSA
,,,,,,,,,6661ac7f36dba1d289f2827a,001,2024-06-07_07h39.39.476,empathy_intonation_perc,2024.1.4,Win32,59.52380952,,,,,,,,,,,,,,48,pelvis,,,,,,348.9072,350.356,0,1,0.9081,,0,135,135,47,1,two_way_cognate,1,REAL,FALSA
,,,,,,,,,6661ac7f36dba1d289f2827a,001,2024-06-07_07h39.39.476,empathy_intonation_perc,2024.1.4,Win32,59.52380952,,,,,,,,,,,,,,102,coyo,,,,,,350.357,351.6059,0,1,0.7028,,0,136,136,101,1,pseudoword,0,REAL,FALSA
,,,,,,,,,6661ac7f36dba1d289f2827a,001,2024-06-07_07h39.39.476,empathy_intonation_perc,2024.1.4,Win32,59.52380952,,,,,,,,,,,,,,16,clan,,,,,,351.607,352.8228,0,1,0.6723,,0,137,137,15,1,three_way_cognate,1,REAL,FALSA
,,,,,,,,,6661ac7f36dba1d289f2827a,001,2024-06-07_07h39.39.476,empathy_intonation_perc,2024.1.4,Win32,59.52380952,,,,,,,,,,,,,,71,torta,,,,,,352.8246,353.9726,1,0,0.6065,,0,138,138,70,1,non_cognate,1,REAL,FALSA
,,,,,,,,,6661ac7f36dba1d289f2827a,001,2024-06-07_07h39.39.476,empathy_intonation_perc,2024.1.4,Win32,59.52380952,,,,,,,,,,,,,,76,chocar,,,,,,353.9737,355.622,0,1,1.1046,,0,139,139,75,1,non_cognate,1,REAL,FALSA
,,,,,,,,,6661ac7f36dba1d289f2827a,001,2024-06-07_07h39.39.476,empathy_intonation_perc,2024.1.4,Win32,59.52380952,,,,,,,,,,,,,,115,civas,,,,,,355.6231,357.0431,0,1,0.8837,,0,140,140,114,1,pseudoword,0,REAL,FALSA
,,,,,,,,,6661ac7f36dba1d289f2827a,001,2024-06-07_07h39.39.476,empathy_intonation_perc,2024.1.4,Win32,59.52380952,,,,,,,,,,,,,,69,tiza,,,,,,357.0438,358.4555,1,0,0.8707,,0,141,141,68,1,non_cognate,1,REAL,FALSA
,,,,,,,,,6661ac7f36dba1d289f2827a,001,2024-06-07_07h39.39.476,empathy_intonation_perc,2024.1.4,Win32,59.52380952,,,,,,,,,,,,,,77,suave,,,,,,358.4566,359.909,1,0,0.917,,0,142,142,76,1,non_cognate,1,REAL,FALSA
,,,,,,,,,6661ac7f36dba1d289f2827a,001,2024-06-07_07h39.39.476,empathy_intonation_perc,2024.1.4,Win32,59.52380952,,,,,,,,,,,,,,47,color,,,,,,359.9098,361.7889,1,0,1.3359,,0,143,143,46,1,two_way_cognate,1,REAL,FALSA
