lextale_instructions.started,lextale_instructions.stopped,lextale_instructions_loop.thisRepN,lextale_instructions_loop.thisTrialN,lextale_instructions_loop.thisN,lextale_instructions_loop.thisIndex,lextale_instructions_loop.ran,instructions_text,continue_text,participant,session,date,expName,psychopyVersion,OS,frameRate,lextale_practice.started,lextale_practice.stopped,key_resp_lextale_practice.keys,key_resp_lextale_practice.corr,key_resp_lextale_practice.rt,key_resp_lextale_practice.duration,lextale_practice_feedback.started,lextale_practice_feedback.stopped,lextale_practice_trials.thisRepN,lextale_practice_trials.thisTrialN,lextale_practice_trials.thisN,lextale_practice_trials.thisIndex,lextale_practice_trials.ran,stim,word,correct_response,prac_button_real,prac_button_false,lextale_check.started,lextale_check.stopped,lextale_trial.started,lextale_trial.stopped,key_resp_lextale_trial.keys,key_resp_lextale_trial.corr,key_resp_lextale_trial.rt,key_resp_lextale_trial.duration,lextail_trials.thisRepN,lextail_trials.thisTrialN,lextail_trials.thisN,lextail_trials.thisIndex,lextail_trials.ran,type,correct_reponse,button_real,button_false
0.007,4.063,0,0,0,0,1,"Este es un test de vocabulario en español. 
  
  A continuación vas a ver 90 secuencias de letras que parecen 'españolas'.
  
  Solo algunas de ellas son palabras de verdad.",(presiona la barra espaciadora para continuar),,001,2024-06-07_07h54.46.772,empathy_intonation_perc,2024.1.4,Win32,30.0120048,,,,,,,,,,,,,,,,,,,,,,,,,,,,,,,,,,,
4.064,6.173,0,1,1,1,1,"Por favor, señala las palabras que tú conoces (aquellas que estás convencido que son palabras españolas, incluso aunque no seas capaz de dar el significado preciso).",(presiona la barra espaciadora para continuar),,001,2024-06-07_07h54.46.772,empathy_intonation_perc,2024.1.4,Win32,30.0120048,,,,,,,,,,,,,,,,,,,,,,,,,,,,,,,,,,,
6.174,9.503,0,2,2,2,1,Pero cuidado: los errores se penalizan. Por eso no tiene sentido tratar de incrementar tu puntuación marcando como reales palabras que nunca has visto.,(presiona la barra espaciadora para continuar),,001,2024-06-07_07h54.46.772,empathy_intonation_perc,2024.1.4,Win32,30.0120048,,,,,,,,,,,,,,,,,,,,,,,,,,,,,,,,,,,
9.505,21.349,0,3,3,3,1,"Presiona la tecla 1 si piensas que es una palabra real y la tecla 
  0 si piensas que es una palabra falsa. 
  
  Vamos a practicar un poco...",(presiona la barra espaciadora para continuar),,001,2024-06-07_07h54.46.772,empathy_intonation_perc,2024.1.4,Win32,30.0120048,,,,,,,,,,,,,,,,,,,,,,,,,,,,,,,,,,,
,,,,,,,,,,001,2024-06-07_07h54.46.772,empathy_intonation_perc,2024.1.4,Win32,30.0120048,21.359,25.501,1,0,3.587,,25.501,26.479,0,0,0,0,1,0,depiste,0,REAL,FALSA,,,,,,,,,,,,,,,,,
,,,,,,,,,,001,2024-06-07_07h54.46.772,empathy_intonation_perc,2024.1.4,Win32,30.0120048,26.48,32.522,1,1,5.478,,32.522,33.507,0,1,1,1,1,0,sí,1,REAL,FALSA,,,,,,,,,,,,,,,,,
,,,,,,,,,,001,2024-06-07_07h54.46.772,empathy_intonation_perc,2024.1.4,Win32,30.0120048,33.51,56.918,0,1,22.857,,56.918,57.903,0,2,2,2,1,0,coné,0,REAL,FALSA,,,,,,,,,,,,,,,,,
,,,,,,,,,,001,2024-06-07_07h54.46.772,empathy_intonation_perc,2024.1.4,Win32,30.0120048,57.905,95.356,0,1,36.87,,95.356,96.345,0,3,3,3,1,0,calpar,0,REAL,FALSA,,,,,,,,,,,,,,,,,
,,,,,,,,,,001,2024-06-07_07h54.46.772,empathy_intonation_perc,2024.1.4,Win32,30.0120048,96.351,121.831,0,1,24.902,,121.832,122.836,0,4,4,4,1,0,joten,0,REAL,FALSA,,,,,,,,,,,,,,,,,
,,,,,,,,,,001,2024-06-07_07h54.46.772,empathy_intonation_perc,2024.1.4,Win32,30.0120048,122.841,174.909,1,1,51.491,,174.909,175.891,0,5,5,5,1,0,sacapuntas,1,REAL,FALSA,,,,,,,,,,,,,,,,,
,,,,,,,,,,001,2024-06-07_07h54.46.772,empathy_intonation_perc,2024.1.4,Win32,30.0120048,175.897,228.66,0,1,52.19,,228.661,229.684,0,6,6,6,1,0,priba,0,REAL,FALSA,,,,,,,,,,,,,,,,,
,,,,,,,,,,001,2024-06-07_07h54.46.772,empathy_intonation_perc,2024.1.4,Win32,30.0120048,229.688,267.176,0,1,36.923,,267.177,268.186,0,7,7,7,1,0,pelasula,0,REAL,FALSA,,,,,,,,,,,,,,,,,
,,,,,,,,,,001,2024-06-07_07h54.46.772,empathy_intonation_perc,2024.1.4,Win32,30.0120048,268.192,323.992,1,1,55.254,,323.992,324.982,0,8,8,8,1,0,bien,1,REAL,FALSA,,,,,,,,,,,,,,,,,
,,,,,,,,,,001,2024-06-07_07h54.46.772,empathy_intonation_perc,2024.1.4,Win32,30.0120048,324.986,336.758,1,1,11.197,,336.759,337.769,0,9,9,9,1,0,casa,1,REAL,FALSA,,,,,,,,,,,,,,,,,
,,,,,,,,,,001,2024-06-07_07h54.46.772,empathy_intonation_perc,2024.1.4,Win32,30.0120048,337.77,367.026,0,1,28.725,,367.026,367.994,0,10,10,10,1,0,lejo,0,REAL,FALSA,,,,,,,,,,,,,,,,,
,,,,,,,,,,001,2024-06-07_07h54.46.772,empathy_intonation_perc,2024.1.4,Win32,30.0120048,367.997,387.24,0,1,18.662,,387.24,388.237,0,11,11,11,1,0,pretantas,0,REAL,FALSA,,,,,,,,,,,,,,,,,
,,,,,,,,,,001,2024-06-07_07h54.46.772,empathy_intonation_perc,2024.1.4,Win32,30.0120048,,,,,,,,,,,,,,,,,,,388.24,399.586,,,,,,,,,,,,,,,
,,,,,,,,,,001,2024-06-07_07h54.46.772,empathy_intonation_perc,2024.1.4,Win32,30.0120048,,,,,,,,,,,,,,36,viable,,,,,,399.646,416.642,1,0,16.428,,0,0,0,35,1,two_way_cognate,1,REAL,FALSA
,,,,,,,,,,001,2024-06-07_07h54.46.772,empathy_intonation_perc,2024.1.4,Win32,30.0120048,,,,,,,,,,,,,,136,sopleó,,,,,,416.647,443.584,0,1,26.344,,0,1,1,135,1,pseudoword,0,REAL,FALSA
,,,,,,,,,,001,2024-06-07_07h54.46.772,empathy_intonation_perc,2024.1.4,Win32,30.0120048,,,,,,,,,,,,,,94,forro,,,,,,443.585,457.59,1,0,13.449,,0,2,2,93,1,non_cognate,1,REAL,FALSA
,,,,,,,,,,001,2024-06-07_07h54.46.772,empathy_intonation_perc,2024.1.4,Win32,30.0120048,,,,,,,,,,,,,,69,tiza,,,,,,457.594,477.834,1,0,19.665,,0,3,3,68,1,non_cognate,1,REAL,FALSA
,,,,,,,,,,001,2024-06-07_07h54.46.772,empathy_intonation_perc,2024.1.4,Win32,30.0120048,,,,,,,,,,,,,,62,pegar,,,,,,477.835,499.932,1,0,21.55,,0,4,4,61,1,non_cognate,1,REAL,FALSA
,,,,,,,,,,001,2024-06-07_07h54.46.772,empathy_intonation_perc,2024.1.4,Win32,30.0120048,,,,,,,,,,,,,,93,tapa,,,,,,499.937,518.362,1,0,17.867,,0,5,5,92,1,non_cognate,1,REAL,FALSA
,,,,,,,,,,001,2024-06-07_07h54.46.772,empathy_intonation_perc,2024.1.4,Win32,30.0120048,,,,,,,,,,,,,,131,fuar,,,,,,518.364,551.599,0,1,32.683,,0,6,6,130,1,pseudoword,0,REAL,FALSA
,,,,,,,,,,001,2024-06-07_07h54.46.772,empathy_intonation_perc,2024.1.4,Win32,30.0120048,,,,,,,,,,,,,,63,hilo,,,,,,551.603,568.726,1,0,16.528,,0,7,7,62,1,non_cognate,1,REAL,FALSA
,,,,,,,,,,001,2024-06-07_07h54.46.772,empathy_intonation_perc,2024.1.4,Win32,30.0120048,,,,,,,,,,,,,,82,brillo,,,,,,568.732,585.832,1,0,16.553,,0,8,8,81,1,non_cognate,1,REAL,FALSA
,,,,,,,,,,001,2024-06-07_07h54.46.772,empathy_intonation_perc,2024.1.4,Win32,30.0120048,,,,,,,,,,,,,,50,sierra,,,,,,585.833,603.269,1,0,16.872,,0,9,9,49,1,non_cognate,1,REAL,FALSA
,,,,,,,,,,001,2024-06-07_07h54.46.772,empathy_intonation_perc,2024.1.4,Win32,30.0120048,,,,,,,,,,,,,,2,disco,,,,,,603.274,616.429,1,0,12.594,,0,10,10,1,1,three_way_cognate,1,REAL,FALSA
,,,,,,,,,,001,2024-06-07_07h54.46.772,empathy_intonation_perc,2024.1.4,Win32,30.0120048,,,,,,,,,,,,,,122,gravés,,,,,,616.431,665.478,0,1,48.466,,0,11,11,121,1,pseudoword,0,REAL,FALSA
,,,,,,,,,,001,2024-06-07_07h54.46.772,empathy_intonation_perc,2024.1.4,Win32,30.0120048,,,,,,,,,,,,,,25,vigor,,,,,,665.483,679.453,1,0,13.397,,0,12,12,24,1,two_way_cognate,1,REAL,FALSA
,,,,,,,,,,001,2024-06-07_07h54.46.772,empathy_intonation_perc,2024.1.4,Win32,30.0120048,,,,,,,,,,,,,,117,apunan,,,,,,679.46,699.814,0,1,19.791,,0,13,13,116,1,pseudoword,0,REAL,FALSA
,,,,,,,,,,001,2024-06-07_07h54.46.772,empathy_intonation_perc,2024.1.4,Win32,30.0120048,,,,,,,,,,,,,,114,potos,,,,,,699.816,714.595,0,1,14.214,,0,14,14,113,1,pseudoword,0,REAL,FALSA
,,,,,,,,,,001,2024-06-07_07h54.46.772,empathy_intonation_perc,2024.1.4,Win32,30.0120048,,,,,,,,,,,,,,132,nocó,,,,,,714.599,730.32,0,1,15.165,,0,15,15,131,1,pseudoword,0,REAL,FALSA
,,,,,,,,,,001,2024-06-07_07h54.46.772,empathy_intonation_perc,2024.1.4,Win32,30.0120048,,,,,,,,,,,,,,101,fertes,,,,,,730.323,748.922,0,1,18.028,,0,16,16,100,1,pseudoword,0,REAL,FALSA
,,,,,,,,,,001,2024-06-07_07h54.46.772,empathy_intonation_perc,2024.1.4,Win32,30.0120048,,,,,,,,,,,,,,77,suave,,,,,,748.928,764.196,1,0,14.709,,0,17,17,76,1,non_cognate,1,REAL,FALSA
,,,,,,,,,,001,2024-06-07_07h54.46.772,empathy_intonation_perc,2024.1.4,Win32,30.0120048,,,,,,,,,,,,,,13,aura,,,,,,764.197,780.841,1,0,16.087,,0,18,18,12,1,three_way_cognate,1,REAL,FALSA
,,,,,,,,,,001,2024-06-07_07h54.46.772,empathy_intonation_perc,2024.1.4,Win32,30.0120048,,,,,,,,,,,,,,121,rombar,,,,,,780.846,798.487,0,1,17.045,,0,19,19,120,1,pseudoword,0,REAL,FALSA
,,,,,,,,,,001,2024-06-07_07h54.46.772,empathy_intonation_perc,2024.1.4,Win32,30.0120048,,,,,,,,,,,,,,126,anicio,,,,,,798.492,829.045,0,1,29.945,,0,20,20,125,1,pseudoword,0,REAL,FALSA
,,,,,,,,,,001,2024-06-07_07h54.46.772,empathy_intonation_perc,2024.1.4,Win32,30.0120048,,,,,,,,,,,,,,19,trauma,,,,,,829.053,844.676,1,0,15.076,,0,21,21,18,1,three_way_cognate,1,REAL,FALSA
,,,,,,,,,,001,2024-06-07_07h54.46.772,empathy_intonation_perc,2024.1.4,Win32,30.0120048,,,,,,,,,,,,,,49,teñir,,,,,,844.678,866.556,1,0,21.305,,0,22,22,48,1,non_cognate,1,REAL,FALSA
,,,,,,,,,,001,2024-06-07_07h54.46.772,empathy_intonation_perc,2024.1.4,Win32,30.0120048,,,,,,,,,,,,,,91,equipo,,,,,,866.561,886.969,1,0,19.872,,0,23,23,90,1,non_cognate,1,REAL,FALSA
,,,,,,,,,,001,2024-06-07_07h54.46.772,empathy_intonation_perc,2024.1.4,Win32,30.0120048,,,,,,,,,,,,,,27,piano,,,,,,886.97,900.271,1,0,12.746,,0,24,24,26,1,two_way_cognate,1,REAL,FALSA
,,,,,,,,,,001,2024-06-07_07h54.46.772,empathy_intonation_perc,2024.1.4,Win32,30.0120048,,,,,,,,,,,,,,38,halo,,,,,,900.276,918.05,1,0,17.209,,0,25,25,37,1,two_way_cognate,1,REAL,FALSA
,,,,,,,,,,001,2024-06-07_07h54.46.772,empathy_intonation_perc,2024.1.4,Win32,30.0120048,,,,,,,,,,,,,,6,albino,,,,,,918.051,931.703,1,0,13.1,,0,26,26,5,1,three_way_cognate,1,REAL,FALSA
,,,,,,,,,,001,2024-06-07_07h54.46.772,empathy_intonation_perc,2024.1.4,Win32,30.0120048,,,,,,,,,,,,,,120,hierno,,,,,,931.704,960.73,0,1,28.474,,0,27,27,119,1,pseudoword,0,REAL,FALSA
,,,,,,,,,,001,2024-06-07_07h54.46.772,empathy_intonation_perc,2024.1.4,Win32,30.0120048,,,,,,,,,,,,,,143,pledú,,,,,,960.735,983.266,0,1,21.958,,0,28,28,142,1,pseudoword,0,REAL,FALSA
,,,,,,,,,,001,2024-06-07_07h54.46.772,empathy_intonation_perc,2024.1.4,Win32,30.0120048,,,,,,,,,,,,,,24,retina,,,,,,983.271,998.347,1,0,14.487,,0,29,29,23,1,three_way_cognate,1,REAL,FALSA
,,,,,,,,,,001,2024-06-07_07h54.46.772,empathy_intonation_perc,2024.1.4,Win32,30.0120048,,,,,,,,,,,,,,128,pelí,,,,,,998.351,1018.447,0,1,19.528,,0,30,30,127,1,pseudoword,0,REAL,FALSA
,,,,,,,,,,001,2024-06-07_07h54.46.772,empathy_intonation_perc,2024.1.4,Win32,30.0120048,,,,,,,,,,,,,,96,caro,,,,,,1018.451,1029.216,1,0,10.214,,0,31,31,95,1,non_cognate,1,REAL,FALSA
,,,,,,,,,,001,2024-06-07_07h54.46.772,empathy_intonation_perc,2024.1.4,Win32,30.0120048,,,,,,,,,,,,,,78,rendir,,,,,,1029.22,1058.287,1,0,28.5,,0,32,32,77,1,non_cognate,1,REAL,FALSA
,,,,,,,,,,001,2024-06-07_07h54.46.772,empathy_intonation_perc,2024.1.4,Win32,30.0120048,,,,,,,,,,,,,,35,aurora,,,,,,1058.293,1075.75,1,0,16.895,,0,33,33,34,1,two_way_cognate,1,REAL,FALSA
,,,,,,,,,,001,2024-06-07_07h54.46.772,empathy_intonation_perc,2024.1.4,Win32,30.0120048,,,,,,,,,,,,,,42,rumor,,,,,,1075.754,1086.042,1,0,9.721,,0,34,34,41,1,two_way_cognate,1,REAL,FALSA
,,,,,,,,,,001,2024-06-07_07h54.46.772,empathy_intonation_perc,2024.1.4,Win32,30.0120048,,,,,,,,,,,,,,28,ardor,,,,,,1086.043,1106.961,1,0,20.363,,0,35,35,27,1,two_way_cognate,1,REAL,FALSA
,,,,,,,,,,001,2024-06-07_07h54.46.772,empathy_intonation_perc,2024.1.4,Win32,30.0120048,,,,,,,,,,,,,,5,horror,,,,,,1106.966,1117.32,1,0,9.788,,0,36,36,4,1,three_way_cognate,1,REAL,FALSA
,,,,,,,,,,001,2024-06-07_07h54.46.772,empathy_intonation_perc,2024.1.4,Win32,30.0120048,,,,,,,,,,,,,,113,difrás,,,,,,1117.322,1134.898,0,1,17.015,,0,37,37,112,1,pseudoword,0,REAL,FALSA
,,,,,,,,,,001,2024-06-07_07h54.46.772,empathy_intonation_perc,2024.1.4,Win32,30.0120048,,,,,,,,,,,,,,134,fruzas,,,,,,1134.906,1156.228,0,1,20.777,,0,38,38,133,1,pseudoword,0,REAL,FALSA
,,,,,,,,,,001,2024-06-07_07h54.46.772,empathy_intonation_perc,2024.1.4,Win32,30.0120048,,,,,,,,,,,,,,103,babes,,,,,,1156.229,1168.98,0,1,12.2,,0,39,39,102,1,pseudoword,0,REAL,FALSA
,,,,,,,,,,001,2024-06-07_07h54.46.772,empathy_intonation_perc,2024.1.4,Win32,30.0120048,,,,,,,,,,,,,,26,enigma,,,,,,1168.987,1182.276,1,0,12.735,,0,40,40,25,1,two_way_cognate,1,REAL,FALSA
,,,,,,,,,,001,2024-06-07_07h54.46.772,empathy_intonation_perc,2024.1.4,Win32,30.0120048,,,,,,,,,,,,,,4,extra,,,,,,1182.277,1191.776,1,0,8.933,,0,41,41,3,1,three_way_cognate,1,REAL,FALSA
,,,,,,,,,,001,2024-06-07_07h54.46.772,empathy_intonation_perc,2024.1.4,Win32,30.0120048,,,,,,,,,,,,,,125,ceme,,,,,,1191.779,1201.192,0,1,8.851,,0,42,42,124,1,pseudoword,0,REAL,FALSA
,,,,,,,,,,001,2024-06-07_07h54.46.772,empathy_intonation_perc,2024.1.4,Win32,30.0120048,,,,,,,,,,,,,,106,baurá,,,,,,1201.196,1219.725,0,1,17.981,,0,43,43,105,1,pseudoword,0,REAL,FALSA
,,,,,,,,,,001,2024-06-07_07h54.46.772,empathy_intonation_perc,2024.1.4,Win32,30.0120048,,,,,,,,,,,,,,56,pico,,,,,,1219.727,1232.901,1,0,12.639,,0,44,44,55,1,non_cognate,1,REAL,FALSA
,,,,,,,,,,001,2024-06-07_07h54.46.772,empathy_intonation_perc,2024.1.4,Win32,30.0120048,,,,,,,,,,,,,,17,altar,,,,,,1232.902,1244.406,1,0,10.948,,0,45,45,16,1,three_way_cognate,1,REAL,FALSA
,,,,,,,,,,001,2024-06-07_07h54.46.772,empathy_intonation_perc,2024.1.4,Win32,30.0120048,,,,,,,,,,,,,,32,animal,,,,,,1244.411,1257.629,1,0,12.65,,0,46,46,31,1,two_way_cognate,1,REAL,FALSA
,,,,,,,,,,001,2024-06-07_07h54.46.772,empathy_intonation_perc,2024.1.4,Win32,30.0120048,,,,,,,,,,,,,,88,percha,,,,,,1257.631,1269.289,1,0,11.1,,0,47,47,87,1,non_cognate,1,REAL,FALSA
,,,,,,,,,,001,2024-06-07_07h54.46.772,empathy_intonation_perc,2024.1.4,Win32,30.0120048,,,,,,,,,,,,,,73,llevar,,,,,,1269.294,1306.572,1,0,36.728,,0,48,48,72,1,non_cognate,1,REAL,FALSA
,,,,,,,,,,001,2024-06-07_07h54.46.772,empathy_intonation_perc,2024.1.4,Win32,30.0120048,,,,,,,,,,,,,,81,sacar,,,,,,1306.578,1319.531,1,0,12.373,,0,49,49,80,1,non_cognate,1,REAL,FALSA
,,,,,,,,,,001,2024-06-07_07h54.46.772,empathy_intonation_perc,2024.1.4,Win32,30.0120048,,,,,,,,,,,,,,65,guerra,,,,,,1319.532,1339.951,1,0,19.862,,0,50,50,64,1,non_cognate,1,REAL,FALSA
,,,,,,,,,,001,2024-06-07_07h54.46.772,empathy_intonation_perc,2024.1.4,Win32,30.0120048,,,,,,,,,,,,,,37,torso,,,,,,1339.956,1349.215,1,0,8.708,,0,51,51,36,1,two_way_cognate,1,REAL,FALSA
,,,,,,,,,,001,2024-06-07_07h54.46.772,empathy_intonation_perc,2024.1.4,Win32,30.0120048,,,,,,,,,,,,,,75,patada,,,,,,1349.217,1360.205,1,0,10.449,,0,52,52,74,1,non_cognate,1,REAL,FALSA
,,,,,,,,,,001,2024-06-07_07h54.46.772,empathy_intonation_perc,2024.1.4,Win32,30.0120048,,,,,,,,,,,,,,84,aviso,,,,,,1360.206,1372.655,1,0,11.883,,0,53,53,83,1,non_cognate,1,REAL,FALSA
,,,,,,,,,,001,2024-06-07_07h54.46.772,empathy_intonation_perc,2024.1.4,Win32,30.0120048,,,,,,,,,,,,,,40,pelvis,,,,,,1372.661,1381.783,1,0,8.557,,0,54,54,39,1,two_way_cognate,1,REAL,FALSA
,,,,,,,,,,001,2024-06-07_07h54.46.772,empathy_intonation_perc,2024.1.4,Win32,30.0120048,,,,,,,,,,,,,,72,rostro,,,,,,1381.784,1397.083,1,0,14.733,,0,55,55,71,1,non_cognate,1,REAL,FALSA
,,,,,,,,,,001,2024-06-07_07h54.46.772,empathy_intonation_perc,2024.1.4,Win32,30.0120048,,,,,,,,,,,,,,9,drama,,,,,,1397.084,1407.287,1,0,9.649,,0,56,56,8,1,three_way_cognate,1,REAL,FALSA
,,,,,,,,,,001,2024-06-07_07h54.46.772,empathy_intonation_perc,2024.1.4,Win32,30.0120048,,,,,,,,,,,,,,41,pasta,,,,,,1407.294,1415.271,1,0,7.41,,0,57,57,40,1,two_way_cognate,1,REAL,FALSA
,,,,,,,,,,001,2024-06-07_07h54.46.772,empathy_intonation_perc,2024.1.4,Win32,30.0120048,,,,,,,,,,,,,,52,blando,,,,,,1415.273,1455.432,1,0,39.589,,0,58,58,51,1,non_cognate,1,REAL,FALSA
,,,,,,,,,,001,2024-06-07_07h54.46.772,empathy_intonation_perc,2024.1.4,Win32,30.0120048,,,,,,,,,,,,,,48,pelvis,,,,,,1455.438,1464.59,1,0,8.588,,0,59,59,47,1,two_way_cognate,1,REAL,FALSA
,,,,,,,,,,001,2024-06-07_07h54.46.772,empathy_intonation_perc,2024.1.4,Win32,30.0120048,,,,,,,,,,,,,,107,plamos,,,,,,1464.592,1478.053,0,1,12.901,,0,60,60,106,1,pseudoword,0,REAL,FALSA
,,,,,,,,,,001,2024-06-07_07h54.46.772,empathy_intonation_perc,2024.1.4,Win32,30.0120048,,,,,,,,,,,,,,95,listo,,,,,,1478.059,1489.66,1,0,11.049,,0,61,61,94,1,non_cognate,1,REAL,FALSA
,,,,,,,,,,001,2024-06-07_07h54.46.772,empathy_intonation_perc,2024.1.4,Win32,30.0120048,,,,,,,,,,,,,,100,medón,,,,,,1489.662,1510.442,0,1,20.227,,0,62,62,99,1,pseudoword,0,REAL,FALSA
,,,,,,,,,,001,2024-06-07_07h54.46.772,empathy_intonation_perc,2024.1.4,Win32,30.0120048,,,,,,,,,,,,,,129,suchas,,,,,,1510.448,1524.263,0,1,13.266,,0,63,63,128,1,pseudoword,0,REAL,FALSA
,,,,,,,,,,001,2024-06-07_07h54.46.772,empathy_intonation_perc,2024.1.4,Win32,30.0120048,,,,,,,,,,,,,,45,total,,,,,,1524.264,1534.425,1,0,9.607,,0,64,64,44,1,two_way_cognate,1,REAL,FALSA
,,,,,,,,,,001,2024-06-07_07h54.46.772,empathy_intonation_perc,2024.1.4,Win32,30.0120048,,,,,,,,,,,,,,138,glural,,,,,,1534.426,1556.541,0,1,21.556,,0,65,65,137,1,pseudoword,0,REAL,FALSA
,,,,,,,,,,001,2024-06-07_07h54.46.772,empathy_intonation_perc,2024.1.4,Win32,30.0120048,,,,,,,,,,,,,,39,casual,,,,,,1556.546,1566.094,1,0,8.983,,0,66,66,38,1,two_way_cognate,1,REAL,FALSA
,,,,,,,,,,001,2024-06-07_07h54.46.772,empathy_intonation_perc,2024.1.4,Win32,30.0120048,,,,,,,,,,,,,,137,unglés,,,,,,1566.096,1586.722,0,1,20.063,,0,67,67,136,1,pseudoword,0,REAL,FALSA
,,,,,,,,,,001,2024-06-07_07h54.46.772,empathy_intonation_perc,2024.1.4,Win32,30.0120048,,,,,,,,,,,,,,59,feo,,,,,,1586.727,1597.456,1,0,10.165,,0,68,68,58,1,non_cognate,1,REAL,FALSA
,,,,,,,,,,001,2024-06-07_07h54.46.772,empathy_intonation_perc,2024.1.4,Win32,30.0120048,,,,,,,,,,,,,,20,hotel,,,,,,1597.458,1606.373,1,0,8.363,,0,69,69,19,1,three_way_cognate,1,REAL,FALSA
,,,,,,,,,,001,2024-06-07_07h54.46.772,empathy_intonation_perc,2024.1.4,Win32,30.0120048,,,,,,,,,,,,,,135,macayó,,,,,,1606.374,1625.424,0,1,18.497,,0,70,70,134,1,pseudoword,0,REAL,FALSA
,,,,,,,,,,001,2024-06-07_07h54.46.772,empathy_intonation_perc,2024.1.4,Win32,30.0120048,,,,,,,,,,,,,,11,dogma,,,,,,1625.43,1634.571,1,0,8.578,,0,71,71,10,1,three_way_cognate,1,REAL,FALSA
,,,,,,,,,,001,2024-06-07_07h54.46.772,empathy_intonation_perc,2024.1.4,Win32,30.0120048,,,,,,,,,,,,,,86,cuenco,,,,,,1634.572,1650.3,1,0,15.155,,0,72,72,85,1,non_cognate,1,REAL,FALSA
,,,,,,,,,,001,2024-06-07_07h54.46.772,empathy_intonation_perc,2024.1.4,Win32,30.0120048,,,,,,,,,,,,,,34,actor,,,,,,1650.306,1660.775,1,0,9.901,,0,73,73,33,1,two_way_cognate,1,REAL,FALSA
,,,,,,,,,,001,2024-06-07_07h54.46.772,empathy_intonation_perc,2024.1.4,Win32,30.0120048,,,,,,,,,,,,,,115,civas,,,,,,1660.777,1685.357,0,1,24.033,,0,74,74,114,1,pseudoword,0,REAL,FALSA
,,,,,,,,,,001,2024-06-07_07h54.46.772,empathy_intonation_perc,2024.1.4,Win32,30.0120048,,,,,,,,,,,,,,68,puñal,,,,,,1685.364,1698.199,1,0,12.276,,0,75,75,67,1,non_cognate,1,REAL,FALSA
,,,,,,,,,,001,2024-06-07_07h54.46.772,empathy_intonation_perc,2024.1.4,Win32,30.0120048,,,,,,,,,,,,,,140,vapen,,,,,,1698.201,1716.683,0,1,17.939,,0,76,76,139,1,pseudoword,0,REAL,FALSA
,,,,,,,,,,001,2024-06-07_07h54.46.772,empathy_intonation_perc,2024.1.4,Win32,30.0120048,,,,,,,,,,,,,,22,plural,,,,,,1716.687,1726.901,1,0,9.66,,0,77,77,21,1,three_way_cognate,1,REAL,FALSA
,,,,,,,,,,001,2024-06-07_07h54.46.772,empathy_intonation_perc,2024.1.4,Win32,30.0120048,,,,,,,,,,,,,,12,plan,,,,,,1726.902,1736.053,1,0,8.598,,0,78,78,11,1,three_way_cognate,1,REAL,FALSA
,,,,,,,,,,001,2024-06-07_07h54.46.772,empathy_intonation_perc,2024.1.4,Win32,30.0120048,,,,,,,,,,,,,,55,maldad,,,,,,1736.054,1747.376,1,0,10.774,,0,79,79,54,1,non_cognate,1,REAL,FALSA
,,,,,,,,,,001,2024-06-07_07h54.46.772,empathy_intonation_perc,2024.1.4,Win32,30.0120048,,,,,,,,,,,,,,46,mortal,,,,,,1747.382,1766.912,1,0,18.975,,0,80,80,45,1,two_way_cognate,1,REAL,FALSA
,,,,,,,,,,001,2024-06-07_07h54.46.772,empathy_intonation_perc,2024.1.4,Win32,30.0120048,,,,,,,,,,,,,,116,crene,,,,,,1766.914,1782.78,0,1,15.294,,0,81,81,115,1,pseudoword,0,REAL,FALSA
,,,,,,,,,,001,2024-06-07_07h54.46.772,empathy_intonation_perc,2024.1.4,Win32,30.0120048,,,,,,,,,,,,,,74,ala,,,,,,1782.785,1792.271,1,0,8.938,,0,82,82,73,1,non_cognate,1,REAL,FALSA
,,,,,,,,,,001,2024-06-07_07h54.46.772,empathy_intonation_perc,2024.1.4,Win32,30.0120048,,,,,,,,,,,,,,15,chat,,,,,,1792.273,1801.129,1,0,8.312,,0,83,83,14,1,three_way_cognate,1,REAL,FALSA
,,,,,,,,,,001,2024-06-07_07h54.46.772,empathy_intonation_perc,2024.1.4,Win32,30.0120048,,,,,,,,,,,,,,83,hálito,,,,,,1801.131,1815.03,1,0,13.343,,0,84,84,82,1,non_cognate,1,REAL,FALSA
,,,,,,,,,,001,2024-06-07_07h54.46.772,empathy_intonation_perc,2024.1.4,Win32,30.0120048,,,,,,,,,,,,,,76,chocar,,,,,,1815.034,1847.518,1,0,31.932,,0,85,85,75,1,non_cognate,1,REAL,FALSA
,,,,,,,,,,001,2024-06-07_07h54.46.772,empathy_intonation_perc,2024.1.4,Win32,30.0120048,,,,,,,,,,,,,,70,ánimo,,,,,,1847.522,1867.865,1,0,19.795,,0,86,86,69,1,non_cognate,1,REAL,FALSA
,,,,,,,,,,001,2024-06-07_07h54.46.772,empathy_intonation_perc,2024.1.4,Win32,30.0120048,,,,,,,,,,,,,,66,aleta,,,,,,1867.871,1878.113,1,0,9.676,,0,87,87,65,1,non_cognate,1,REAL,FALSA
,,,,,,,,,,001,2024-06-07_07h54.46.772,empathy_intonation_perc,2024.1.4,Win32,30.0120048,,,,,,,,,,,,,,92,flecha,,,,,,1878.115,1892.719,1,0,14.029,,0,88,88,91,1,non_cognate,1,REAL,FALSA
,,,,,,,,,,001,2024-06-07_07h54.46.772,empathy_intonation_perc,2024.1.4,Win32,30.0120048,,,,,,,,,,,,,,127,vien,,,,,,1892.725,1902.294,0,1,9.009,,0,89,89,126,1,pseudoword,0,REAL,FALSA
,,,,,,,,,,001,2024-06-07_07h54.46.772,empathy_intonation_perc,2024.1.4,Win32,30.0120048,,,,,,,,,,,,,,105,curgué,,,,,,1902.295,1917.75,0,1,14.899,,0,90,90,104,1,pseudoword,0,REAL,FALSA
,,,,,,,,,,001,2024-06-07_07h54.46.772,empathy_intonation_perc,2024.1.4,Win32,30.0120048,,,,,,,,,,,,,,7,kilo,,,,,,1917.752,1924.875,1,0,6.558,,0,91,91,6,1,three_way_cognate,1,REAL,FALSA
,,,,,,,,,,001,2024-06-07_07h54.46.772,empathy_intonation_perc,2024.1.4,Win32,30.0120048,,,,,,,,,,,,,,67,llamar,,,,,,1924.881,1951.053,1,0,25.599,,0,92,92,66,1,non_cognate,1,REAL,FALSA
,,,,,,,,,,001,2024-06-07_07h54.46.772,empathy_intonation_perc,2024.1.4,Win32,30.0120048,,,,,,,,,,,,,,98,erede,,,,,,1951.058,1968.33,0,1,16.731,,0,93,93,97,1,pseudoword,0,REAL,FALSA
,,,,,,,,,,001,2024-06-07_07h54.46.772,empathy_intonation_perc,2024.1.4,Win32,30.0120048,,,,,,,,,,,,,,43,honor,,,,,,1968.332,1978.227,1,0,9.326,,0,94,94,42,1,two_way_cognate,1,REAL,FALSA
,,,,,,,,,,001,2024-06-07_07h54.46.772,empathy_intonation_perc,2024.1.4,Win32,30.0120048,,,,,,,,,,,,,,124,lobe,,,,,,1978.227,2004.416,0,1,25.615,,0,95,95,123,1,pseudoword,0,REAL,FALSA
,,,,,,,,,,001,2024-06-07_07h54.46.772,empathy_intonation_perc,2024.1.4,Win32,30.0120048,,,,,,,,,,,,,,108,viarle,,,,,,2004.421,2020.379,0,1,15.383,,0,96,96,107,1,pseudoword,0,REAL,FALSA
,,,,,,,,,,001,2024-06-07_07h54.46.772,empathy_intonation_perc,2024.1.4,Win32,30.0120048,,,,,,,,,,,,,,87,muleta,,,,,,2020.385,2032.489,1,0,11.51,,0,97,97,86,1,non_cognate,1,REAL,FALSA
,,,,,,,,,,001,2024-06-07_07h54.46.772,empathy_intonation_perc,2024.1.4,Win32,30.0120048,,,,,,,,,,,,,,111,vibler,,,,,,2032.49,2045.117,0,1,12.058,,0,98,98,110,1,pseudoword,0,REAL,FALSA
,,,,,,,,,,001,2024-06-07_07h54.46.772,empathy_intonation_perc,2024.1.4,Win32,30.0120048,,,,,,,,,,,,,,97,hufón,,,,,,2045.118,2067.121,0,1,21.44,,0,99,99,96,1,pseudoword,0,REAL,FALSA
,,,,,,,,,,001,2024-06-07_07h54.46.772,empathy_intonation_perc,2024.1.4,Win32,30.0120048,,,,,,,,,,,,,,85,enorme,,,,,,2067.126,2080.028,1,0,12.329,,0,100,100,84,1,non_cognate,1,REAL,FALSA
