lextale_instructions.started,lextale_instructions.stopped,lextale_instructions_loop.thisRepN,lextale_instructions_loop.thisTrialN,lextale_instructions_loop.thisN,lextale_instructions_loop.thisIndex,lextale_instructions_loop.ran,instructions_text,continue_text,participant,session,date,expName,psychopyVersion,OS,frameRate,lextale_practice.started,lextale_practice.stopped,key_resp_lextale_practice.keys,key_resp_lextale_practice.corr,key_resp_lextale_practice.rt,key_resp_lextale_practice.duration,lextale_practice_feedback.started,lextale_practice_feedback.stopped,lextale_practice_trials.thisRepN,lextale_practice_trials.thisTrialN,lextale_practice_trials.thisN,lextale_practice_trials.thisIndex,lextale_practice_trials.ran,stim,word,correct_response,prac_button_real,prac_button_false,lextale_check.started,lextale_check.stopped,lextale_trial.started,lextale_trial.stopped,key_resp_lextale_trial.keys,key_resp_lextale_trial.corr,key_resp_lextale_trial.rt,key_resp_lextale_trial.duration,lextail_trials.thisRepN,lextail_trials.thisTrialN,lextail_trials.thisN,lextail_trials.thisIndex,lextail_trials.ran,type,correct_reponse,button_real,button_false
0.008,19.4357,0,0,0,0,1,"Este es un test de vocabulario en español. 
  
  A continuación vas a ver 90 secuencias de letras que parecen 'españolas'.
  
  Solo algunas de ellas son palabras de verdad.",(presiona la barra espaciadora para continuar),,001,2024-06-07_12h19.49.243,empathy_intonation_perc,2024.1.4,Win32,60.24096386,,,,,,,,,,,,,,,,,,,,,,,,,,,,,,,,,,,
19.4362,101.6279,0,1,1,1,1,"Por favor, señala las palabras que tú conoces (aquellas que estás convencido que son palabras españolas, incluso aunque no seas capaz de dar el significado preciso).",(presiona la barra espaciadora para continuar),,001,2024-06-07_12h19.49.243,empathy_intonation_perc,2024.1.4,Win32,60.24096386,,,,,,,,,,,,,,,,,,,,,,,,,,,,,,,,,,,
101.6596,102.6267,0,2,2,2,1,Pero cuidado: los errores se penalizan. Por eso no tiene sentido tratar de incrementar tu puntuación marcando como reales palabras que nunca has visto.,(presiona la barra espaciadora para continuar),,001,2024-06-07_12h19.49.243,empathy_intonation_perc,2024.1.4,Win32,60.24096386,,,,,,,,,,,,,,,,,,,,,,,,,,,,,,,,,,,
102.6281,325.0004,0,3,3,3,1,"Presiona la tecla 1 si piensas que es una palabra real y la tecla 
  0 si piensas que es una palabra falsa. 
  
  Vamos a practicar un poco...",(presiona la barra espaciadora para continuar),,001,2024-06-07_12h19.49.243,empathy_intonation_perc,2024.1.4,Win32,60.24096386,,,,,,,,,,,,,,,,,,,,,,,,,,,,,,,,,,,
,,,,,,,,,,001,2024-06-07_12h19.49.243,empathy_intonation_perc,2024.1.4,Win32,60.24096386,325.0141,328.751,0,1,3.2032,,328.752,329.7473,0,0,0,0,1,0,depiste,0,REAL,FALSA,,,,,,,,,,,,,,,,,
,,,,,,,,,,001,2024-06-07_12h19.49.243,empathy_intonation_perc,2024.1.4,Win32,60.24096386,329.7494,332.4114,1,1,2.1229,,332.4115,333.4102,0,1,1,1,1,0,sí,1,REAL,FALSA,,,,,,,,,,,,,,,,,
,,,,,,,,,,001,2024-06-07_12h19.49.243,empathy_intonation_perc,2024.1.4,Win32,60.24096386,333.4513,335.6249,1,0,1.6376,,335.6252,336.6236,0,2,2,2,1,0,coné,0,REAL,FALSA,,,,,,,,,,,,,,,,,
,,,,,,,,,,001,2024-06-07_12h19.49.243,empathy_intonation_perc,2024.1.4,Win32,60.24096386,336.625,338.539,1,0,1.3715,,338.5391,339.5378,0,3,3,3,1,0,calpar,0,REAL,FALSA,,,,,,,,,,,,,,,,,
,,,,,,,,,,001,2024-06-07_12h19.49.243,empathy_intonation_perc,2024.1.4,Win32,60.24096386,339.5855,341.2348,0,1,1.1296,,341.2348,342.234,0,4,4,4,1,0,joten,0,REAL,FALSA,,,,,,,,,,,,,,,,,
,,,,,,,,,,001,2024-06-07_12h19.49.243,empathy_intonation_perc,2024.1.4,Win32,60.24096386,342.2344,350.6442,1,1,7.8645,,350.645,351.6431,0,5,5,5,1,0,sacapuntas,1,REAL,FALSA,,,,,,,,,,,,,,,,,
,,,,,,,,,,001,2024-06-07_12h19.49.243,empathy_intonation_perc,2024.1.4,Win32,60.24096386,351.6918,353.9743,0,1,1.756,,353.9745,354.9733,0,6,6,6,1,0,priba,0,REAL,FALSA,,,,,,,,,,,,,,,,,
,,,,,,,,,,001,2024-06-07_12h19.49.243,empathy_intonation_perc,2024.1.4,Win32,60.24096386,354.9745,360.9517,1,0,5.4379,,360.9519,361.9501,0,7,7,7,1,0,pelasula,0,REAL,FALSA,,,,,,,,,,,,,,,,,
,,,,,,,,,,001,2024-06-07_12h19.49.243,empathy_intonation_perc,2024.1.4,Win32,60.24096386,362.0003,364.9805,0,0,2.4459,,364.9807,365.9798,0,8,8,8,1,0,bien,1,REAL,FALSA,,,,,,,,,,,,,,,,,
,,,,,,,,,,001,2024-06-07_12h19.49.243,empathy_intonation_perc,2024.1.4,Win32,60.24096386,365.981,405.5596,1,1,39.0413,,405.5598,406.5582,0,9,9,9,1,0,casa,1,REAL,FALSA,,,,,,,,,,,,,,,,,
,,,,,,,,,,001,2024-06-07_12h19.49.243,empathy_intonation_perc,2024.1.4,Win32,60.24096386,406.5977,425.1247,1,0,17.9967,,425.1248,426.1232,0,10,10,10,1,0,lejo,0,REAL,FALSA,,,,,,,,,,,,,,,,,
,,,,,,,,,,001,2024-06-07_12h19.49.243,empathy_intonation_perc,2024.1.4,Win32,60.24096386,426.1619,442.4749,1,0,15.7788,,442.4751,443.474,0,11,11,11,1,0,pretantas,0,REAL,FALSA,,,,,,,,,,,,,,,,,
,,,,,,,,,,001,2024-06-07_12h19.49.243,empathy_intonation_perc,2024.1.4,Win32,60.24096386,,,,,,,,,,,,,,,,,,,443.4763,445.0551,,,,,,,,,,,,,,,
,,,,,,,,,,001,2024-06-07_12h19.49.243,empathy_intonation_perc,2024.1.4,Win32,60.24096386,,,,,,,,,,,,,,91,equipo,,,,,,445.0783,447.4714,1,0,1.8565,,0,0,0,90,1,non_cognate,1,REAL,FALSA
,,,,,,,,,,001,2024-06-07_12h19.49.243,empathy_intonation_perc,2024.1.4,Win32,60.24096386,,,,,,,,,,,,,,78,rendir,,,,,,447.473,449.8852,0,1,1.873,,0,1,1,77,1,non_cognate,1,REAL,FALSA
,,,,,,,,,,001,2024-06-07_12h19.49.243,empathy_intonation_perc,2024.1.4,Win32,60.24096386,,,,,,,,,,,,,,75,patada,,,,,,449.9233,451.7164,1,0,1.2536,,0,2,2,74,1,non_cognate,1,REAL,FALSA
,,,,,,,,,,001,2024-06-07_12h19.49.243,empathy_intonation_perc,2024.1.4,Win32,60.24096386,,,,,,,,,,,,,,16,clan,,,,,,451.7177,453.3317,0,1,1.0789,,0,3,3,15,1,three_way_cognate,1,REAL,FALSA
,,,,,,,,,,001,2024-06-07_12h19.49.243,empathy_intonation_perc,2024.1.4,Win32,60.24096386,,,,,,,,,,,,,,45,total,,,,,,453.3334,454.8785,0,1,1.0086,,0,4,4,44,1,two_way_cognate,1,REAL,FALSA
,,,,,,,,,,001,2024-06-07_12h19.49.243,empathy_intonation_perc,2024.1.4,Win32,60.24096386,,,,,,,,,,,,,,128,pelí,,,,,,454.8789,456.3452,1,0,0.9452,,0,5,5,127,1,pseudoword,0,REAL,FALSA
,,,,,,,,,,001,2024-06-07_12h19.49.243,empathy_intonation_perc,2024.1.4,Win32,60.24096386,,,,,,,,,,,,,,42,rumor,,,,,,456.3466,457.6439,0,1,0.7583,,0,6,6,41,1,two_way_cognate,1,REAL,FALSA
,,,,,,,,,,001,2024-06-07_12h19.49.243,empathy_intonation_perc,2024.1.4,Win32,60.24096386,,,,,,,,,,,,,,18,mafia,,,,,,457.6452,460.1082,0,1,1.9231,,0,7,7,17,1,three_way_cognate,1,REAL,FALSA
,,,,,,,,,,001,2024-06-07_12h19.49.243,empathy_intonation_perc,2024.1.4,Win32,60.24096386,,,,,,,,,,,,,,130,dubo,,,,,,460.1094,462.1217,1,0,1.4833,,0,8,8,129,1,pseudoword,0,REAL,FALSA
,,,,,,,,,,001,2024-06-07_12h19.49.243,empathy_intonation_perc,2024.1.4,Win32,60.24096386,,,,,,,,,,,,,,36,viable,,,,,,462.122,463.8368,0,1,1.1856,,0,9,9,35,1,two_way_cognate,1,REAL,FALSA
,,,,,,,,,,001,2024-06-07_12h19.49.243,empathy_intonation_perc,2024.1.4,Win32,60.24096386,,,,,,,,,,,,,,5,horror,,,,,,463.8372,465.6352,0,1,1.268,,0,10,10,4,1,three_way_cognate,1,REAL,FALSA
,,,,,,,,,,001,2024-06-07_12h19.49.243,empathy_intonation_perc,2024.1.4,Win32,60.24096386,,,,,,,,,,,,,,93,tapa,,,,,,465.6354,467.0507,1,0,0.8868,,0,11,11,92,1,non_cognate,1,REAL,FALSA
,,,,,,,,,,001,2024-06-07_12h19.49.243,empathy_intonation_perc,2024.1.4,Win32,60.24096386,,,,,,,,,,,,,,116,crene,,,,,,467.0512,468.2841,1,0,0.7064,,0,12,12,115,1,pseudoword,0,REAL,FALSA
,,,,,,,,,,001,2024-06-07_12h19.49.243,empathy_intonation_perc,2024.1.4,Win32,60.24096386,,,,,,,,,,,,,,1,tumor,,,,,,468.2853,469.6993,0,1,0.8777,,0,13,13,0,1,three_way_cognate,1,REAL,FALSA
,,,,,,,,,,001,2024-06-07_12h19.49.243,empathy_intonation_perc,2024.1.4,Win32,60.24096386,,,,,,,,,,,,,,35,aurora,,,,,,469.7004,470.9979,0,1,0.7627,,0,14,14,34,1,two_way_cognate,1,REAL,FALSA
,,,,,,,,,,001,2024-06-07_12h19.49.243,empathy_intonation_perc,2024.1.4,Win32,60.24096386,,,,,,,,,,,,,,68,puñal,,,,,,470.9992,472.1292,1,0,0.5954,,0,15,15,67,1,non_cognate,1,REAL,FALSA
,,,,,,,,,,001,2024-06-07_12h19.49.243,empathy_intonation_perc,2024.1.4,Win32,60.24096386,,,,,,,,,,,,,,72,rostro,,,,,,472.1295,473.4458,1,0,0.7936,,0,16,16,71,1,non_cognate,1,REAL,FALSA
,,,,,,,,,,001,2024-06-07_12h19.49.243,empathy_intonation_perc,2024.1.4,Win32,60.24096386,,,,,,,,,,,,,,138,glural,,,,,,473.4471,474.8947,1,0,0.9088,,0,17,17,137,1,pseudoword,0,REAL,FALSA
,,,,,,,,,,001,2024-06-07_12h19.49.243,empathy_intonation_perc,2024.1.4,Win32,60.24096386,,,,,,,,,,,,,,49,teñir,,,,,,474.8961,475.9434,1,0,0.5215,,0,18,18,48,1,non_cognate,1,REAL,FALSA
,,,,,,,,,,001,2024-06-07_12h19.49.243,empathy_intonation_perc,2024.1.4,Win32,60.24096386,,,,,,,,,,,,,,89,muñeca,,,,,,475.9445,477.0091,1,0,0.5361,,0,19,19,88,1,non_cognate,1,REAL,FALSA
,,,,,,,,,,001,2024-06-07_12h19.49.243,empathy_intonation_perc,2024.1.4,Win32,60.24096386,,,,,,,,,,,,,,143,pledú,,,,,,477.0106,478.0749,1,0,0.5358,,0,20,20,142,1,pseudoword,0,REAL,FALSA
,,,,,,,,,,001,2024-06-07_12h19.49.243,empathy_intonation_perc,2024.1.4,Win32,60.24096386,,,,,,,,,,,,,,3,flora,,,,,,478.0761,479.3572,0,1,0.7465,,0,21,21,2,1,three_way_cognate,1,REAL,FALSA
,,,,,,,,,,001,2024-06-07_12h19.49.243,empathy_intonation_perc,2024.1.4,Win32,60.24096386,,,,,,,,,,,,,,66,aleta,,,,,,479.3586,480.7045,1,0,0.8037,,0,22,22,65,1,non_cognate,1,REAL,FALSA
,,,,,,,,,,001,2024-06-07_12h19.49.243,empathy_intonation_perc,2024.1.4,Win32,60.24096386,,,,,,,,,,,,,,33,collar,,,,,,480.705,482.1378,0,1,0.8902,,0,23,23,32,1,two_way_cognate,1,REAL,FALSA
,,,,,,,,,,001,2024-06-07_12h19.49.243,empathy_intonation_perc,2024.1.4,Win32,60.24096386,,,,,,,,,,,,,,39,casual,,,,,,482.1391,483.4367,0,1,0.7545,,0,24,24,38,1,two_way_cognate,1,REAL,FALSA
,,,,,,,,,,001,2024-06-07_12h19.49.243,empathy_intonation_perc,2024.1.4,Win32,60.24096386,,,,,,,,,,,,,,118,bará,,,,,,483.4387,484.6028,1,0,0.6296,,0,25,25,117,1,pseudoword,0,REAL,FALSA
,,,,,,,,,,001,2024-06-07_12h19.49.243,empathy_intonation_perc,2024.1.4,Win32,60.24096386,,,,,,,,,,,,,,136,sopleó,,,,,,484.6041,485.7679,1,0,0.6253,,0,26,26,135,1,pseudoword,0,REAL,FALSA
,,,,,,,,,,001,2024-06-07_12h19.49.243,empathy_intonation_perc,2024.1.4,Win32,60.24096386,,,,,,,,,,,,,,12,plan,,,,,,485.7692,487.1001,0,1,0.7872,,0,27,27,11,1,three_way_cognate,1,REAL,FALSA
,,,,,,,,,,001,2024-06-07_12h19.49.243,empathy_intonation_perc,2024.1.4,Win32,60.24096386,,,,,,,,,,,,,,50,sierra,,,,,,487.1015,488.5487,0,1,0.9041,,0,28,28,49,1,non_cognate,1,REAL,FALSA
,,,,,,,,,,001,2024-06-07_12h19.49.243,empathy_intonation_perc,2024.1.4,Win32,60.24096386,,,,,,,,,,,,,,19,trauma,,,,,,488.5499,489.7473,1,0,0.6586,,0,29,29,18,1,three_way_cognate,1,REAL,FALSA
,,,,,,,,,,001,2024-06-07_12h19.49.243,empathy_intonation_perc,2024.1.4,Win32,60.24096386,,,,,,,,,,,,,,64,rizado,,,,,,489.7487,491.0794,0,1,0.7837,,0,30,30,63,1,non_cognate,1,REAL,FALSA
,,,,,,,,,,001,2024-06-07_12h19.49.243,empathy_intonation_perc,2024.1.4,Win32,60.24096386,,,,,,,,,,,,,,115,civas,,,,,,491.0814,492.2102,1,0,0.5885,,0,31,31,114,1,pseudoword,0,REAL,FALSA
,,,,,,,,,,001,2024-06-07_12h19.49.243,empathy_intonation_perc,2024.1.4,Win32,60.24096386,,,,,,,,,,,,,,57,regalo,,,,,,492.2107,493.2929,1,0,0.5534,,0,32,32,56,1,non_cognate,1,REAL,FALSA
,,,,,,,,,,001,2024-06-07_12h19.49.243,empathy_intonation_perc,2024.1.4,Win32,60.24096386,,,,,,,,,,,,,,94,forro,,,,,,493.2936,494.3432,1,0,0.5081,,0,33,33,93,1,non_cognate,1,REAL,FALSA
,,,,,,,,,,001,2024-06-07_12h19.49.243,empathy_intonation_perc,2024.1.4,Win32,60.24096386,,,,,,,,,,,,,,63,hilo,,,,,,494.3445,495.6085,1,0,0.7282,,0,34,34,62,1,non_cognate,1,REAL,FALSA
,,,,,,,,,,001,2024-06-07_12h19.49.243,empathy_intonation_perc,2024.1.4,Win32,60.24096386,,,,,,,,,,,,,,80,cuenco,,,,,,495.6099,496.6741,1,0,0.5245,,0,35,35,79,1,non_cognate,1,REAL,FALSA
,,,,,,,,,,001,2024-06-07_12h19.49.243,empathy_intonation_perc,2024.1.4,Win32,60.24096386,,,,,,,,,,,,,,132,nocó,,,,,,496.6759,497.6557,1,0,0.4356,,0,36,36,131,1,pseudoword,0,REAL,FALSA
,,,,,,,,,,001,2024-06-07_12h19.49.243,empathy_intonation_perc,2024.1.4,Win32,60.24096386,,,,,,,,,,,,,,88,percha,,,,,,497.6564,498.8282,1,0,0.6503,,0,37,37,87,1,non_cognate,1,REAL,FALSA
,,,,,,,,,,001,2024-06-07_12h19.49.243,empathy_intonation_perc,2024.1.4,Win32,60.24096386,,,,,,,,,,,,,,83,hálito,,,,,,498.8294,499.8391,1,0,0.4711,,0,38,38,82,1,non_cognate,1,REAL,FALSA
,,,,,,,,,,001,2024-06-07_12h19.49.243,empathy_intonation_perc,2024.1.4,Win32,60.24096386,,,,,,,,,,,,,,103,babes,,,,,,499.8403,501.0039,1,0,0.6284,,0,39,39,102,1,pseudoword,0,REAL,FALSA
,,,,,,,,,,001,2024-06-07_12h19.49.243,empathy_intonation_perc,2024.1.4,Win32,60.24096386,,,,,,,,,,,,,,62,pegar,,,,,,501.0056,502.1863,1,0,0.6366,,0,40,40,61,1,non_cognate,1,REAL,FALSA
,,,,,,,,,,001,2024-06-07_12h19.49.243,empathy_intonation_perc,2024.1.4,Win32,60.24096386,,,,,,,,,,,,,,77,suave,,,,,,502.1879,503.1683,1,0,0.4446,,0,41,41,76,1,non_cognate,1,REAL,FALSA
,,,,,,,,,,001,2024-06-07_12h19.49.243,empathy_intonation_perc,2024.1.4,Win32,60.24096386,,,,,,,,,,,,,,92,flecha,,,,,,503.1699,504.5992,1,0,0.8821,,0,42,42,91,1,non_cognate,1,REAL,FALSA
,,,,,,,,,,001,2024-06-07_12h19.49.243,empathy_intonation_perc,2024.1.4,Win32,60.24096386,,,,,,,,,,,,,,140,vapen,,,,,,504.6002,505.6481,1,0,0.5062,,0,43,43,139,1,pseudoword,0,REAL,FALSA
,,,,,,,,,,001,2024-06-07_12h19.49.243,empathy_intonation_perc,2024.1.4,Win32,60.24096386,,,,,,,,,,,,,,54,tapón,,,,,,505.6487,506.6319,1,0,0.4385,,0,44,44,53,1,non_cognate,1,REAL,FALSA
,,,,,,,,,,001,2024-06-07_12h19.49.243,empathy_intonation_perc,2024.1.4,Win32,60.24096386,,,,,,,,,,,,,,27,piano,,,,,,506.6346,507.9469,0,1,0.7871,,0,45,45,26,1,two_way_cognate,1,REAL,FALSA
,,,,,,,,,,001,2024-06-07_12h19.49.243,empathy_intonation_perc,2024.1.4,Win32,60.24096386,,,,,,,,,,,,,,76,chocar,,,,,,507.9485,509.1858,1,0,0.7002,,0,46,46,75,1,non_cognate,1,REAL,FALSA
,,,,,,,,,,001,2024-06-07_12h19.49.243,empathy_intonation_perc,2024.1.4,Win32,60.24096386,,,,,,,,,,,,,,26,enigma,,,,,,509.1873,510.4135,0,1,0.6965,,0,47,47,25,1,two_way_cognate,1,REAL,FALSA
,,,,,,,,,,001,2024-06-07_12h19.49.243,empathy_intonation_perc,2024.1.4,Win32,60.24096386,,,,,,,,,,,,,,120,hierno,,,,,,510.4157,511.6591,1,0,0.7096,,0,48,48,119,1,pseudoword,0,REAL,FALSA
,,,,,,,,,,001,2024-06-07_12h19.49.243,empathy_intonation_perc,2024.1.4,Win32,60.24096386,,,,,,,,,,,,,,34,actor,,,,,,511.6596,512.8424,0,1,0.6435,,0,49,49,33,1,two_way_cognate,1,REAL,FALSA
,,,,,,,,,,001,2024-06-07_12h19.49.243,empathy_intonation_perc,2024.1.4,Win32,60.24096386,,,,,,,,,,,,,,104,vitra,,,,,,512.8436,513.9248,1,0,0.5378,,0,50,50,103,1,pseudoword,0,REAL,FALSA
,,,,,,,,,,001,2024-06-07_12h19.49.243,empathy_intonation_perc,2024.1.4,Win32,60.24096386,,,,,,,,,,,,,,38,halo,,,,,,513.9262,515.1238,1,0,0.6541,,0,51,51,37,1,two_way_cognate,1,REAL,FALSA
,,,,,,,,,,001,2024-06-07_12h19.49.243,empathy_intonation_perc,2024.1.4,Win32,60.24096386,,,,,,,,,,,,,,31,civil,,,,,,515.125,516.3727,0,1,0.7047,,0,52,52,30,1,two_way_cognate,1,REAL,FALSA
,,,,,,,,,,001,2024-06-07_12h19.49.243,empathy_intonation_perc,2024.1.4,Win32,60.24096386,,,,,,,,,,,,,,135,macayó,,,,,,516.3747,517.5252,1,0,0.6168,,0,53,53,134,1,pseudoword,0,REAL,FALSA
,,,,,,,,,,001,2024-06-07_12h19.49.243,empathy_intonation_perc,2024.1.4,Win32,60.24096386,,,,,,,,,,,,,,112,cituló,,,,,,517.5257,519.0703,1,0,1.0039,,0,54,54,111,1,pseudoword,0,REAL,FALSA
,,,,,,,,,,001,2024-06-07_12h19.49.243,empathy_intonation_perc,2024.1.4,Win32,60.24096386,,,,,,,,,,,,,,74,ala,,,,,,519.0716,522.2172,1,0,2.6027,,0,55,55,73,1,non_cognate,1,REAL,FALSA
,,,,,,,,,,001,2024-06-07_12h19.49.243,empathy_intonation_perc,2024.1.4,Win32,60.24096386,,,,,,,,,,,,,,67,llamar,,,,,,522.2542,523.9822,1,0,1.1913,,0,56,56,66,1,non_cognate,1,REAL,FALSA
,,,,,,,,,,001,2024-06-07_12h19.49.243,empathy_intonation_perc,2024.1.4,Win32,60.24096386,,,,,,,,,,,,,,73,llevar,,,,,,523.9832,525.6808,0,1,1.1583,,0,57,57,72,1,non_cognate,1,REAL,FALSA
,,,,,,,,,,001,2024-06-07_12h19.49.243,empathy_intonation_perc,2024.1.4,Win32,60.24096386,,,,,,,,,,,,,,53,punta,,,,,,525.6825,531.1274,1,0,4.9204,,0,58,58,52,1,non_cognate,1,REAL,FALSA
,,,,,,,,,,001,2024-06-07_12h19.49.243,empathy_intonation_perc,2024.1.4,Win32,60.24096386,,,,,,,,,,,,,,84,aviso,,,,,,531.1731,532.9907,1,0,1.3088,,0,59,59,83,1,non_cognate,1,REAL,FALSA
,,,,,,,,,,001,2024-06-07_12h19.49.243,empathy_intonation_perc,2024.1.4,Win32,60.24096386,,,,,,,,,,,,,,28,ardor,,,,,,532.9923,534.1557,1,0,0.6262,,0,60,60,27,1,two_way_cognate,1,REAL,FALSA
,,,,,,,,,,001,2024-06-07_12h19.49.243,empathy_intonation_perc,2024.1.4,Win32,60.24096386,,,,,,,,,,,,,,9,drama,,,,,,534.1569,535.62,0,1,0.9287,,0,61,61,8,1,three_way_cognate,1,REAL,FALSA
,,,,,,,,,,001,2024-06-07_12h19.49.243,empathy_intonation_perc,2024.1.4,Win32,60.24096386,,,,,,,,,,,,,,125,ceme,,,,,,535.6206,536.8369,1,0,0.7007,,0,62,62,124,1,pseudoword,0,REAL,FALSA
,,,,,,,,,,001,2024-06-07_12h19.49.243,empathy_intonation_perc,2024.1.4,Win32,60.24096386,,,,,,,,,,,,,,71,torta,,,,,,536.8381,538.0177,1,0,0.6438,,0,63,63,70,1,non_cognate,1,REAL,FALSA
,,,,,,,,,,001,2024-06-07_12h19.49.243,empathy_intonation_perc,2024.1.4,Win32,60.24096386,,,,,,,,,,,,,,79,suelo,,,,,,538.018,539.0181,1,0,0.4786,,0,64,64,78,1,non_cognate,1,REAL,FALSA
,,,,,,,,,,001,2024-06-07_12h19.49.243,empathy_intonation_perc,2024.1.4,Win32,60.24096386,,,,,,,,,,,,,,108,viarle,,,,,,539.0193,540.1006,1,0,0.5415,,0,65,65,107,1,pseudoword,0,REAL,FALSA
,,,,,,,,,,001,2024-06-07_12h19.49.243,empathy_intonation_perc,2024.1.4,Win32,60.24096386,,,,,,,,,,,,,,114,potos,,,,,,540.1018,541.168,1,0,0.5353,,0,66,66,113,1,pseudoword,0,REAL,FALSA
,,,,,,,,,,001,2024-06-07_12h19.49.243,empathy_intonation_perc,2024.1.4,Win32,60.24096386,,,,,,,,,,,,,,47,color,,,,,,541.1693,542.315,0,1,0.6226,,0,67,67,46,1,two_way_cognate,1,REAL,FALSA
,,,,,,,,,,001,2024-06-07_12h19.49.243,empathy_intonation_perc,2024.1.4,Win32,60.24096386,,,,,,,,,,,,,,87,muleta,,,,,,542.3165,543.797,0,1,0.9461,,0,68,68,86,1,non_cognate,1,REAL,FALSA
,,,,,,,,,,001,2024-06-07_12h19.49.243,empathy_intonation_perc,2024.1.4,Win32,60.24096386,,,,,,,,,,,,,,117,apunan,,,,,,543.7982,544.7795,1,0,0.4429,,0,69,69,116,1,pseudoword,0,REAL,FALSA
,,,,,,,,,,001,2024-06-07_12h19.49.243,empathy_intonation_perc,2024.1.4,Win32,60.24096386,,,,,,,,,,,,,,40,pelvis,,,,,,544.7808,546.1951,0,1,0.8773,,0,70,70,39,1,two_way_cognate,1,REAL,FALSA
,,,,,,,,,,001,2024-06-07_12h19.49.243,empathy_intonation_perc,2024.1.4,Win32,60.24096386,,,,,,,,,,,,,,29,clamor,,,,,,546.1967,547.2423,1,0,0.5125,,0,71,71,28,1,two_way_cognate,1,REAL,FALSA
,,,,,,,,,,001,2024-06-07_12h19.49.243,empathy_intonation_perc,2024.1.4,Win32,60.24096386,,,,,,,,,,,,,,98,erede,,,,,,547.2425,548.3255,0,1,0.5704,,0,72,72,97,1,pseudoword,0,REAL,FALSA
,,,,,,,,,,001,2024-06-07_12h19.49.243,empathy_intonation_perc,2024.1.4,Win32,60.24096386,,,,,,,,,,,,,,23,porno,,,,,,548.3264,555.919,1,0,7.0627,,0,73,73,22,1,three_way_cognate,1,REAL,FALSA
,,,,,,,,,,001,2024-06-07_12h19.49.243,empathy_intonation_perc,2024.1.4,Win32,60.24096386,,,,,,,,,,,,,,14,test,,,,,,555.9581,565.6266,0,1,9.1445,,0,74,74,13,1,three_way_cognate,1,REAL,FALSA
,,,,,,,,,,001,2024-06-07_12h19.49.243,empathy_intonation_perc,2024.1.4,Win32,60.24096386,,,,,,,,,,,,,,17,altar,,,,,,565.6622,567.4912,0,1,1.3063,,0,75,75,16,1,three_way_cognate,1,REAL,FALSA
,,,,,,,,,,001,2024-06-07_12h19.49.243,empathy_intonation_perc,2024.1.4,Win32,60.24096386,,,,,,,,,,,,,,51,listo,,,,,,567.4926,569.2561,1,0,1.2239,,0,76,76,50,1,non_cognate,1,REAL,FALSA
,,,,,,,,,,001,2024-06-07_12h19.49.243,empathy_intonation_perc,2024.1.4,Win32,60.24096386,,,,,,,,,,,,,,4,extra,,,,,,569.2572,570.4386,0,1,0.6407,,0,77,77,3,1,three_way_cognate,1,REAL,FALSA
,,,,,,,,,,001,2024-06-07_12h19.49.243,empathy_intonation_perc,2024.1.4,Win32,60.24096386,,,,,,,,,,,,,,81,sacar,,,,,,570.4396,571.7218,1,0,0.7518,,0,78,78,80,1,non_cognate,1,REAL,FALSA
,,,,,,,,,,001,2024-06-07_12h19.49.243,empathy_intonation_perc,2024.1.4,Win32,60.24096386,,,,,,,,,,,,,,2,disco,,,,,,571.7234,572.9032,1,0,0.6477,,0,79,79,1,1,three_way_cognate,1,REAL,FALSA
,,,,,,,,,,001,2024-06-07_12h19.49.243,empathy_intonation_perc,2024.1.4,Win32,60.24096386,,,,,,,,,,,,,,85,enorme,,,,,,572.9046,574.0357,0,1,0.5951,,0,80,80,84,1,non_cognate,1,REAL,FALSA
,,,,,,,,,,001,2024-06-07_12h19.49.243,empathy_intonation_perc,2024.1.4,Win32,60.24096386,,,,,,,,,,,,,,131,fuar,,,,,,574.0369,575.3342,1,0,0.7605,,0,81,81,130,1,pseudoword,0,REAL,FALSA
,,,,,,,,,,001,2024-06-07_12h19.49.243,empathy_intonation_perc,2024.1.4,Win32,60.24096386,,,,,,,,,,,,,,129,suchas,,,,,,575.3355,576.5659,1,0,0.6941,,0,82,82,128,1,pseudoword,0,REAL,FALSA
,,,,,,,,,,001,2024-06-07_12h19.49.243,empathy_intonation_perc,2024.1.4,Win32,60.24096386,,,,,,,,,,,,,,111,vibler,,,,,,576.5669,577.7485,1,0,0.6544,,0,83,83,110,1,pseudoword,0,REAL,FALSA
,,,,,,,,,,001,2024-06-07_12h19.49.243,empathy_intonation_perc,2024.1.4,Win32,60.24096386,,,,,,,,,,,,,,97,hufón,,,,,,577.7501,578.8973,1,0,0.6078,,0,84,84,96,1,pseudoword,0,REAL,FALSA
,,,,,,,,,,001,2024-06-07_12h19.49.243,empathy_intonation_perc,2024.1.4,Win32,60.24096386,,,,,,,,,,,,,,41,pasta,,,,,,578.8983,580.2948,0,1,0.8659,,0,85,85,40,1,two_way_cognate,1,REAL,FALSA
,,,,,,,,,,001,2024-06-07_12h19.49.243,empathy_intonation_perc,2024.1.4,Win32,60.24096386,,,,,,,,,,,,,,109,hágino,,,,,,580.2952,581.3783,1,0,0.5529,,0,86,86,108,1,pseudoword,0,REAL,FALSA
,,,,,,,,,,001,2024-06-07_12h19.49.243,empathy_intonation_perc,2024.1.4,Win32,60.24096386,,,,,,,,,,,,,,37,torso,,,,,,581.3803,582.5438,1,0,0.6262,,0,87,87,36,1,two_way_cognate,1,REAL,FALSA
,,,,,,,,,,001,2024-06-07_12h19.49.243,empathy_intonation_perc,2024.1.4,Win32,60.24096386,,,,,,,,,,,,,,113,difrás,,,,,,582.5452,585.8744,1,0,2.79,,0,88,88,112,1,pseudoword,0,REAL,FALSA
,,,,,,,,,,001,2024-06-07_12h19.49.243,empathy_intonation_perc,2024.1.4,Win32,60.24096386,,,,,,,,,,,,,,124,lobe,,,,,,585.9094,588.1887,1,0,1.7455,,0,89,89,123,1,pseudoword,0,REAL,FALSA
,,,,,,,,,,001,2024-06-07_12h19.49.243,empathy_intonation_perc,2024.1.4,Win32,60.24096386,,,,,,,,,,,,,,102,coyo,,,,,,588.1907,600.5933,1,0,11.8675,,0,90,90,101,1,pseudoword,0,REAL,FALSA
,,,,,,,,,,001,2024-06-07_12h19.49.243,empathy_intonation_perc,2024.1.4,Win32,60.24096386,,,,,,,,,,,,,,127,vien,,,,,,600.6192,601.6597,1,0,0.5049,,0,91,91,126,1,pseudoword,0,REAL,FALSA
,,,,,,,,,,001,2024-06-07_12h19.49.243,empathy_intonation_perc,2024.1.4,Win32,60.24096386,,,,,,,,,,,,,,48,pelvis,,,,,,601.6614,602.7085,1,0,0.504,,0,92,92,47,1,two_way_cognate,1,REAL,FALSA
,,,,,,,,,,001,2024-06-07_12h19.49.243,empathy_intonation_perc,2024.1.4,Win32,60.24096386,,,,,,,,,,,,,,101,fertes,,,,,,602.7097,603.8396,1,0,0.5826,,0,93,93,100,1,pseudoword,0,REAL,FALSA
,,,,,,,,,,001,2024-06-07_12h19.49.243,empathy_intonation_perc,2024.1.4,Win32,60.24096386,,,,,,,,,,,,,,60,siglo,,,,,,603.8403,605.3061,1,0,0.9241,,0,94,94,59,1,non_cognate,1,REAL,FALSA
,,,,,,,,,,001,2024-06-07_12h19.49.243,empathy_intonation_perc,2024.1.4,Win32,60.24096386,,,,,,,,,,,,,,59,feo,,,,,,605.3073,608.3519,1,0,2.5054,,0,95,95,58,1,non_cognate,1,REAL,FALSA
,,,,,,,,,,001,2024-06-07_12h19.49.243,empathy_intonation_perc,2024.1.4,Win32,60.24096386,,,,,,,,,,,,,,95,listo,,,,,,608.3523,609.451,1,0,0.5673,,0,96,96,94,1,non_cognate,1,REAL,FALSA
,,,,,,,,,,001,2024-06-07_12h19.49.243,empathy_intonation_perc,2024.1.4,Win32,60.24096386,,,,,,,,,,,,,,25,vigor,,,,,,609.4513,610.5014,1,0,0.5181,,0,97,97,24,1,two_way_cognate,1,REAL,FALSA
,,,,,,,,,,001,2024-06-07_12h19.49.243,empathy_intonation_perc,2024.1.4,Win32,60.24096386,,,,,,,,,,,,,,141,sumer,,,,,,610.5025,611.9166,1,0,0.8701,,0,98,98,140,1,pseudoword,0,REAL,FALSA
,,,,,,,,,,001,2024-06-07_12h19.49.243,empathy_intonation_perc,2024.1.4,Win32,60.24096386,,,,,,,,,,,,,,123,escare,,,,,,611.9178,613.1827,1,0,0.7281,,0,99,99,122,1,pseudoword,0,REAL,FALSA
,,,,,,,,,,001,2024-06-07_12h19.49.243,empathy_intonation_perc,2024.1.4,Win32,60.24096386,,,,,,,,,,,,,,126,anicio,,,,,,613.1849,614.1813,1,0,0.4561,,0,100,100,125,1,pseudoword,0,REAL,FALSA
,,,,,,,,,,001,2024-06-07_12h19.49.243,empathy_intonation_perc,2024.1.4,Win32,60.24096386,,,,,,,,,,,,,,58,colcha,,,,,,614.1826,615.2802,1,0,0.554,,0,101,101,57,1,non_cognate,1,REAL,FALSA
,,,,,,,,,,001,2024-06-07_12h19.49.243,empathy_intonation_perc,2024.1.4,Win32,60.24096386,,,,,,,,,,,,,,32,animal,,,,,,615.2821,616.5018,0,1,0.6839,,0,102,102,31,1,two_way_cognate,1,REAL,FALSA
,,,,,,,,,,001,2024-06-07_12h19.49.243,empathy_intonation_perc,2024.1.4,Win32,60.24096386,,,,,,,,,,,,,,110,vacapó,,,,,,616.503,617.6614,1,0,0.6235,,0,103,103,109,1,pseudoword,0,REAL,FALSA
,,,,,,,,,,001,2024-06-07_12h19.49.243,empathy_intonation_perc,2024.1.4,Win32,60.24096386,,,,,,,,,,,,,,139,furbos,,,,,,617.6639,618.7767,1,0,0.575,,0,104,104,138,1,pseudoword,0,REAL,FALSA
,,,,,,,,,,001,2024-06-07_12h19.49.243,empathy_intonation_perc,2024.1.4,Win32,60.24096386,,,,,,,,,,,,,,142,viseña,,,,,,618.7788,619.8117,1,0,0.496,,0,105,105,141,1,pseudoword,0,REAL,FALSA
,,,,,,,,,,001,2024-06-07_12h19.49.243,empathy_intonation_perc,2024.1.4,Win32,60.24096386,,,,,,,,,,,,,,30,fiscal,,,,,,619.8129,621.1082,0,1,0.7535,,0,106,106,29,1,two_way_cognate,1,REAL,FALSA
,,,,,,,,,,001,2024-06-07_12h19.49.243,empathy_intonation_perc,2024.1.4,Win32,60.24096386,,,,,,,,,,,,,,46,mortal,,,,,,621.1099,622.5401,0,1,0.8882,,0,107,107,45,1,two_way_cognate,1,REAL,FALSA
,,,,,,,,,,001,2024-06-07_12h19.49.243,empathy_intonation_perc,2024.1.4,Win32,60.24096386,,,,,,,,,,,,,,90,venado,,,,,,622.5422,623.839,1,0,0.7575,,0,108,108,89,1,non_cognate,1,REAL,FALSA
,,,,,,,,,,001,2024-06-07_12h19.49.243,empathy_intonation_perc,2024.1.4,Win32,60.24096386,,,,,,,,,,,,,,121,rombar,,,,,,623.8401,625.0441,1,0,0.6675,,0,109,109,120,1,pseudoword,0,REAL,FALSA
,,,,,,,,,,001,2024-06-07_12h19.49.243,empathy_intonation_perc,2024.1.4,Win32,60.24096386,,,,,,,,,,,,,,61,aduana,,,,,,625.0454,626.0868,1,0,0.5098,,0,110,110,60,1,non_cognate,1,REAL,FALSA
,,,,,,,,,,001,2024-06-07_12h19.49.243,empathy_intonation_perc,2024.1.4,Win32,60.24096386,,,,,,,,,,,,,,134,fruzas,,,,,,626.0881,627.186,1,0,0.5567,,0,111,111,133,1,pseudoword,0,REAL,FALSA
,,,,,,,,,,001,2024-06-07_12h19.49.243,empathy_intonation_perc,2024.1.4,Win32,60.24096386,,,,,,,,,,,,,,100,medón,,,,,,627.1872,629.2323,1,0,1.5086,,0,112,112,99,1,pseudoword,0,REAL,FALSA
,,,,,,,,,,001,2024-06-07_12h19.49.243,empathy_intonation_perc,2024.1.4,Win32,60.24096386,,,,,,,,,,,,,,7,kilo,,,,,,629.2328,630.6977,0,1,0.934,,0,113,113,6,1,three_way_cognate,1,REAL,FALSA
,,,,,,,,,,001,2024-06-07_12h19.49.243,empathy_intonation_perc,2024.1.4,Win32,60.24096386,,,,,,,,,,,,,,20,hotel,,,,,,630.6983,631.7134,1,0,0.4827,,0,114,114,19,1,three_way_cognate,1,REAL,FALSA
,,,,,,,,,,001,2024-06-07_12h19.49.243,empathy_intonation_perc,2024.1.4,Win32,60.24096386,,,,,,,,,,,,,,55,maldad,,,,,,631.7139,632.8531,1,0,0.6182,,0,115,115,54,1,non_cognate,1,REAL,FALSA
,,,,,,,,,,001,2024-06-07_12h19.49.243,empathy_intonation_perc,2024.1.4,Win32,60.24096386,,,,,,,,,,,,,,10,golf,,,,,,632.8543,638.6756,0,1,5.2896,,0,116,116,9,1,three_way_cognate,1,REAL,FALSA
,,,,,,,,,,001,2024-06-07_12h19.49.243,empathy_intonation_perc,2024.1.4,Win32,60.24096386,,,,,,,,,,,,,,106,baurá,,,,,,638.7226,639.824,1,0,0.5755,,0,117,117,105,1,pseudoword,0,REAL,FALSA
,,,,,,,,,,001,2024-06-07_12h19.49.243,empathy_intonation_perc,2024.1.4,Win32,60.24096386,,,,,,,,,,,,,,86,cuenco,,,,,,639.8252,642.4051,1,0,2.0471,,0,118,118,85,1,non_cognate,1,REAL,FALSA
,,,,,,,,,,001,2024-06-07_12h19.49.243,empathy_intonation_perc,2024.1.4,Win32,60.24096386,,,,,,,,,,,,,,119,esís,,,,,,642.4064,644.9524,1,0,2.0178,,0,119,119,118,1,pseudoword,0,REAL,FALSA
,,,,,,,,,,001,2024-06-07_12h19.49.243,empathy_intonation_perc,2024.1.4,Win32,60.24096386,,,,,,,,,,,,,,70,ánimo,,,,,,644.9886,645.9681,1,0,0.4459,,0,120,120,69,1,non_cognate,1,REAL,FALSA
,,,,,,,,,,001,2024-06-07_12h19.49.243,empathy_intonation_perc,2024.1.4,Win32,60.24096386,,,,,,,,,,,,,,15,chat,,,,,,645.9693,648.6491,0,1,2.1396,,0,121,121,14,1,three_way_cognate,1,REAL,FALSA
,,,,,,,,,,001,2024-06-07_12h19.49.243,empathy_intonation_perc,2024.1.4,Win32,60.24096386,,,,,,,,,,,,,,82,brillo,,,,,,648.6505,649.9481,1,0,0.7542,,0,122,122,81,1,non_cognate,1,REAL,FALSA
,,,,,,,,,,001,2024-06-07_12h19.49.243,empathy_intonation_perc,2024.1.4,Win32,60.24096386,,,,,,,,,,,,,,11,dogma,,,,,,649.9499,653.8265,1,0,3.3361,,0,123,123,10,1,three_way_cognate,1,REAL,FALSA
,,,,,,,,,,001,2024-06-07_12h19.49.243,empathy_intonation_perc,2024.1.4,Win32,60.24096386,,,,,,,,,,,,,,43,honor,,,,,,653.8475,655.0325,0,1,0.651,,0,124,124,42,1,two_way_cognate,1,REAL,FALSA
,,,,,,,,,,001,2024-06-07_12h19.49.243,empathy_intonation_perc,2024.1.4,Win32,60.24096386,,,,,,,,,,,,,,65,guerra,,,,,,655.0339,675.6932,1,0,20.1224,,0,125,125,64,1,non_cognate,1,REAL,FALSA
,,,,,,,,,,001,2024-06-07_12h19.49.243,empathy_intonation_perc,2024.1.4,Win32,60.24096386,,,,,,,,,,,,,,99,mieris,,,,,,675.6943,676.7736,1,0,0.5429,,0,126,126,98,1,pseudoword,0,REAL,FALSA
,,,,,,,,,,001,2024-06-07_12h19.49.243,empathy_intonation_perc,2024.1.4,Win32,60.24096386,,,,,,,,,,,,,,133,tirafa,,,,,,676.7752,677.7891,1,0,0.4748,,0,127,127,132,1,pseudoword,0,REAL,FALSA
,,,,,,,,,,001,2024-06-07_12h19.49.243,empathy_intonation_perc,2024.1.4,Win32,60.24096386,,,,,,,,,,,,,,13,aura,,,,,,677.7902,679.005,1,0,0.6816,,0,128,128,12,1,three_way_cognate,1,REAL,FALSA
,,,,,,,,,,001,2024-06-07_12h19.49.243,empathy_intonation_perc,2024.1.4,Win32,60.24096386,,,,,,,,,,,,,,22,plural,,,,,,679.0065,680.4194,0,1,0.8849,,0,129,129,21,1,three_way_cognate,1,REAL,FALSA
,,,,,,,,,,001,2024-06-07_12h19.49.243,empathy_intonation_perc,2024.1.4,Win32,60.24096386,,,,,,,,,,,,,,107,plamos,,,,,,680.4205,681.5523,1,0,0.5957,,0,130,130,106,1,pseudoword,0,REAL,FALSA
,,,,,,,,,,001,2024-06-07_12h19.49.243,empathy_intonation_perc,2024.1.4,Win32,60.24096386,,,,,,,,,,,,,,96,caro,,,,,,681.5534,684.3012,1,0,2.2167,,0,131,131,95,1,non_cognate,1,REAL,FALSA
,,,,,,,,,,001,2024-06-07_12h19.49.243,empathy_intonation_perc,2024.1.4,Win32,60.24096386,,,,,,,,,,,,,,8,portal,,,,,,684.3027,685.996,0,1,1.1719,,0,132,132,7,1,three_way_cognate,1,REAL,FALSA
,,,,,,,,,,001,2024-06-07_12h19.49.243,empathy_intonation_perc,2024.1.4,Win32,60.24096386,,,,,,,,,,,,,,6,albino,,,,,,685.9963,688.3956,0,1,1.8798,,0,133,133,5,1,three_way_cognate,1,REAL,FALSA
,,,,,,,,,,001,2024-06-07_12h19.49.243,empathy_intonation_perc,2024.1.4,Win32,60.24096386,,,,,,,,,,,,,,122,gravés,,,,,,688.3976,689.7941,1,0,0.8575,,0,134,134,121,1,pseudoword,0,REAL,FALSA
,,,,,,,,,,001,2024-06-07_12h19.49.243,empathy_intonation_perc,2024.1.4,Win32,60.24096386,,,,,,,,,,,,,,44,editor,,,,,,689.7957,691.5593,0,1,1.2366,,0,135,135,43,1,two_way_cognate,1,REAL,FALSA
,,,,,,,,,,001,2024-06-07_12h19.49.243,empathy_intonation_perc,2024.1.4,Win32,60.24096386,,,,,,,,,,,,,,21,mango,,,,,,691.5607,693.0753,0,1,0.9853,,0,136,136,20,1,three_way_cognate,1,REAL,FALSA
,,,,,,,,,,001,2024-06-07_12h19.49.243,empathy_intonation_perc,2024.1.4,Win32,60.24096386,,,,,,,,,,,,,,69,tiza,,,,,,693.077,694.3218,1,0,0.7232,,0,137,137,68,1,non_cognate,1,REAL,FALSA
,,,,,,,,,,001,2024-06-07_12h19.49.243,empathy_intonation_perc,2024.1.4,Win32,60.24096386,,,,,,,,,,,,,,24,retina,,,,,,694.3221,695.7552,1,0,0.9107,,0,138,138,23,1,three_way_cognate,1,REAL,FALSA
,,,,,,,,,,001,2024-06-07_12h19.49.243,empathy_intonation_perc,2024.1.4,Win32,60.24096386,,,,,,,,,,,,,,105,curgué,,,,,,695.7565,697.4203,1,0,1.1266,,0,139,139,104,1,pseudoword,0,REAL,FALSA
,,,,,,,,,,001,2024-06-07_12h19.49.243,empathy_intonation_perc,2024.1.4,Win32,60.24096386,,,,,,,,,,,,,,52,blando,,,,,,697.4218,698.6866,1,0,0.7286,,0,140,140,51,1,non_cognate,1,REAL,FALSA
,,,,,,,,,,001,2024-06-07_12h19.49.243,empathy_intonation_perc,2024.1.4,Win32,60.24096386,,,,,,,,,,,,,,137,unglés,,,,,,698.6885,699.9699,1,0,0.7508,,0,141,141,136,1,pseudoword,0,REAL,FALSA
,,,,,,,,,,001,2024-06-07_12h19.49.243,empathy_intonation_perc,2024.1.4,Win32,60.24096386,,,,,,,,,,,,,,144,piria,,,,,,699.9712,701.2155,1,0,0.7127,,0,142,142,143,1,pseudoword,0,REAL,FALSA
,,,,,,,,,,001,2024-06-07_12h19.49.243,empathy_intonation_perc,2024.1.4,Win32,60.24096386,,,,,,,,,,,,,,56,pico,,,,,,701.2159,702.3991,1,0,0.6613,,0,143,143,55,1,non_cognate,1,REAL,FALSA
