lextale_instructions.started,lextale_instructions.stopped,lextale_instructions_loop.thisRepN,lextale_instructions_loop.thisTrialN,lextale_instructions_loop.thisN,lextale_instructions_loop.thisIndex,lextale_instructions_loop.ran,instructions_text,continue_text,participant,session,date,expName,psychopyVersion,OS,frameRate,lextale_practice.started,lextale_practice.stopped,key_resp_lextale_practice.keys,key_resp_lextale_practice.corr,key_resp_lextale_practice.rt,key_resp_lextale_practice.duration,lextale_practice_feedback.started,lextale_practice_feedback.stopped,lextale_practice_trials.thisRepN,lextale_practice_trials.thisTrialN,lextale_practice_trials.thisN,lextale_practice_trials.thisIndex,lextale_practice_trials.ran,stim,word,correct_response,prac_button_real,prac_button_false,lextale_check.started,lextale_check.stopped,lextale_trial.started,lextale_trial.stopped,key_resp_lextale_trial.keys,key_resp_lextale_trial.corr,key_resp_lextale_trial.rt,key_resp_lextale_trial.duration,lextail_trials.thisRepN,lextail_trials.thisTrialN,lextail_trials.thisN,lextail_trials.thisIndex,lextail_trials.ran,type,correct_reponse,button_real,button_false
0.00618,4.21537,0,0,0,0,1,"Este es un test de vocabulario en español. 
  
  A continuación vas a ver 90 secuencias de letras que parecen 'españolas'.
  
  Solo algunas de ellas son palabras de verdad.",(presiona la barra espaciadora para continuar),,001,2024-06-03_08h39.11.874,empathy_intonation_perc,2024.1.4,Win32,60.0024001,,,,,,,,,,,,,,,,,,,,,,,,,,,,,,,,,,,
4.21591,8.197525,0,1,1,1,1,"Por favor, señala las palabras que tú conoces (aquellas que estás convencido que son palabras españolas, incluso aunque no seas capaz de dar el significado preciso).",(presiona la barra espaciadora para continuar),,001,2024-06-03_08h39.11.874,empathy_intonation_perc,2024.1.4,Win32,60.0024001,,,,,,,,,,,,,,,,,,,,,,,,,,,,,,,,,,,
8.19782,11.3805,0,2,2,2,1,Pero cuidado: los errores se penalizan. Por eso no tiene sentido tratar de incrementar tu puntuación marcando como reales palabras que nunca has visto.,(presiona la barra espaciadora para continuar),,001,2024-06-03_08h39.11.874,empathy_intonation_perc,2024.1.4,Win32,60.0024001,,,,,,,,,,,,,,,,,,,,,,,,,,,,,,,,,,,
11.38078,14.782165,0,3,3,3,1,"Presiona la tecla 1 si piensas que es una palabra real y la tecla 
  0 si piensas que es una palabra falsa. 
  
  Vamos a practicar un poco...",(presiona la barra espaciadora para continuar),,001,2024-06-03_08h39.11.874,empathy_intonation_perc,2024.1.4,Win32,60.0024001,,,,,,,,,,,,,,,,,,,,,,,,,,,,,,,,,,,
,,,,,,,,,,001,2024-06-03_08h39.11.874,empathy_intonation_perc,2024.1.4,Win32,60.0024001,14.784235,20.923175,1,0,5.631795,,20.92334,21.923795,0,0,0,0,1,0,depiste,0,REAL,FALSA,,,,,,,,,,,,,,,,,
,,,,,,,,,,001,2024-06-03_08h39.11.874,empathy_intonation_perc,2024.1.4,Win32,60.0024001,21.924135,25.190135,1,1,2.736815,,25.19018,26.179905,0,1,1,1,1,0,sí,1,REAL,FALSA,,,,,,,,,,,,,,,,,
,,,,,,,,,,001,2024-06-03_08h39.11.874,empathy_intonation_perc,2024.1.4,Win32,60.0024001,26.18018,28.24085,1,0,1.52773,,28.240915,29.229615,0,2,2,2,1,0,coné,0,REAL,FALSA,,,,,,,,,,,,,,,,,
,,,,,,,,,,001,2024-06-03_08h39.11.874,empathy_intonation_perc,2024.1.4,Win32,60.0024001,29.22987,31.37284,1,0,1.589495,,31.37289,32.36289,0,3,3,3,1,0,calpar,0,REAL,FALSA,,,,,,,,,,,,,,,,,
,,,,,,,,,,001,2024-06-03_08h39.11.874,empathy_intonation_perc,2024.1.4,Win32,60.0024001,32.363155,33.7461,1,0,0.855245,,33.74614,34.740015,0,4,4,4,1,0,joten,0,REAL,FALSA,,,,,,,,,,,,,,,,,
,,,,,,,,,,001,2024-06-03_08h39.11.874,empathy_intonation_perc,2024.1.4,Win32,60.0024001,34.74026,36.581725,1,1,1.314995,,36.581755,37.555085,0,5,5,5,1,0,sacapuntas,1,REAL,FALSA,,,,,,,,,,,,,,,,,
,,,,,,,,,,001,2024-06-03_08h39.11.874,empathy_intonation_perc,2024.1.4,Win32,60.0024001,37.555345,39.36289,0,1,1.27419,,39.362925,40.35415,0,6,6,6,1,0,priba,0,REAL,FALSA,,,,,,,,,,,,,,,,,
,,,,,,,,,,001,2024-06-03_08h39.11.874,empathy_intonation_perc,2024.1.4,Win32,60.0024001,40.35441,41.90598,1,0,1.03503,,41.906015,42.907335,0,7,7,7,1,0,pelasula,0,REAL,FALSA,,,,,,,,,,,,,,,,,
,,,,,,,,,,001,2024-06-03_08h39.11.874,empathy_intonation_perc,2024.1.4,Win32,60.0024001,42.907585,44.657665,1,1,1.22199,,44.6577,45.620975,0,8,8,8,1,0,bien,1,REAL,FALSA,,,,,,,,,,,,,,,,,
,,,,,,,,,,001,2024-06-03_08h39.11.874,empathy_intonation_perc,2024.1.4,Win32,60.0024001,45.621245,47.24749,1,1,1.08546,,47.247525,48.222655,0,9,9,9,1,0,casa,1,REAL,FALSA,,,,,,,,,,,,,,,,,
,,,,,,,,,,001,2024-06-03_08h39.11.874,empathy_intonation_perc,2024.1.4,Win32,60.0024001,48.222915,49.923405,0,1,1.175605,,49.92343,50.88805,0,10,10,10,1,0,lejo,0,REAL,FALSA,,,,,,,,,,,,,,,,,
,,,,,,,,,,001,2024-06-03_08h39.11.874,empathy_intonation_perc,2024.1.4,Win32,60.0024001,50.888315,52.304635,0,1,0.90135,,52.304665,53.29523,0,11,11,11,1,0,pretantas,0,REAL,FALSA,,,,,,,,,,,,,,,,,
,,,,,,,,,,001,2024-06-03_08h39.11.874,empathy_intonation_perc,2024.1.4,Win32,60.0024001,,,,,,,,,,,,,,,,,,,53.29543,55.2234,,,,,,,,,,,,,,,
,,,,,,,,,,001,2024-06-03_08h39.11.874,empathy_intonation_perc,2024.1.4,Win32,60.0024001,,,,,,,,,,,,,,37,delito,,,,,,55.22931,57.01312,0,1,1.25483,,0,0,0,36,1,non_cognate,1,REAL,FALSA
,,,,,,,,,,001,2024-06-03_08h39.11.874,empathy_intonation_perc,2024.1.4,Win32,60.0024001,,,,,,,,,,,,,,90,duyo,,,,,,57.01348,58.813555,0,1,1.253315,,0,1,1,89,1,pseudoword,0,REAL,FALSA
,,,,,,,,,,001,2024-06-03_08h39.11.874,empathy_intonation_perc,2024.1.4,Win32,60.0024001,,,,,,,,,,,,,,6,horror,,,,,,58.81385,60.64619,1,0,1.3195,,0,2,2,5,1,three_way_cognate,1,REAL,FALSA
,,,,,,,,,,001,2024-06-03_08h39.11.874,empathy_intonation_perc,2024.1.4,Win32,60.0024001,,,,,,,,,,,,,,39,pista,,,,,,60.64647,62.33073,1,0,1.16495,,0,3,3,38,1,non_cognate,1,REAL,FALSA
,,,,,,,,,,001,2024-06-03_08h39.11.874,empathy_intonation_perc,2024.1.4,Win32,60.0024001,,,,,,,,,,,,,,91,chote,,,,,,62.33099,64.056565,1,0,1.194945,,0,4,4,90,1,pseudoword,0,REAL,FALSA
,,,,,,,,,,001,2024-06-03_08h39.11.874,empathy_intonation_perc,2024.1.4,Win32,60.0024001,,,,,,,,,,,,,,18,honor,,,,,,64.05684,66.495905,1,0,1.90276,,0,5,5,17,1,two_way_cognate,1,REAL,FALSA
,,,,,,,,,,001,2024-06-03_08h39.11.874,empathy_intonation_perc,2024.1.4,Win32,60.0024001,,,,,,,,,,,,,,3,bingo,,,,,,66.496155,68.48776,1,0,1.460245,,0,6,6,2,1,three_way_cognate,1,REAL,FALSA
,,,,,,,,,,001,2024-06-03_08h39.11.874,empathy_intonation_perc,2024.1.4,Win32,60.0024001,,,,,,,,,,,,,,73,meolar,,,,,,68.488065,70.60435,1,0,1.567625,,0,7,7,72,1,pseudoword,0,REAL,FALSA
,,,,,,,,,,001,2024-06-03_08h39.11.874,empathy_intonation_perc,2024.1.4,Win32,60.0024001,,,,,,,,,,,,,,41,salto,,,,,,70.60466,72.40577,1,0,1.270335,,0,8,8,40,1,non_cognate,1,REAL,FALSA
,,,,,,,,,,001,2024-06-03_08h39.11.874,empathy_intonation_perc,2024.1.4,Win32,60.0024001,,,,,,,,,,,,,,29,cesta,,,,,,72.406045,74.020255,0,1,1.09764,,0,9,9,28,1,non_cognate,1,REAL,FALSA
,,,,,,,,,,001,2024-06-03_08h39.11.874,empathy_intonation_perc,2024.1.4,Win32,60.0024001,,,,,,,,,,,,,,80,suelet,,,,,,74.020525,75.78922,0,1,1.249785,,0,10,10,79,1,pseudoword,0,REAL,FALSA
,,,,,,,,,,001,2024-06-03_08h39.11.874,empathy_intonation_perc,2024.1.4,Win32,60.0024001,,,,,,,,,,,,,,79,filte,,,,,,75.789505,77.688465,0,1,1.359895,,0,11,11,78,1,pseudoword,0,REAL,FALSA
,,,,,,,,,,001,2024-06-03_08h39.11.874,empathy_intonation_perc,2024.1.4,Win32,60.0024001,,,,,,,,,,,,,,70,hunten,,,,,,77.688725,79.210515,0,1,0.981325,,0,12,12,69,1,pseudoword,0,REAL,FALSA
,,,,,,,,,,001,2024-06-03_08h39.11.874,empathy_intonation_perc,2024.1.4,Win32,60.0024001,,,,,,,,,,,,,,27,pelado,,,,,,79.210785,80.89655,1,0,1.152815,,0,13,13,26,1,non_cognate,1,REAL,FALSA
,,,,,,,,,,001,2024-06-03_08h39.11.874,empathy_intonation_perc,2024.1.4,Win32,60.0024001,,,,,,,,,,,,,,16,animal,,,,,,80.89682,82.428285,0,1,0.989155,,0,14,14,15,1,two_way_cognate,1,REAL,FALSA
,,,,,,,,,,001,2024-06-03_08h39.11.874,empathy_intonation_perc,2024.1.4,Win32,60.0024001,,,,,,,,,,,,,,5,fauna,,,,,,82.42858,84.23578,1,0,1.28892,,0,15,15,4,1,three_way_cognate,1,REAL,FALSA
,,,,,,,,,,001,2024-06-03_08h39.11.874,empathy_intonation_perc,2024.1.4,Win32,60.0024001,,,,,,,,,,,,,,87,racaer,,,,,,84.23606,86.045755,0,1,1.28034,,0,16,16,86,1,pseudoword,0,REAL,FALSA
,,,,,,,,,,001,2024-06-03_08h39.11.874,empathy_intonation_perc,2024.1.4,Win32,60.0024001,,,,,,,,,,,,,,9,limbo,,,,,,86.04601,88.678705,0,1,2.11138,,0,17,17,8,1,three_way_cognate,1,REAL,FALSA
,,,,,,,,,,001,2024-06-03_08h39.11.874,empathy_intonation_perc,2024.1.4,Win32,60.0024001,,,,,,,,,,,,,,69,vemua,,,,,,88.678965,91.278305,1,0,2.03105,,0,18,18,68,1,pseudoword,0,REAL,FALSA
,,,,,,,,,,001,2024-06-03_08h39.11.874,empathy_intonation_perc,2024.1.4,Win32,60.0024001,,,,,,,,,,,,,,48,taza,,,,,,91.278585,93.536365,1,0,1.70214,,0,19,19,47,1,non_cognate,1,REAL,FALSA
,,,,,,,,,,001,2024-06-03_08h39.11.874,empathy_intonation_perc,2024.1.4,Win32,60.0024001,,,,,,,,,,,,,,53,samón,,,,,,93.536655,95.370595,1,0,1.2981,,0,20,20,52,1,pseudoword,0,REAL,FALSA
,,,,,,,,,,001,2024-06-03_08h39.11.874,empathy_intonation_perc,2024.1.4,Win32,60.0024001,,,,,,,,,,,,,,78,alzán,,,,,,95.37086,96.826635,1,0,0.93176,,0,21,21,77,1,pseudoword,0,REAL,FALSA
,,,,,,,,,,001,2024-06-03_08h39.11.874,empathy_intonation_perc,2024.1.4,Win32,60.0024001,,,,,,,,,,,,,,43,huella,,,,,,96.8269,98.42721,1,0,1.057215,,0,22,22,42,1,non_cognate,1,REAL,FALSA
,,,,,,,,,,001,2024-06-03_08h39.11.874,empathy_intonation_perc,2024.1.4,Win32,60.0024001,,,,,,,,,,,,,,65,edidé,,,,,,98.427485,100.31139,1,0,1.35958,,0,23,23,64,1,pseudoword,0,REAL,FALSA
,,,,,,,,,,001,2024-06-03_08h39.11.874,empathy_intonation_perc,2024.1.4,Win32,60.0024001,,,,,,,,,,,,,,46,cumbre,,,,,,100.31167,102.026385,1,0,1.183515,,0,24,24,45,1,non_cognate,1,REAL,FALSA
,,,,,,,,,,001,2024-06-03_08h39.11.874,empathy_intonation_perc,2024.1.4,Win32,60.0024001,,,,,,,,,,,,,,22,pasta,,,,,,102.02664,103.902765,0,1,1.361405,,0,25,25,21,1,two_way_cognate,1,REAL,FALSA
,,,,,,,,,,001,2024-06-03_08h39.11.874,empathy_intonation_perc,2024.1.4,Win32,60.0024001,,,,,,,,,,,,,,86,abamos,,,,,,103.903045,105.94359,1,0,1.49632,,0,26,26,85,1,pseudoword,0,REAL,FALSA
,,,,,,,,,,001,2024-06-03_08h39.11.874,empathy_intonation_perc,2024.1.4,Win32,60.0024001,,,,,,,,,,,,,,82,alla,,,,,,105.94386,107.476725,1,0,1.002885,,0,27,27,81,1,pseudoword,0,REAL,FALSA
,,,,,,,,,,001,2024-06-03_08h39.11.874,empathy_intonation_perc,2024.1.4,Win32,60.0024001,,,,,,,,,,,,,,20,total,,,,,,107.47698,108.98552,0,1,0.981815,,0,28,28,19,1,two_way_cognate,1,REAL,FALSA
,,,,,,,,,,001,2024-06-03_08h39.11.874,empathy_intonation_perc,2024.1.4,Win32,60.0024001,,,,,,,,,,,,,,96,brigan,,,,,,108.985775,110.671015,0,1,1.169765,,0,29,29,95,1,pseudoword,0,REAL,FALSA
,,,,,,,,,,001,2024-06-03_08h39.11.874,empathy_intonation_perc,2024.1.4,Win32,60.0024001,,,,,,,,,,,,,,35,pájaro,,,,,,110.671265,111.99401,1,0,0.809415,,0,30,30,34,1,non_cognate,1,REAL,FALSA
,,,,,,,,,,001,2024-06-03_08h39.11.874,empathy_intonation_perc,2024.1.4,Win32,60.0024001,,,,,,,,,,,,,,33,latón,,,,,,111.99429,113.311635,1,0,0.77915,,0,31,31,32,1,non_cognate,1,REAL,FALSA
,,,,,,,,,,001,2024-06-03_08h39.11.874,empathy_intonation_perc,2024.1.4,Win32,60.0024001,,,,,,,,,,,,,,32,caro,,,,,,113.311895,114.777255,1,0,0.91037,,0,32,32,31,1,non_cognate,1,REAL,FALSA
,,,,,,,,,,001,2024-06-03_08h39.11.874,empathy_intonation_perc,2024.1.4,Win32,60.0024001,,,,,,,,,,,,,,26,hilo,,,,,,114.777615,116.72808,0,1,1.410135,,0,33,33,25,1,non_cognate,1,REAL,FALSA
,,,,,,,,,,001,2024-06-03_08h39.11.874,empathy_intonation_perc,2024.1.4,Win32,60.0024001,,,,,,,,,,,,,,58,abunal,,,,,,116.728345,118.81189,0,1,1.572855,,0,34,34,57,1,pseudoword,0,REAL,FALSA
,,,,,,,,,,001,2024-06-03_08h39.11.874,empathy_intonation_perc,2024.1.4,Win32,60.0024001,,,,,,,,,,,,,,7,retina,,,,,,118.812215,120.92937,1,0,1.59299,,0,35,35,6,1,three_way_cognate,1,REAL,FALSA
,,,,,,,,,,001,2024-06-03_08h39.11.874,empathy_intonation_perc,2024.1.4,Win32,60.0024001,,,,,,,,,,,,,,31,campo,,,,,,120.92966,122.57812,1,0,1.141,,0,36,36,30,1,non_cognate,1,REAL,FALSA
,,,,,,,,,,001,2024-06-03_08h39.11.874,empathy_intonation_perc,2024.1.4,Win32,60.0024001,,,,,,,,,,,,,,88,hento,,,,,,122.57838,124.003935,1,0,0.8848,,0,37,37,87,1,pseudoword,0,REAL,FALSA
,,,,,,,,,,001,2024-06-03_08h39.11.874,empathy_intonation_perc,2024.1.4,Win32,60.0024001,,,,,,,,,,,,,,55,ropis,,,,,,124.00421,125.395215,0,1,0.86544,,0,38,38,54,1,pseudoword,0,REAL,FALSA
,,,,,,,,,,001,2024-06-03_08h39.11.874,empathy_intonation_perc,2024.1.4,Win32,60.0024001,,,,,,,,,,,,,,81,rombar,,,,,,125.395465,127.275565,1,0,1.355615,,0,39,39,80,1,pseudoword,0,REAL,FALSA
,,,,,,,,,,001,2024-06-03_08h39.11.874,empathy_intonation_perc,2024.1.4,Win32,60.0024001,,,,,,,,,,,,,,12,bar,,,,,,127.27582,128.792055,0,1,0.961755,,0,40,40,11,1,three_way_cognate,1,REAL,FALSA
,,,,,,,,,,001,2024-06-03_08h39.11.874,empathy_intonation_perc,2024.1.4,Win32,60.0024001,,,,,,,,,,,,,,93,caemal,,,,,,128.79232,130.610065,1,0,1.249845,,0,41,41,92,1,pseudoword,0,REAL,FALSA
,,,,,,,,,,001,2024-06-03_08h39.11.874,empathy_intonation_perc,2024.1.4,Win32,60.0024001,,,,,,,,,,,,,,42,premio,,,,,,130.61041,132.269385,1,0,1.12265,,0,42,42,41,1,non_cognate,1,REAL,FALSA
,,,,,,,,,,001,2024-06-03_08h39.11.874,empathy_intonation_perc,2024.1.4,Win32,60.0024001,,,,,,,,,,,,,,24,civil,,,,,,132.26964,133.641745,0,1,0.800245,,0,43,43,23,1,two_way_cognate,1,REAL,FALSA
,,,,,,,,,,001,2024-06-03_08h39.11.874,empathy_intonation_perc,2024.1.4,Win32,60.0024001,,,,,,,,,,,,,,66,clazas,,,,,,133.642025,135.39336,1,0,1.217755,,0,44,44,65,1,pseudoword,0,REAL,FALSA
,,,,,,,,,,001,2024-06-03_08h39.11.874,empathy_intonation_perc,2024.1.4,Win32,60.0024001,,,,,,,,,,,,,,2,clan,,,,,,135.393625,137.144225,0,1,1.2112,,0,45,45,1,1,three_way_cognate,1,REAL,FALSA
,,,,,,,,,,001,2024-06-03_08h39.11.874,empathy_intonation_perc,2024.1.4,Win32,60.0024001,,,,,,,,,,,,,,13,aurora,,,,,,137.14449,138.608025,1,0,0.93146,,0,46,46,12,1,two_way_cognate,1,REAL,FALSA
,,,,,,,,,,001,2024-06-03_08h39.11.874,empathy_intonation_perc,2024.1.4,Win32,60.0024001,,,,,,,,,,,,,,1,torso,,,,,,138.608295,140.45195,1,0,1.313175,,0,47,47,0,1,three_way_cognate,1,REAL,FALSA
,,,,,,,,,,001,2024-06-03_08h39.11.874,empathy_intonation_perc,2024.1.4,Win32,60.0024001,,,,,,,,,,,,,,95,aclaya,,,,,,140.452215,141.792335,1,0,0.82602,,0,48,48,94,1,pseudoword,0,REAL,FALSA
,,,,,,,,,,001,2024-06-03_08h39.11.874,empathy_intonation_perc,2024.1.4,Win32,60.0024001,,,,,,,,,,,,,,61,trip,,,,,,141.792615,143.10865,0,1,0.76289,,0,49,49,60,1,pseudoword,0,REAL,FALSA
,,,,,,,,,,001,2024-06-03_08h39.11.874,empathy_intonation_perc,2024.1.4,Win32,60.0024001,,,,,,,,,,,,,,57,calto,,,,,,143.10893,144.3915,1,0,0.736885,,0,50,50,56,1,pseudoword,0,REAL,FALSA
,,,,,,,,,,001,2024-06-03_08h39.11.874,empathy_intonation_perc,2024.1.4,Win32,60.0024001,,,,,,,,,,,,,,14,clamor,,,,,,144.391765,145.943495,0,1,0.99675,,0,51,51,13,1,two_way_cognate,1,REAL,FALSA
,,,,,,,,,,001,2024-06-03_08h39.11.874,empathy_intonation_perc,2024.1.4,Win32,60.0024001,,,,,,,,,,,,,,54,barbo,,,,,,145.943745,147.29166,1,0,0.804775,,0,52,52,53,1,pseudoword,0,REAL,FALSA
,,,,,,,,,,001,2024-06-03_08h39.11.874,empathy_intonation_perc,2024.1.4,Win32,60.0024001,,,,,,,,,,,,,,10,tango,,,,,,147.291925,148.77529,1,0,0.950875,,0,53,53,9,1,three_way_cognate,1,REAL,FALSA
,,,,,,,,,,001,2024-06-03_08h39.11.874,empathy_intonation_perc,2024.1.4,Win32,60.0024001,,,,,,,,,,,,,,52,coriar,,,,,,148.775565,150.50745,1,0,1.198325,,0,54,54,51,1,pseudoword,0,REAL,FALSA
,,,,,,,,,,001,2024-06-03_08h39.11.874,empathy_intonation_perc,2024.1.4,Win32,60.0024001,,,,,,,,,,,,,,30,llamar,,,,,,150.507735,152.009075,1,0,0.958985,,0,55,55,29,1,non_cognate,1,REAL,FALSA
,,,,,,,,,,001,2024-06-03_08h39.11.874,empathy_intonation_perc,2024.1.4,Win32,60.0024001,,,,,,,,,,,,,,50,suaja,,,,,,152.009365,153.610005,1,0,1.04437,,0,56,56,49,1,pseudoword,0,REAL,FALSA
,,,,,,,,,,001,2024-06-03_08h39.11.874,empathy_intonation_perc,2024.1.4,Win32,60.0024001,,,,,,,,,,,,,,17,enigma,,,,,,153.61029,155.4082,0,1,1.23474,,0,57,57,16,1,two_way_cognate,1,REAL,FALSA
,,,,,,,,,,001,2024-06-03_08h39.11.874,empathy_intonation_perc,2024.1.4,Win32,60.0024001,,,,,,,,,,,,,,4,chip,,,,,,155.40847,156.80967,0,1,0.86138,,0,58,58,3,1,three_way_cognate,1,REAL,FALSA
,,,,,,,,,,001,2024-06-03_08h39.11.874,empathy_intonation_perc,2024.1.4,Win32,60.0024001,,,,,,,,,,,,,,89,barezo,,,,,,156.809925,158.250195,1,0,0.89323,,0,59,59,88,1,pseudoword,0,REAL,FALSA
,,,,,,,,,,001,2024-06-03_08h39.11.874,empathy_intonation_perc,2024.1.4,Win32,60.0024001,,,,,,,,,,,,,,67,huzas,,,,,,158.25046,160.575695,0,1,1.803335,,0,60,60,66,1,pseudoword,0,REAL,FALSA
,,,,,,,,,,001,2024-06-03_08h39.11.874,empathy_intonation_perc,2024.1.4,Win32,60.0024001,,,,,,,,,,,,,,60,debada,,,,,,160.575985,161.99094,1,0,0.87736,,0,61,61,59,1,pseudoword,0,REAL,FALSA
,,,,,,,,,,001,2024-06-03_08h39.11.874,empathy_intonation_perc,2024.1.4,Win32,60.0024001,,,,,,,,,,,,,,94,bomos,,,,,,161.99121,163.584105,1,0,1.06012,,0,62,62,93,1,pseudoword,0,REAL,FALSA
,,,,,,,,,,001,2024-06-03_08h39.11.874,empathy_intonation_perc,2024.1.4,Win32,60.0024001,,,,,,,,,,,,,,84,jomas,,,,,,163.58437,165.258365,0,1,1.1178,,0,63,63,83,1,pseudoword,0,REAL,FALSA
,,,,,,,,,,001,2024-06-03_08h39.11.874,empathy_intonation_perc,2024.1.4,Win32,60.0024001,,,,,,,,,,,,,,11,sauna,,,,,,165.25862,166.62464,1,0,0.84219,,0,64,64,10,1,three_way_cognate,1,REAL,FALSA
,,,,,,,,,,001,2024-06-03_08h39.11.874,empathy_intonation_perc,2024.1.4,Win32,60.0024001,,,,,,,,,,,,,,40,cuento,,,,,,166.62492,168.15764,1,0,0.979225,,0,65,65,39,1,non_cognate,1,REAL,FALSA
,,,,,,,,,,001,2024-06-03_08h39.11.874,empathy_intonation_perc,2024.1.4,Win32,60.0024001,,,,,,,,,,,,,,25,exigir,,,,,,168.15789,169.73326,0,1,1.054795,,0,66,66,24,1,non_cognate,1,REAL,FALSA
,,,,,,,,,,001,2024-06-03_08h39.11.874,empathy_intonation_perc,2024.1.4,Win32,60.0024001,,,,,,,,,,,,,,34,sermón,,,,,,169.733525,171.22602,1,0,0.95931,,0,67,67,33,1,non_cognate,1,REAL,FALSA
,,,,,,,,,,001,2024-06-03_08h39.11.874,empathy_intonation_perc,2024.1.4,Win32,60.0024001,,,,,,,,,,,,,,68,hurmo,,,,,,171.226275,172.549605,1,0,0.788525,,0,68,68,67,1,pseudoword,0,REAL,FALSA
,,,,,,,,,,001,2024-06-03_08h39.11.874,empathy_intonation_perc,2024.1.4,Win32,60.0024001,,,,,,,,,,,,,,21,casual,,,,,,172.549875,173.81857,0,1,0.75147,,0,69,69,20,1,two_way_cognate,1,REAL,FALSA
,,,,,,,,,,001,2024-06-03_08h39.11.874,empathy_intonation_perc,2024.1.4,Win32,60.0024001,,,,,,,,,,,,,,28,debido,,,,,,173.81885,179.05697,1,0,4.70949,,0,70,70,27,1,non_cognate,1,REAL,FALSA
,,,,,,,,,,001,2024-06-03_08h39.11.874,empathy_intonation_perc,2024.1.4,Win32,60.0024001,,,,,,,,,,,,,,76,orida,,,,,,179.05722,180.450615,1,0,0.876455,,0,71,71,75,1,pseudoword,0,REAL,FALSA
,,,,,,,,,,001,2024-06-03_08h39.11.874,empathy_intonation_perc,2024.1.4,Win32,60.0024001,,,,,,,,,,,,,,8,solar,,,,,,180.450885,181.842595,0,1,0.860095,,0,72,72,7,1,three_way_cognate,1,REAL,FALSA
,,,,,,,,,,001,2024-06-03_08h39.11.874,empathy_intonation_perc,2024.1.4,Win32,60.0024001,,,,,,,,,,,,,,47,alivio,,,,,,181.84296,183.258675,1,0,0.89944,,0,73,73,46,1,non_cognate,1,REAL,FALSA
,,,,,,,,,,001,2024-06-03_08h39.11.874,empathy_intonation_perc,2024.1.4,Win32,60.0024001,,,,,,,,,,,,,,38,trenza,,,,,,183.258925,184.516015,1,0,0.731225,,0,74,74,37,1,non_cognate,1,REAL,FALSA
,,,,,,,,,,001,2024-06-03_08h39.11.874,empathy_intonation_perc,2024.1.4,Win32,60.0024001,,,,,,,,,,,,,,74,mibro,,,,,,184.516285,185.674025,1,0,0.631795,,0,75,75,73,1,pseudoword,0,REAL,FALSA
,,,,,,,,,,001,2024-06-03_08h39.11.874,empathy_intonation_perc,2024.1.4,Win32,60.0024001,,,,,,,,,,,,,,64,altimo,,,,,,185.67429,186.81587,1,0,0.593795,,0,76,76,63,1,pseudoword,0,REAL,FALSA
,,,,,,,,,,001,2024-06-03_08h39.11.874,empathy_intonation_perc,2024.1.4,Win32,60.0024001,,,,,,,,,,,,,,36,visión,,,,,,186.816125,188.21895,0,1,0.876905,,0,77,77,35,1,non_cognate,1,REAL,FALSA
,,,,,,,,,,001,2024-06-03_08h39.11.874,empathy_intonation_perc,2024.1.4,Win32,60.0024001,,,,,,,,,,,,,,45,viga,,,,,,188.219235,189.87508,1,0,1.101115,,0,78,78,44,1,non_cognate,1,REAL,FALSA
,,,,,,,,,,001,2024-06-03_08h39.11.874,empathy_intonation_perc,2024.1.4,Win32,60.0024001,,,,,,,,,,,,,,51,tandir,,,,,,189.875345,192.03411,0,1,1.610685,,0,79,79,50,1,pseudoword,0,REAL,FALSA
,,,,,,,,,,001,2024-06-03_08h39.11.874,empathy_intonation_perc,2024.1.4,Win32,60.0024001,,,,,,,,,,,,,,63,aljizo,,,,,,192.03437,199.0244,1,0,6.46209,,0,80,80,62,1,pseudoword,0,REAL,FALSA
,,,,,,,,,,001,2024-06-03_08h39.11.874,empathy_intonation_perc,2024.1.4,Win32,60.0024001,,,,,,,,,,,,,,56,qucrá,,,,,,199.024655,200.339755,1,0,0.74945,,0,81,81,55,1,pseudoword,0,REAL,FALSA
,,,,,,,,,,001,2024-06-03_08h39.11.874,empathy_intonation_perc,2024.1.4,Win32,60.0024001,,,,,,,,,,,,,,85,tutaba,,,,,,200.340055,201.723195,1,0,0.836385,,0,82,82,84,1,pseudoword,0,REAL,FALSA
,,,,,,,,,,001,2024-06-03_08h39.11.874,empathy_intonation_perc,2024.1.4,Win32,60.0024001,,,,,,,,,,,,,,92,nasce,,,,,,201.723465,203.3838,0,1,1.12938,,0,83,83,91,1,pseudoword,0,REAL,FALSA
,,,,,,,,,,001,2024-06-03_08h39.11.874,empathy_intonation_perc,2024.1.4,Win32,60.0024001,,,,,,,,,,,,,,75,babrá,,,,,,203.384075,204.699275,1,0,0.80646,,0,84,84,74,1,pseudoword,0,REAL,FALSA
,,,,,,,,,,001,2024-06-03_08h39.11.874,empathy_intonation_perc,2024.1.4,Win32,60.0024001,,,,,,,,,,,,,,19,pelvis,,,,,,204.699525,206.016495,0,1,0.786395,,0,85,85,18,1,two_way_cognate,1,REAL,FALSA
,,,,,,,,,,001,2024-06-03_08h39.11.874,empathy_intonation_perc,2024.1.4,Win32,60.0024001,,,,,,,,,,,,,,71,rande,,,,,,206.01675,207.424785,1,0,0.86941,,0,86,86,70,1,pseudoword,0,REAL,FALSA
,,,,,,,,,,001,2024-06-03_08h39.11.874,empathy_intonation_perc,2024.1.4,Win32,60.0024001,,,,,,,,,,,,,,77,toges,,,,,,207.425045,209.155325,1,0,1.197085,,0,87,87,76,1,pseudoword,0,REAL,FALSA
,,,,,,,,,,001,2024-06-03_08h39.11.874,empathy_intonation_perc,2024.1.4,Win32,60.0024001,,,,,,,,,,,,,,44,llamar,,,,,,209.155735,210.998965,1,0,1.302795,,0,88,88,43,1,non_cognate,1,REAL,FALSA
,,,,,,,,,,001,2024-06-03_08h39.11.874,empathy_intonation_perc,2024.1.4,Win32,60.0024001,,,,,,,,,,,,,,15,actor,,,,,,210.99922,212.34993,0,1,0.83003,,0,89,89,14,1,two_way_cognate,1,REAL,FALSA
,,,,,,,,,,001,2024-06-03_08h39.11.874,empathy_intonation_perc,2024.1.4,Win32,60.0024001,,,,,,,,,,,,,,23,editor,,,,,,212.350195,213.80728,0,1,0.93757,,0,90,90,22,1,two_way_cognate,1,REAL,FALSA
,,,,,,,,,,001,2024-06-03_08h39.11.874,empathy_intonation_perc,2024.1.4,Win32,60.0024001,,,,,,,,,,,,,,59,mandio,,,,,,213.80755,215.17388,1,0,0.830395,,0,91,91,58,1,pseudoword,0,REAL,FALSA
,,,,,,,,,,001,2024-06-03_08h39.11.874,empathy_intonation_perc,2024.1.4,Win32,60.0024001,,,,,,,,,,,,,,62,sujo,,,,,,215.174145,216.77376,1,0,1.080255,,0,92,92,61,1,pseudoword,0,REAL,FALSA
,,,,,,,,,,001,2024-06-03_08h39.11.874,empathy_intonation_perc,2024.1.4,Win32,60.0024001,,,,,,,,,,,,,,83,monsos,,,,,,216.774015,218.581735,0,1,1.278255,,0,93,93,82,1,pseudoword,0,REAL,FALSA
,,,,,,,,,,001,2024-06-03_08h39.11.874,empathy_intonation_perc,2024.1.4,Win32,60.0024001,,,,,,,,,,,,,,72,diguán,,,,,,218.58203,220.1001,1,0,0.99876,,0,94,94,71,1,pseudoword,0,REAL,FALSA
,,,,,,,,,,001,2024-06-03_08h39.11.874,empathy_intonation_perc,2024.1.4,Win32,60.0024001,,,,,,,,,,,,,,49,diebro,,,,,,220.100365,221.30556,1,0,0.67405,,0,95,95,48,1,pseudoword,0,REAL,FALSA
