lextale_instructions.started,lextale_instructions.stopped,lextale_instructions_loop.thisRepN,lextale_instructions_loop.thisTrialN,lextale_instructions_loop.thisN,lextale_instructions_loop.thisIndex,lextale_instructions_loop.ran,instructions_text,continue_text,participant,session,date,expName,psychopyVersion,OS,frameRate,lextale_practice.started,lextale_practice.stopped,key_resp_lextale_practice.keys,key_resp_lextale_practice.corr,key_resp_lextale_practice.rt,key_resp_lextale_practice.duration,lextale_practice_feedback.started,lextale_practice_feedback.stopped,lextale_practice_trials.thisRepN,lextale_practice_trials.thisTrialN,lextale_practice_trials.thisN,lextale_practice_trials.thisIndex,lextale_practice_trials.ran,stim,word,correct_response,prac_button_real,prac_button_false,lextale_check.started,lextale_check.stopped,lextale_trial.started,lextale_trial.stopped,key_resp_lextale_trial.keys,key_resp_lextale_trial.corr,key_resp_lextale_trial.rt,key_resp_lextale_trial.duration,lextail_trials.thisRepN,lextail_trials.thisTrialN,lextail_trials.thisN,lextail_trials.thisIndex,lextail_trials.ran,type,correct_reponse,button_real,button_false
0.0055,5.5308,0,0,0,0,1,"Este es un test de vocabulario en español. 
  
  A continuación vas a ver 90 secuencias de letras que parecen 'españolas'.
  
  Solo algunas de ellas son palabras de verdad.",(presiona la barra espaciadora para continuar),,001,2024-06-07_07h47.14.076,empathy_intonation_perc,2024.1.4,Win32,60.24096386,,,,,,,,,,,,,,,,,,,,,,,,,,,,,,,,,,,
5.5319,12.1895,0,1,1,1,1,"Por favor, señala las palabras que tú conoces (aquellas que estás convencido que son palabras españolas, incluso aunque no seas capaz de dar el significado preciso).",(presiona la barra espaciadora para continuar),,001,2024-06-07_07h47.14.076,empathy_intonation_perc,2024.1.4,Win32,60.24096386,,,,,,,,,,,,,,,,,,,,,,,,,,,,,,,,,,,
12.1901,20.432,0,2,2,2,1,Pero cuidado: los errores se penalizan. Por eso no tiene sentido tratar de incrementar tu puntuación marcando como reales palabras que nunca has visto.,(presiona la barra espaciadora para continuar),,001,2024-06-07_07h47.14.076,empathy_intonation_perc,2024.1.4,Win32,60.24096386,,,,,,,,,,,,,,,,,,,,,,,,,,,,,,,,,,,
20.4329,28.6237,0,3,3,3,1,"Presiona la tecla 1 si piensas que es una palabra real y la tecla 
  0 si piensas que es una palabra falsa. 
  
  Vamos a practicar un poco...",(presiona la barra espaciadora para continuar),,001,2024-06-07_07h47.14.076,empathy_intonation_perc,2024.1.4,Win32,60.24096386,,,,,,,,,,,,,,,,,,,,,,,,,,,,,,,,,,,
,,,,,,,,,,001,2024-06-07_07h47.14.076,empathy_intonation_perc,2024.1.4,Win32,60.24096386,28.6306,33.5531,0,1,4.3981,,33.5537,34.5511,0,0,0,0,1,0,depiste,0,REAL,FALSA,,,,,,,,,,,,,,,,,
,,,,,,,,,,001,2024-06-07_07h47.14.076,empathy_intonation_perc,2024.1.4,Win32,60.24096386,34.5523,36.8157,1,1,1.7315,,36.8158,37.8148,0,1,1,1,1,0,sí,1,REAL,FALSA,,,,,,,,,,,,,,,,,
,,,,,,,,,,001,2024-06-07_07h47.14.076,empathy_intonation_perc,2024.1.4,Win32,60.24096386,37.8153,42.1105,0,1,3.7586,,42.1107,43.1098,0,2,2,2,1,0,coné,0,REAL,FALSA,,,,,,,,,,,,,,,,,
,,,,,,,,,,001,2024-06-07_07h47.14.076,empathy_intonation_perc,2024.1.4,Win32,60.24096386,43.1106,47.8548,0,1,4.2116,,47.8549,48.8539,0,3,3,3,1,0,calpar,0,REAL,FALSA,,,,,,,,,,,,,,,,,
,,,,,,,,,,001,2024-06-07_07h47.14.076,empathy_intonation_perc,2024.1.4,Win32,60.24096386,48.8545,52.0502,0,1,2.6652,,52.0503,53.05,0,4,4,4,1,0,joten,0,REAL,FALSA,,,,,,,,,,,,,,,,,
,,,,,,,,,,001,2024-06-07_07h47.14.076,empathy_intonation_perc,2024.1.4,Win32,60.24096386,53.0509,55.514,1,1,1.9277,,55.5142,56.5129,0,5,5,5,1,0,sacapuntas,1,REAL,FALSA,,,,,,,,,,,,,,,,,
,,,,,,,,,,001,2024-06-07_07h47.14.076,empathy_intonation_perc,2024.1.4,Win32,60.24096386,56.5315,58.6611,1,0,1.5966,,58.6613,59.6596,0,6,6,6,1,0,priba,0,REAL,FALSA,,,,,,,,,,,,,,,,,
,,,,,,,,,,001,2024-06-07_07h47.14.076,empathy_intonation_perc,2024.1.4,Win32,60.24096386,59.6782,64.7377,1,0,4.5294,,64.7379,65.7372,0,7,7,7,1,0,pelasula,0,REAL,FALSA,,,,,,,,,,,,,,,,,
,,,,,,,,,,001,2024-06-07_07h47.14.076,empathy_intonation_perc,2024.1.4,Win32,60.24096386,65.7556,67.402,1,1,1.1193,,67.4021,68.4017,0,8,8,8,1,0,bien,1,REAL,FALSA,,,,,,,,,,,,,,,,,
,,,,,,,,,,001,2024-06-07_07h47.14.076,empathy_intonation_perc,2024.1.4,Win32,60.24096386,68.403,69.95,1,1,1.0145,,69.95,70.9486,0,9,9,9,1,0,casa,1,REAL,FALSA,,,,,,,,,,,,,,,,,
,,,,,,,,,,001,2024-06-07_07h47.14.076,empathy_intonation_perc,2024.1.4,Win32,60.24096386,70.9492,73.8965,0,1,2.4116,,73.8967,74.8946,0,10,10,10,1,0,lejo,0,REAL,FALSA,,,,,,,,,,,,,,,,,
,,,,,,,,,,001,2024-06-07_07h47.14.076,empathy_intonation_perc,2024.1.4,Win32,60.24096386,74.9123,78.0916,0,1,2.6456,,78.0916,79.0907,0,11,11,11,1,0,pretantas,0,REAL,FALSA,,,,,,,,,,,,,,,,,
,,,,,,,,,,001,2024-06-07_07h47.14.076,empathy_intonation_perc,2024.1.4,Win32,60.24096386,,,,,,,,,,,,,,,,,,,79.092,80.9724,,,,,,,,,,,,,,,
,,,,,,,,,,001,2024-06-07_07h47.14.076,empathy_intonation_perc,2024.1.4,Win32,60.24096386,,,,,,,,,,,,,,49,teñir,,,,,,81.0029,84.6702,1,0,3.1361,,0,0,0,48,1,non_cognate,1,REAL,FALSA
,,,,,,,,,,001,2024-06-07_07h47.14.076,empathy_intonation_perc,2024.1.4,Win32,60.24096386,,,,,,,,,,,,,,102,coyo,,,,,,84.689,86.8162,0,1,1.5884,,0,1,1,101,1,pseudoword,0,REAL,FALSA
,,,,,,,,,,001,2024-06-07_07h47.14.076,empathy_intonation_perc,2024.1.4,Win32,60.24096386,,,,,,,,,,,,,,18,mafia,,,,,,86.8169,90.763,0,1,3.4051,,0,2,2,17,1,three_way_cognate,1,REAL,FALSA
,,,,,,,,,,001,2024-06-07_07h47.14.076,empathy_intonation_perc,2024.1.4,Win32,60.24096386,,,,,,,,,,,,,,35,aurora,,,,,,90.7822,93.6267,1,0,2.3108,,0,3,3,34,1,two_way_cognate,1,REAL,FALSA
,,,,,,,,,,001,2024-06-07_07h47.14.076,empathy_intonation_perc,2024.1.4,Win32,60.24096386,,,,,,,,,,,,,,107,plamos,,,,,,93.6277,95.9739,0,1,1.8082,,0,4,4,106,1,pseudoword,0,REAL,FALSA
,,,,,,,,,,001,2024-06-07_07h47.14.076,empathy_intonation_perc,2024.1.4,Win32,60.24096386,,,,,,,,,,,,,,71,torta,,,,,,95.9875,98.5057,1,0,1.9928,,0,5,5,70,1,non_cognate,1,REAL,FALSA
,,,,,,,,,,001,2024-06-07_07h47.14.076,empathy_intonation_perc,2024.1.4,Win32,60.24096386,,,,,,,,,,,,,,42,rumor,,,,,,98.5066,102.7176,1,0,3.6822,,0,6,6,41,1,two_way_cognate,1,REAL,FALSA
,,,,,,,,,,001,2024-06-07_07h47.14.076,empathy_intonation_perc,2024.1.4,Win32,60.24096386,,,,,,,,,,,,,,133,tirafa,,,,,,102.7356,105.3316,0,1,2.0686,,0,7,7,132,1,pseudoword,0,REAL,FALSA
,,,,,,,,,,001,2024-06-07_07h47.14.076,empathy_intonation_perc,2024.1.4,Win32,60.24096386,,,,,,,,,,,,,,97,hufón,,,,,,105.3322,107.2796,0,1,1.4146,,0,8,8,96,1,pseudoword,0,REAL,FALSA
,,,,,,,,,,001,2024-06-07_07h47.14.076,empathy_intonation_perc,2024.1.4,Win32,60.24096386,,,,,,,,,,,,,,23,porno,,,,,,107.2802,109.428,1,0,1.6182,,0,9,9,22,1,three_way_cognate,1,REAL,FALSA
,,,,,,,,,,001,2024-06-07_07h47.14.076,empathy_intonation_perc,2024.1.4,Win32,60.24096386,,,,,,,,,,,,,,36,viable,,,,,,109.4285,111.0422,1,0,1.0838,,0,10,10,35,1,two_way_cognate,1,REAL,FALSA
,,,,,,,,,,001,2024-06-07_07h47.14.076,empathy_intonation_perc,2024.1.4,Win32,60.24096386,,,,,,,,,,,,,,55,maldad,,,,,,111.0427,114.1228,0,1,2.5483,,0,11,11,54,1,non_cognate,1,REAL,FALSA
,,,,,,,,,,001,2024-06-07_07h47.14.076,empathy_intonation_perc,2024.1.4,Win32,60.24096386,,,,,,,,,,,,,,30,fiscal,,,,,,114.1399,115.7387,1,0,1.0619,,0,12,12,29,1,two_way_cognate,1,REAL,FALSA
,,,,,,,,,,001,2024-06-07_07h47.14.076,empathy_intonation_perc,2024.1.4,Win32,60.24096386,,,,,,,,,,,,,,56,pico,,,,,,115.7392,117.3529,1,0,1.0812,,0,13,13,55,1,non_cognate,1,REAL,FALSA
,,,,,,,,,,001,2024-06-07_07h47.14.076,empathy_intonation_perc,2024.1.4,Win32,60.24096386,,,,,,,,,,,,,,122,gravés,,,,,,117.3535,120.4336,1,0,2.5463,,0,14,14,121,1,pseudoword,0,REAL,FALSA
,,,,,,,,,,001,2024-06-07_07h47.14.076,empathy_intonation_perc,2024.1.4,Win32,60.24096386,,,,,,,,,,,,,,43,honor,,,,,,120.452,121.6492,1,0,0.6655,,0,15,15,42,1,two_way_cognate,1,REAL,FALSA
,,,,,,,,,,001,2024-06-07_07h47.14.076,empathy_intonation_perc,2024.1.4,Win32,60.24096386,,,,,,,,,,,,,,96,caro,,,,,,121.6501,126.1946,1,0,4.0128,,0,16,16,95,1,non_cognate,1,REAL,FALSA
,,,,,,,,,,001,2024-06-07_07h47.14.076,empathy_intonation_perc,2024.1.4,Win32,60.24096386,,,,,,,,,,,,,,89,muñeca,,,,,,126.2064,127.9925,0,1,1.261,,0,17,17,88,1,non_cognate,1,REAL,FALSA
,,,,,,,,,,001,2024-06-07_07h47.14.076,empathy_intonation_perc,2024.1.4,Win32,60.24096386,,,,,,,,,,,,,,144,piria,,,,,,127.9929,130.707,0,1,2.1783,,0,18,18,143,1,pseudoword,0,REAL,FALSA
,,,,,,,,,,001,2024-06-07_07h47.14.076,empathy_intonation_perc,2024.1.4,Win32,60.24096386,,,,,,,,,,,,,,114,potos,,,,,,130.7077,132.7877,0,1,1.5438,,0,19,19,113,1,pseudoword,0,REAL,FALSA
,,,,,,,,,,001,2024-06-07_07h47.14.076,empathy_intonation_perc,2024.1.4,Win32,60.24096386,,,,,,,,,,,,,,72,rostro,,,,,,132.7882,134.5366,0,1,1.2169,,0,20,20,71,1,non_cognate,1,REAL,FALSA
,,,,,,,,,,001,2024-06-07_07h47.14.076,empathy_intonation_perc,2024.1.4,Win32,60.24096386,,,,,,,,,,,,,,59,feo,,,,,,134.5372,136.4522,1,0,1.3814,,0,21,21,58,1,non_cognate,1,REAL,FALSA
,,,,,,,,,,001,2024-06-07_07h47.14.076,empathy_intonation_perc,2024.1.4,Win32,60.24096386,,,,,,,,,,,,,,92,flecha,,,,,,136.4531,138.533,0,1,1.5466,,0,22,22,91,1,non_cognate,1,REAL,FALSA
,,,,,,,,,,001,2024-06-07_07h47.14.076,empathy_intonation_perc,2024.1.4,Win32,60.24096386,,,,,,,,,,,,,,113,difrás,,,,,,138.5339,140.5811,0,1,1.5027,,0,23,23,112,1,pseudoword,0,REAL,FALSA
,,,,,,,,,,001,2024-06-07_07h47.14.076,empathy_intonation_perc,2024.1.4,Win32,60.24096386,,,,,,,,,,,,,,38,halo,,,,,,140.5824,143.6614,1,0,2.5404,,0,24,24,37,1,two_way_cognate,1,REAL,FALSA
,,,,,,,,,,001,2024-06-07_07h47.14.076,empathy_intonation_perc,2024.1.4,Win32,60.24096386,,,,,,,,,,,,,,5,horror,,,,,,143.6627,144.777,1,0,0.5732,,0,25,25,4,1,three_way_cognate,1,REAL,FALSA
,,,,,,,,,,001,2024-06-07_07h47.14.076,empathy_intonation_perc,2024.1.4,Win32,60.24096386,,,,,,,,,,,,,,63,hilo,,,,,,144.7778,148.4733,0,1,3.1561,,0,26,26,62,1,non_cognate,1,REAL,FALSA
,,,,,,,,,,001,2024-06-07_07h47.14.076,empathy_intonation_perc,2024.1.4,Win32,60.24096386,,,,,,,,,,,,,,88,percha,,,,,,148.4917,150.8042,0,1,1.7675,,0,27,27,87,1,non_cognate,1,REAL,FALSA
,,,,,,,,,,001,2024-06-07_07h47.14.076,empathy_intonation_perc,2024.1.4,Win32,60.24096386,,,,,,,,,,,,,,91,equipo,,,,,,150.8055,152.5088,1,0,1.1657,,0,28,28,90,1,non_cognate,1,REAL,FALSA
,,,,,,,,,,001,2024-06-07_07h47.14.076,empathy_intonation_perc,2024.1.4,Win32,60.24096386,,,,,,,,,,,,,,129,suchas,,,,,,152.5095,154.1015,1,0,1.0526,,0,29,29,128,1,pseudoword,0,REAL,FALSA
,,,,,,,,,,001,2024-06-07_07h47.14.076,empathy_intonation_perc,2024.1.4,Win32,60.24096386,,,,,,,,,,,,,,131,fuar,,,,,,154.1031,155.8327,0,1,1.2089,,0,30,30,130,1,pseudoword,0,REAL,FALSA
,,,,,,,,,,001,2024-06-07_07h47.14.076,empathy_intonation_perc,2024.1.4,Win32,60.24096386,,,,,,,,,,,,,,127,vien,,,,,,155.8338,157.9045,0,1,1.5324,,0,31,31,126,1,pseudoword,0,REAL,FALSA
,,,,,,,,,,001,2024-06-07_07h47.14.076,empathy_intonation_perc,2024.1.4,Win32,60.24096386,,,,,,,,,,,,,,128,pelí,,,,,,157.9217,159.7956,0,1,1.3389,,0,32,32,127,1,pseudoword,0,REAL,FALSA
,,,,,,,,,,001,2024-06-07_07h47.14.076,empathy_intonation_perc,2024.1.4,Win32,60.24096386,,,,,,,,,,,,,,78,rendir,,,,,,159.7962,161.9265,1,0,1.5994,,0,33,33,77,1,non_cognate,1,REAL,FALSA
,,,,,,,,,,001,2024-06-07_07h47.14.076,empathy_intonation_perc,2024.1.4,Win32,60.24096386,,,,,,,,,,,,,,39,casual,,,,,,161.9442,163.525,1,0,1.0365,,0,34,34,38,1,two_way_cognate,1,REAL,FALSA
,,,,,,,,,,001,2024-06-07_07h47.14.076,empathy_intonation_perc,2024.1.4,Win32,60.24096386,,,,,,,,,,,,,,58,colcha,,,,,,163.5257,166.122,0,1,2.0519,,0,35,35,57,1,non_cognate,1,REAL,FALSA
,,,,,,,,,,001,2024-06-07_07h47.14.076,empathy_intonation_perc,2024.1.4,Win32,60.24096386,,,,,,,,,,,,,,108,viarle,,,,,,166.1393,175.946,0,1,9.2752,,0,36,36,107,1,pseudoword,0,REAL,FALSA
,,,,,,,,,,001,2024-06-07_07h47.14.076,empathy_intonation_perc,2024.1.4,Win32,60.24096386,,,,,,,,,,,,,,106,baurá,,,,,,175.9652,178.4109,0,1,1.9121,,0,37,37,105,1,pseudoword,0,REAL,FALSA
,,,,,,,,,,001,2024-06-07_07h47.14.076,empathy_intonation_perc,2024.1.4,Win32,60.24096386,,,,,,,,,,,,,,41,pasta,,,,,,178.4115,179.9753,1,0,1.0304,,0,38,38,40,1,two_way_cognate,1,REAL,FALSA
,,,,,,,,,,001,2024-06-07_07h47.14.076,empathy_intonation_perc,2024.1.4,Win32,60.24096386,,,,,,,,,,,,,,73,llevar,,,,,,179.9758,184.6708,1,0,4.1607,,0,39,39,72,1,non_cognate,1,REAL,FALSA
,,,,,,,,,,001,2024-06-07_07h47.14.076,empathy_intonation_perc,2024.1.4,Win32,60.24096386,,,,,,,,,,,,,,94,forro,,,,,,184.6911,186.3859,0,1,1.1651,,0,40,40,93,1,non_cognate,1,REAL,FALSA
,,,,,,,,,,001,2024-06-07_07h47.14.076,empathy_intonation_perc,2024.1.4,Win32,60.24096386,,,,,,,,,,,,,,134,fruzas,,,,,,186.3866,187.9678,0,1,1.0486,,0,41,41,133,1,pseudoword,0,REAL,FALSA
,,,,,,,,,,001,2024-06-07_07h47.14.076,empathy_intonation_perc,2024.1.4,Win32,60.24096386,,,,,,,,,,,,,,119,esís,,,,,,187.9683,190.8811,0,1,2.378,,0,42,42,118,1,pseudoword,0,REAL,FALSA
,,,,,,,,,,001,2024-06-07_07h47.14.076,empathy_intonation_perc,2024.1.4,Win32,60.24096386,,,,,,,,,,,,,,120,hierno,,,,,,190.8976,192.8457,0,1,1.4349,,0,43,43,119,1,pseudoword,0,REAL,FALSA
,,,,,,,,,,001,2024-06-07_07h47.14.076,empathy_intonation_perc,2024.1.4,Win32,60.24096386,,,,,,,,,,,,,,139,furbos,,,,,,192.8463,194.4782,0,1,1.0975,,0,44,44,138,1,pseudoword,0,REAL,FALSA
,,,,,,,,,,001,2024-06-07_07h47.14.076,empathy_intonation_perc,2024.1.4,Win32,60.24096386,,,,,,,,,,,,,,53,punta,,,,,,194.4788,196.3095,1,0,1.2973,,0,45,45,52,1,non_cognate,1,REAL,FALSA
,,,,,,,,,,001,2024-06-07_07h47.14.076,empathy_intonation_perc,2024.1.4,Win32,60.24096386,,,,,,,,,,,,,,22,plural,,,,,,196.311,197.5083,1,0,0.6644,,0,46,46,21,1,three_way_cognate,1,REAL,FALSA
,,,,,,,,,,001,2024-06-07_07h47.14.076,empathy_intonation_perc,2024.1.4,Win32,60.24096386,,,,,,,,,,,,,,8,portal,,,,,,197.5092,198.7074,1,0,0.6677,,0,47,47,7,1,three_way_cognate,1,REAL,FALSA
,,,,,,,,,,001,2024-06-07_07h47.14.076,empathy_intonation_perc,2024.1.4,Win32,60.24096386,,,,,,,,,,,,,,21,mango,,,,,,198.7079,199.8892,1,0,0.6488,,0,48,48,20,1,three_way_cognate,1,REAL,FALSA
,,,,,,,,,,001,2024-06-07_07h47.14.076,empathy_intonation_perc,2024.1.4,Win32,60.24096386,,,,,,,,,,,,,,84,aviso,,,,,,199.8899,201.604,1,0,1.1824,,0,49,49,83,1,non_cognate,1,REAL,FALSA
,,,,,,,,,,001,2024-06-07_07h47.14.076,empathy_intonation_perc,2024.1.4,Win32,60.24096386,,,,,,,,,,,,,,3,flora,,,,,,201.6048,202.8531,1,0,0.7153,,0,50,50,2,1,three_way_cognate,1,REAL,FALSA
,,,,,,,,,,001,2024-06-07_07h47.14.076,empathy_intonation_perc,2024.1.4,Win32,60.24096386,,,,,,,,,,,,,,141,sumer,,,,,,202.8537,204.7342,0,1,1.3531,,0,51,51,140,1,pseudoword,0,REAL,FALSA
,,,,,,,,,,001,2024-06-07_07h47.14.076,empathy_intonation_perc,2024.1.4,Win32,60.24096386,,,,,,,,,,,,,,68,puñal,,,,,,204.7347,209.863,0,1,4.5921,,0,52,52,67,1,non_cognate,1,REAL,FALSA
,,,,,,,,,,001,2024-06-07_07h47.14.076,empathy_intonation_perc,2024.1.4,Win32,60.24096386,,,,,,,,,,,,,,33,collar,,,,,,209.8795,212.0112,1,0,1.5959,,0,53,53,32,1,two_way_cognate,1,REAL,FALSA
,,,,,,,,,,001,2024-06-07_07h47.14.076,empathy_intonation_perc,2024.1.4,Win32,60.24096386,,,,,,,,,,,,,,52,blando,,,,,,212.012,213.8425,1,0,1.2981,,0,54,54,51,1,non_cognate,1,REAL,FALSA
,,,,,,,,,,001,2024-06-07_07h47.14.076,empathy_intonation_perc,2024.1.4,Win32,60.24096386,,,,,,,,,,,,,,24,retina,,,,,,213.843,215.4404,1,0,1.0677,,0,55,55,23,1,three_way_cognate,1,REAL,FALSA
,,,,,,,,,,001,2024-06-07_07h47.14.076,empathy_intonation_perc,2024.1.4,Win32,60.24096386,,,,,,,,,,,,,,130,dubo,,,,,,215.4411,217.156,0,1,1.1816,,0,56,56,129,1,pseudoword,0,REAL,FALSA
,,,,,,,,,,001,2024-06-07_07h47.14.076,empathy_intonation_perc,2024.1.4,Win32,60.24096386,,,,,,,,,,,,,,112,cituló,,,,,,217.1566,218.8378,0,1,1.1452,,0,57,57,111,1,pseudoword,0,REAL,FALSA
,,,,,,,,,,001,2024-06-07_07h47.14.076,empathy_intonation_perc,2024.1.4,Win32,60.24096386,,,,,,,,,,,,,,123,escare,,,,,,218.8385,256.6669,0,1,37.2993,,0,58,58,122,1,pseudoword,0,REAL,FALSA
,,,,,,,,,,001,2024-06-07_07h47.14.076,empathy_intonation_perc,2024.1.4,Win32,60.24096386,,,,,,,,,,,,,,136,sopleó,,,,,,256.6869,264.7421,0,1,7.5262,,0,59,59,135,1,pseudoword,0,REAL,FALSA
,,,,,,,,,,001,2024-06-07_07h47.14.076,empathy_intonation_perc,2024.1.4,Win32,60.24096386,,,,,,,,,,,,,,135,macayó,,,,,,264.762,266.8739,0,1,1.5769,,0,60,60,134,1,pseudoword,0,REAL,FALSA
,,,,,,,,,,001,2024-06-07_07h47.14.076,empathy_intonation_perc,2024.1.4,Win32,60.24096386,,,,,,,,,,,,,,48,pelvis,,,,,,266.8745,268.3719,1,0,0.9672,,0,61,61,47,1,two_way_cognate,1,REAL,FALSA
,,,,,,,,,,001,2024-06-07_07h47.14.076,empathy_intonation_perc,2024.1.4,Win32,60.24096386,,,,,,,,,,,,,,14,test,,,,,,268.3725,269.4215,1,0,0.5145,,0,62,62,13,1,three_way_cognate,1,REAL,FALSA
,,,,,,,,,,001,2024-06-07_07h47.14.076,empathy_intonation_perc,2024.1.4,Win32,60.24096386,,,,,,,,,,,,,,7,kilo,,,,,,269.4223,270.6365,1,0,0.6814,,0,63,63,6,1,three_way_cognate,1,REAL,FALSA
,,,,,,,,,,001,2024-06-07_07h47.14.076,empathy_intonation_perc,2024.1.4,Win32,60.24096386,,,,,,,,,,,,,,100,medón,,,,,,270.6372,272.3018,0,1,1.1337,,0,64,64,99,1,pseudoword,0,REAL,FALSA
,,,,,,,,,,001,2024-06-07_07h47.14.076,empathy_intonation_perc,2024.1.4,Win32,60.24096386,,,,,,,,,,,,,,69,tiza,,,,,,272.3023,273.8507,0,1,1.0122,,0,65,65,68,1,non_cognate,1,REAL,FALSA
,,,,,,,,,,001,2024-06-07_07h47.14.076,empathy_intonation_perc,2024.1.4,Win32,60.24096386,,,,,,,,,,,,,,99,mieris,,,,,,273.8514,275.299,0,1,0.9154,,0,66,66,98,1,pseudoword,0,REAL,FALSA
,,,,,,,,,,001,2024-06-07_07h47.14.076,empathy_intonation_perc,2024.1.4,Win32,60.24096386,,,,,,,,,,,,,,66,aleta,,,,,,275.2997,276.7146,0,1,0.8822,,0,67,67,65,1,non_cognate,1,REAL,FALSA
,,,,,,,,,,001,2024-06-07_07h47.14.076,empathy_intonation_perc,2024.1.4,Win32,60.24096386,,,,,,,,,,,,,,142,viseña,,,,,,276.7153,278.03,0,1,0.7781,,0,68,68,141,1,pseudoword,0,REAL,FALSA
,,,,,,,,,,001,2024-06-07_07h47.14.076,empathy_intonation_perc,2024.1.4,Win32,60.24096386,,,,,,,,,,,,,,109,hágino,,,,,,278.031,279.295,0,1,0.731,,0,69,69,108,1,pseudoword,0,REAL,FALSA
,,,,,,,,,,001,2024-06-07_07h47.14.076,empathy_intonation_perc,2024.1.4,Win32,60.24096386,,,,,,,,,,,,,,20,hotel,,,,,,279.2958,280.8935,1,0,1.064,,0,70,70,19,1,three_way_cognate,1,REAL,FALSA
,,,,,,,,,,001,2024-06-07_07h47.14.076,empathy_intonation_perc,2024.1.4,Win32,60.24096386,,,,,,,,,,,,,,140,vapen,,,,,,280.8946,284.6399,0,1,3.2086,,0,71,71,139,1,pseudoword,0,REAL,FALSA
,,,,,,,,,,001,2024-06-07_07h47.14.076,empathy_intonation_perc,2024.1.4,Win32,60.24096386,,,,,,,,,,,,,,116,crene,,,,,,284.641,286.4382,0,1,1.2607,,0,72,72,115,1,pseudoword,0,REAL,FALSA
,,,,,,,,,,001,2024-06-07_07h47.14.076,empathy_intonation_perc,2024.1.4,Win32,60.24096386,,,,,,,,,,,,,,13,aura,,,,,,286.4389,288.3195,1,0,1.3449,,0,73,73,12,1,three_way_cognate,1,REAL,FALSA
,,,,,,,,,,001,2024-06-07_07h47.14.076,empathy_intonation_perc,2024.1.4,Win32,60.24096386,,,,,,,,,,,,,,17,altar,,,,,,288.3204,289.6515,1,0,0.7979,,0,74,74,16,1,three_way_cognate,1,REAL,FALSA
,,,,,,,,,,001,2024-06-07_07h47.14.076,empathy_intonation_perc,2024.1.4,Win32,60.24096386,,,,,,,,,,,,,,95,listo,,,,,,289.6521,291.1836,1,0,0.9981,,0,75,75,94,1,non_cognate,1,REAL,FALSA
,,,,,,,,,,001,2024-06-07_07h47.14.076,empathy_intonation_perc,2024.1.4,Win32,60.24096386,,,,,,,,,,,,,,93,tapa,,,,,,291.1843,292.6824,1,0,0.9643,,0,76,76,92,1,non_cognate,1,REAL,FALSA
,,,,,,,,,,001,2024-06-07_07h47.14.076,empathy_intonation_perc,2024.1.4,Win32,60.24096386,,,,,,,,,,,,,,54,tapón,,,,,,292.683,294.13,1,0,0.9178,,0,77,77,53,1,non_cognate,1,REAL,FALSA
,,,,,,,,,,001,2024-06-07_07h47.14.076,empathy_intonation_perc,2024.1.4,Win32,60.24096386,,,,,,,,,,,,,,79,suelo,,,,,,294.1307,296.6444,1,0,1.9814,,0,78,78,78,1,non_cognate,1,REAL,FALSA
,,,,,,,,,,001,2024-06-07_07h47.14.076,empathy_intonation_perc,2024.1.4,Win32,60.24096386,,,,,,,,,,,,,,19,trauma,,,,,,296.6449,297.8936,1,0,0.7167,,0,79,79,18,1,three_way_cognate,1,REAL,FALSA
,,,,,,,,,,001,2024-06-07_07h47.14.076,empathy_intonation_perc,2024.1.4,Win32,60.24096386,,,,,,,,,,,,,,28,ardor,,,,,,297.8947,299.5753,0,1,1.1477,,0,80,80,27,1,two_way_cognate,1,REAL,FALSA
,,,,,,,,,,001,2024-06-07_07h47.14.076,empathy_intonation_perc,2024.1.4,Win32,60.24096386,,,,,,,,,,,,,,104,vitra,,,,,,299.5759,301.4568,0,1,1.354,,0,81,81,103,1,pseudoword,0,REAL,FALSA
,,,,,,,,,,001,2024-06-07_07h47.14.076,empathy_intonation_perc,2024.1.4,Win32,60.24096386,,,,,,,,,,,,,,83,hálito,,,,,,301.4575,303.5044,0,1,1.5135,,0,82,82,82,1,non_cognate,1,REAL,FALSA
,,,,,,,,,,001,2024-06-07_07h47.14.076,empathy_intonation_perc,2024.1.4,Win32,60.24096386,,,,,,,,,,,,,,111,vibler,,,,,,303.5052,305.1367,0,1,1.095,,0,83,83,110,1,pseudoword,0,REAL,FALSA
,,,,,,,,,,001,2024-06-07_07h47.14.076,empathy_intonation_perc,2024.1.4,Win32,60.24096386,,,,,,,,,,,,,,117,apunan,,,,,,305.1375,306.7515,0,1,1.079,,0,84,84,116,1,pseudoword,0,REAL,FALSA
,,,,,,,,,,001,2024-06-07_07h47.14.076,empathy_intonation_perc,2024.1.4,Win32,60.24096386,,,,,,,,,,,,,,101,fertes,,,,,,306.752,308.2832,0,1,0.9965,,0,85,85,100,1,pseudoword,0,REAL,FALSA
,,,,,,,,,,001,2024-06-07_07h47.14.076,empathy_intonation_perc,2024.1.4,Win32,60.24096386,,,,,,,,,,,,,,105,curgué,,,,,,308.2841,310.098,0,1,1.2803,,0,86,86,104,1,pseudoword,0,REAL,FALSA
,,,,,,,,,,001,2024-06-07_07h47.14.076,empathy_intonation_perc,2024.1.4,Win32,60.24096386,,,,,,,,,,,,,,103,babes,,,,,,310.0988,312.4953,1,0,1.8613,,0,87,87,102,1,pseudoword,0,REAL,FALSA
,,,,,,,,,,001,2024-06-07_07h47.14.076,empathy_intonation_perc,2024.1.4,Win32,60.24096386,,,,,,,,,,,,,,44,editor,,,,,,312.4959,314.2116,1,0,1.1863,,0,88,88,43,1,two_way_cognate,1,REAL,FALSA
,,,,,,,,,,001,2024-06-07_07h47.14.076,empathy_intonation_perc,2024.1.4,Win32,60.24096386,,,,,,,,,,,,,,124,lobe,,,,,,314.2125,316.9411,0,1,2.197,,0,89,89,123,1,pseudoword,0,REAL,FALSA
,,,,,,,,,,001,2024-06-07_07h47.14.076,empathy_intonation_perc,2024.1.4,Win32,60.24096386,,,,,,,,,,,,,,85,enorme,,,,,,316.9593,318.6397,0,1,1.15,,0,90,90,84,1,non_cognate,1,REAL,FALSA
,,,,,,,,,,001,2024-06-07_07h47.14.076,empathy_intonation_perc,2024.1.4,Win32,60.24096386,,,,,,,,,,,,,,75,patada,,,,,,318.6404,320.7882,0,1,1.6151,,0,91,91,74,1,non_cognate,1,REAL,FALSA
,,,,,,,,,,001,2024-06-07_07h47.14.076,empathy_intonation_perc,2024.1.4,Win32,60.24096386,,,,,,,,,,,,,,82,brillo,,,,,,320.7887,322.8685,0,1,1.5454,,0,92,92,81,1,non_cognate,1,REAL,FALSA
,,,,,,,,,,001,2024-06-07_07h47.14.076,empathy_intonation_perc,2024.1.4,Win32,60.24096386,,,,,,,,,,,,,,61,aduana,,,,,,322.869,324.0674,0,1,0.6643,,0,93,93,60,1,non_cognate,1,REAL,FALSA
,,,,,,,,,,001,2024-06-07_07h47.14.076,empathy_intonation_perc,2024.1.4,Win32,60.24096386,,,,,,,,,,,,,,87,muleta,,,,,,324.0679,325.3162,0,1,0.7137,,0,94,94,86,1,non_cognate,1,REAL,FALSA
,,,,,,,,,,001,2024-06-07_07h47.14.076,empathy_intonation_perc,2024.1.4,Win32,60.24096386,,,,,,,,,,,,,,115,civas,,,,,,325.3168,326.615,0,1,0.7656,,0,95,95,114,1,pseudoword,0,REAL,FALSA
,,,,,,,,,,001,2024-06-07_07h47.14.076,empathy_intonation_perc,2024.1.4,Win32,60.24096386,,,,,,,,,,,,,,143,pledú,,,,,,326.6157,327.8305,0,1,0.6806,,0,96,96,142,1,pseudoword,0,REAL,FALSA
,,,,,,,,,,001,2024-06-07_07h47.14.076,empathy_intonation_perc,2024.1.4,Win32,60.24096386,,,,,,,,,,,,,,98,erede,,,,,,327.8312,329.1125,0,1,0.7476,,0,97,97,97,1,pseudoword,0,REAL,FALSA
,,,,,,,,,,001,2024-06-07_07h47.14.076,empathy_intonation_perc,2024.1.4,Win32,60.24096386,,,,,,,,,,,,,,76,chocar,,,,,,329.1131,331.4111,1,0,1.7634,,0,98,98,75,1,non_cognate,1,REAL,FALSA
,,,,,,,,,,001,2024-06-07_07h47.14.076,empathy_intonation_perc,2024.1.4,Win32,60.24096386,,,,,,,,,,,,,,16,clan,,,,,,331.4119,334.3573,1,0,2.4139,,0,99,99,15,1,three_way_cognate,1,REAL,FALSA
,,,,,,,,,,001,2024-06-07_07h47.14.076,empathy_intonation_perc,2024.1.4,Win32,60.24096386,,,,,,,,,,,,,,77,suave,,,,,,334.3577,335.7066,1,0,0.8294,,0,100,100,76,1,non_cognate,1,REAL,FALSA
,,,,,,,,,,001,2024-06-07_07h47.14.076,empathy_intonation_perc,2024.1.4,Win32,60.24096386,,,,,,,,,,,,,,2,disco,,,,,,335.7072,336.9215,1,0,0.6792,,0,101,101,1,1,three_way_cognate,1,REAL,FALSA
,,,,,,,,,,001,2024-06-07_07h47.14.076,empathy_intonation_perc,2024.1.4,Win32,60.24096386,,,,,,,,,,,,,,10,golf,,,,,,336.9222,337.9706,1,0,0.5171,,0,102,102,9,1,three_way_cognate,1,REAL,FALSA
,,,,,,,,,,001,2024-06-07_07h47.14.076,empathy_intonation_perc,2024.1.4,Win32,60.24096386,,,,,,,,,,,,,,74,ala,,,,,,337.9711,339.7188,0,1,1.2207,,0,103,103,73,1,non_cognate,1,REAL,FALSA
,,,,,,,,,,001,2024-06-07_07h47.14.076,empathy_intonation_perc,2024.1.4,Win32,60.24096386,,,,,,,,,,,,,,32,animal,,,,,,339.7194,341.1677,1,0,0.9158,,0,104,104,31,1,two_way_cognate,1,REAL,FALSA
,,,,,,,,,,001,2024-06-07_07h47.14.076,empathy_intonation_perc,2024.1.4,Win32,60.24096386,,,,,,,,,,,,,,57,regalo,,,,,,341.1684,342.6165,1,0,0.9154,,0,105,105,56,1,non_cognate,1,REAL,FALSA
,,,,,,,,,,001,2024-06-07_07h47.14.076,empathy_intonation_perc,2024.1.4,Win32,60.24096386,,,,,,,,,,,,,,25,vigor,,,,,,342.6172,343.8322,1,0,0.6813,,0,106,106,24,1,two_way_cognate,1,REAL,FALSA
,,,,,,,,,,001,2024-06-07_07h47.14.076,empathy_intonation_perc,2024.1.4,Win32,60.24096386,,,,,,,,,,,,,,31,civil,,,,,,343.833,345.4637,1,0,1.0992,,0,107,107,30,1,two_way_cognate,1,REAL,FALSA
,,,,,,,,,,001,2024-06-07_07h47.14.076,empathy_intonation_perc,2024.1.4,Win32,60.24096386,,,,,,,,,,,,,,12,plan,,,,,,345.4644,346.4958,1,0,0.5007,,0,108,108,11,1,three_way_cognate,1,REAL,FALSA
,,,,,,,,,,001,2024-06-07_07h47.14.076,empathy_intonation_perc,2024.1.4,Win32,60.24096386,,,,,,,,,,,,,,29,clamor,,,,,,346.4963,347.9944,1,0,0.9651,,0,109,109,28,1,two_way_cognate,1,REAL,FALSA
,,,,,,,,,,001,2024-06-07_07h47.14.076,empathy_intonation_perc,2024.1.4,Win32,60.24096386,,,,,,,,,,,,,,9,drama,,,,,,347.995,349.6941,1,0,1.1701,,0,110,110,8,1,three_way_cognate,1,REAL,FALSA
,,,,,,,,,,001,2024-06-07_07h47.14.076,empathy_intonation_perc,2024.1.4,Win32,60.24096386,,,,,,,,,,,,,,110,vacapó,,,,,,349.6952,353.4398,1,0,3.2111,,0,111,111,109,1,pseudoword,0,REAL,FALSA
,,,,,,,,,,001,2024-06-07_07h47.14.076,empathy_intonation_perc,2024.1.4,Win32,60.24096386,,,,,,,,,,,,,,80,cuenco,,,,,,353.4586,358.2009,0,1,4.2127,,0,112,112,79,1,non_cognate,1,REAL,FALSA
,,,,,,,,,,001,2024-06-07_07h47.14.076,empathy_intonation_perc,2024.1.4,Win32,60.24096386,,,,,,,,,,,,,,50,sierra,,,,,,358.2177,359.9334,1,0,1.182,,0,113,113,49,1,non_cognate,1,REAL,FALSA
,,,,,,,,,,001,2024-06-07_07h47.14.076,empathy_intonation_perc,2024.1.4,Win32,60.24096386,,,,,,,,,,,,,,51,listo,,,,,,359.9339,361.1496,1,0,0.6836,,0,114,114,50,1,non_cognate,1,REAL,FALSA
,,,,,,,,,,001,2024-06-07_07h47.14.076,empathy_intonation_perc,2024.1.4,Win32,60.24096386,,,,,,,,,,,,,,47,color,,,,,,361.1507,362.2468,1,0,0.5676,,0,115,115,46,1,two_way_cognate,1,REAL,FALSA
,,,,,,,,,,001,2024-06-07_07h47.14.076,empathy_intonation_perc,2024.1.4,Win32,60.24096386,,,,,,,,,,,,,,37,torso,,,,,,362.2473,363.7624,1,0,0.9819,,0,116,116,36,1,two_way_cognate,1,REAL,FALSA
,,,,,,,,,,001,2024-06-07_07h47.14.076,empathy_intonation_perc,2024.1.4,Win32,60.24096386,,,,,,,,,,,,,,125,ceme,,,,,,363.7631,366.393,0,1,2.0969,,0,117,117,124,1,pseudoword,0,REAL,FALSA
,,,,,,,,,,001,2024-06-07_07h47.14.076,empathy_intonation_perc,2024.1.4,Win32,60.24096386,,,,,,,,,,,,,,121,rombar,,,,,,366.3937,368.3913,1,0,1.4601,,0,118,118,120,1,pseudoword,0,REAL,FALSA
,,,,,,,,,,001,2024-06-07_07h47.14.076,empathy_intonation_perc,2024.1.4,Win32,60.24096386,,,,,,,,,,,,,,26,enigma,,,,,,368.3922,369.6902,1,0,0.7627,,0,119,119,25,1,two_way_cognate,1,REAL,FALSA
,,,,,,,,,,001,2024-06-07_07h47.14.076,empathy_intonation_perc,2024.1.4,Win32,60.24096386,,,,,,,,,,,,,,27,piano,,,,,,369.6909,370.8218,1,0,0.5978,,0,120,120,26,1,two_way_cognate,1,REAL,FALSA
,,,,,,,,,,001,2024-06-07_07h47.14.076,empathy_intonation_perc,2024.1.4,Win32,60.24096386,,,,,,,,,,,,,,67,llamar,,,,,,370.8225,371.9378,1,0,0.5809,,0,121,121,66,1,non_cognate,1,REAL,FALSA
,,,,,,,,,,001,2024-06-07_07h47.14.076,empathy_intonation_perc,2024.1.4,Win32,60.24096386,,,,,,,,,,,,,,11,dogma,,,,,,371.9384,373.4034,1,0,0.9328,,0,122,122,10,1,three_way_cognate,1,REAL,FALSA
,,,,,,,,,,001,2024-06-07_07h47.14.076,empathy_intonation_perc,2024.1.4,Win32,60.24096386,,,,,,,,,,,,,,118,bará,,,,,,373.4041,376.2499,0,1,2.3119,,0,123,123,117,1,pseudoword,0,REAL,FALSA
,,,,,,,,,,001,2024-06-07_07h47.14.076,empathy_intonation_perc,2024.1.4,Win32,60.24096386,,,,,,,,,,,,,,6,albino,,,,,,376.2508,378.0481,1,0,1.2666,,0,124,124,5,1,three_way_cognate,1,REAL,FALSA
,,,,,,,,,,001,2024-06-07_07h47.14.076,empathy_intonation_perc,2024.1.4,Win32,60.24096386,,,,,,,,,,,,,,137,unglés,,,,,,378.0485,379.9631,0,1,1.3819,,0,125,125,136,1,pseudoword,0,REAL,FALSA
,,,,,,,,,,001,2024-06-07_07h47.14.076,empathy_intonation_perc,2024.1.4,Win32,60.24096386,,,,,,,,,,,,,,46,mortal,,,,,,379.9639,381.5951,1,0,1.0993,,0,126,126,45,1,two_way_cognate,1,REAL,FALSA
,,,,,,,,,,001,2024-06-07_07h47.14.076,empathy_intonation_perc,2024.1.4,Win32,60.24096386,,,,,,,,,,,,,,70,ánimo,,,,,,381.5956,384.5753,1,0,2.4489,,0,127,127,69,1,non_cognate,1,REAL,FALSA
,,,,,,,,,,001,2024-06-07_07h47.14.076,empathy_intonation_perc,2024.1.4,Win32,60.24096386,,,,,,,,,,,,,,126,anicio,,,,,,384.5761,386.4412,0,1,1.3297,,0,128,128,125,1,pseudoword,0,REAL,FALSA
,,,,,,,,,,001,2024-06-07_07h47.14.076,empathy_intonation_perc,2024.1.4,Win32,60.24096386,,,,,,,,,,,,,,45,total,,,,,,386.4417,388.2056,1,0,1.2306,,0,129,129,44,1,two_way_cognate,1,REAL,FALSA
,,,,,,,,,,001,2024-06-07_07h47.14.076,empathy_intonation_perc,2024.1.4,Win32,60.24096386,,,,,,,,,,,,,,65,guerra,,,,,,388.2062,390.6023,1,0,1.8652,,0,130,130,64,1,non_cognate,1,REAL,FALSA
,,,,,,,,,,001,2024-06-07_07h47.14.076,empathy_intonation_perc,2024.1.4,Win32,60.24096386,,,,,,,,,,,,,,81,sacar,,,,,,390.6028,391.801,1,0,0.6677,,0,131,131,80,1,non_cognate,1,REAL,FALSA
,,,,,,,,,,001,2024-06-07_07h47.14.076,empathy_intonation_perc,2024.1.4,Win32,60.24096386,,,,,,,,,,,,,,1,tumor,,,,,,391.8015,392.8673,1,0,0.5297,,0,132,132,0,1,three_way_cognate,1,REAL,FALSA
,,,,,,,,,,001,2024-06-07_07h47.14.076,empathy_intonation_perc,2024.1.4,Win32,60.24096386,,,,,,,,,,,,,,62,pegar,,,,,,392.868,394.4163,1,0,1.0162,,0,133,133,61,1,non_cognate,1,REAL,FALSA
,,,,,,,,,,001,2024-06-07_07h47.14.076,empathy_intonation_perc,2024.1.4,Win32,60.24096386,,,,,,,,,,,,,,86,cuenco,,,,,,394.4168,396.7471,1,0,1.798,,0,134,134,85,1,non_cognate,1,REAL,FALSA
,,,,,,,,,,001,2024-06-07_07h47.14.076,empathy_intonation_perc,2024.1.4,Win32,60.24096386,,,,,,,,,,,,,,40,pelvis,,,,,,396.7477,397.9132,1,0,0.6314,,0,135,135,39,1,two_way_cognate,1,REAL,FALSA
,,,,,,,,,,001,2024-06-07_07h47.14.076,empathy_intonation_perc,2024.1.4,Win32,60.24096386,,,,,,,,,,,,,,34,actor,,,,,,397.9141,399.0444,1,0,0.5974,,0,136,136,33,1,two_way_cognate,1,REAL,FALSA
,,,,,,,,,,001,2024-06-07_07h47.14.076,empathy_intonation_perc,2024.1.4,Win32,60.24096386,,,,,,,,,,,,,,138,glural,,,,,,399.0454,401.1429,0,1,1.5631,,0,137,137,137,1,pseudoword,0,REAL,FALSA
,,,,,,,,,,001,2024-06-07_07h47.14.076,empathy_intonation_perc,2024.1.4,Win32,60.24096386,,,,,,,,,,,,,,15,chat,,,,,,401.1623,403.3732,1,0,1.6785,,0,138,138,14,1,three_way_cognate,1,REAL,FALSA
,,,,,,,,,,001,2024-06-07_07h47.14.076,empathy_intonation_perc,2024.1.4,Win32,60.24096386,,,,,,,,,,,,,,132,nocó,,,,,,403.374,405.0885,0,1,1.185,,0,139,139,131,1,pseudoword,0,REAL,FALSA
,,,,,,,,,,001,2024-06-07_07h47.14.076,empathy_intonation_perc,2024.1.4,Win32,60.24096386,,,,,,,,,,,,,,64,rizado,,,,,,405.089,406.9376,0,1,1.3141,,0,140,140,63,1,non_cognate,1,REAL,FALSA
,,,,,,,,,,001,2024-06-07_07h47.14.076,empathy_intonation_perc,2024.1.4,Win32,60.24096386,,,,,,,,,,,,,,4,extra,,,,,,406.9382,408.5184,1,0,1.0454,,0,141,141,3,1,three_way_cognate,1,REAL,FALSA
,,,,,,,,,,001,2024-06-07_07h47.14.076,empathy_intonation_perc,2024.1.4,Win32,60.24096386,,,,,,,,,,,,,,60,siglo,,,,,,408.5189,410.2664,0,1,1.2191,,0,142,142,59,1,non_cognate,1,REAL,FALSA
,,,,,,,,,,001,2024-06-07_07h47.14.076,empathy_intonation_perc,2024.1.4,Win32,60.24096386,,,,,,,,,,,,,,90,venado,,,,,,410.2669,412.1487,0,1,1.3453,,0,143,143,89,1,non_cognate,1,REAL,FALSA
