lextale_instructions.started,lextale_instructions.stopped,lextale_instructions_loop.thisRepN,lextale_instructions_loop.thisTrialN,lextale_instructions_loop.thisN,lextale_instructions_loop.thisIndex,lextale_instructions_loop.ran,instructions_text,continue_text,participant,session,date,expName,psychopyVersion,OS,frameRate,lextale_practice.started,lextale_practice.stopped,key_resp_lextale_practice.keys,key_resp_lextale_practice.corr,key_resp_lextale_practice.rt,key_resp_lextale_practice.duration,lextale_practice_feedback.started,lextale_practice_feedback.stopped,lextale_practice_trials.thisRepN,lextale_practice_trials.thisTrialN,lextale_practice_trials.thisN,lextale_practice_trials.thisIndex,lextale_practice_trials.ran,stim,word,correct_response,prac_button_real,prac_button_false,lextale_check.started,lextale_check.stopped,lextale_trial.started,lextale_trial.stopped,key_resp_lextale_trial.keys,key_resp_lextale_trial.corr,key_resp_lextale_trial.rt,key_resp_lextale_trial.duration,lextail_trials.thisRepN,lextail_trials.thisTrialN,lextail_trials.thisN,lextail_trials.thisIndex,lextail_trials.ran,type,correct_reponse,button_real,button_false
0.0041,3.7228,0,0,0,0,1,"Este es un test de vocabulario en español. 
  
  A continuación vas a ver 90 secuencias de letras que parecen 'españolas'.
  
  Solo algunas de ellas son palabras de verdad.",(presiona la barra espaciadora para continuar),,001,2024-06-07_07h11.49.048,empathy_intonation_perc,2024.1.4,Win32,60.24096386,,,,,,,,,,,,,,,,,,,,,,,,,,,,,,,,,,,
3.7245,8.2048,0,1,1,1,1,"Por favor, señala las palabras que tú conoces (aquellas que estás convencido que son palabras españolas, incluso aunque no seas capaz de dar el significado preciso).",(presiona la barra espaciadora para continuar),,001,2024-06-07_07h11.49.048,empathy_intonation_perc,2024.1.4,Win32,60.24096386,,,,,,,,,,,,,,,,,,,,,,,,,,,,,,,,,,,
8.2055,11.5892,0,2,2,2,1,Pero cuidado: los errores se penalizan. Por eso no tiene sentido tratar de incrementar tu puntuación marcando como reales palabras que nunca has visto.,(presiona la barra espaciadora para continuar),,001,2024-06-07_07h11.49.048,empathy_intonation_perc,2024.1.4,Win32,60.24096386,,,,,,,,,,,,,,,,,,,,,,,,,,,,,,,,,,,
11.5902,16.8725,0,3,3,3,1,"Presiona la tecla 1 si piensas que es una palabra real y la tecla 
  0 si piensas que es una palabra falsa. 
  
  Vamos a practicar un poco...",(presiona la barra espaciadora para continuar),,001,2024-06-07_07h11.49.048,empathy_intonation_perc,2024.1.4,Win32,60.24096386,,,,,,,,,,,,,,,,,,,,,,,,,,,,,,,,,,,
,,,,,,,,,,001,2024-06-07_07h11.49.048,empathy_intonation_perc,2024.1.4,Win32,60.24096386,16.8775,21.3424,0,1,3.9333,,21.3426,22.3416,0,0,0,0,1,0,depiste,0,REAL,FALSA,,,,,,,,,,,,,,,,,
,,,,,,,,,,001,2024-06-07_07h11.49.048,empathy_intonation_perc,2024.1.4,Win32,60.24096386,22.3423,24.7088,1,1,1.8328,,24.7089,25.7063,0,1,1,1,1,0,sí,1,REAL,FALSA,,,,,,,,,,,,,,,,,
,,,,,,,,,,001,2024-06-07_07h11.49.048,empathy_intonation_perc,2024.1.4,Win32,60.24096386,25.7072,27.5896,0,1,1.3449,,27.5898,28.5896,0,2,2,2,1,0,coné,0,REAL,FALSA,,,,,,,,,,,,,,,,,
,,,,,,,,,,001,2024-06-07_07h11.49.048,empathy_intonation_perc,2024.1.4,Win32,60.24096386,28.5904,30.5596,1,0,1.4343,,30.5598,31.5596,0,3,3,3,1,0,calpar,0,REAL,FALSA,,,,,,,,,,,,,,,,,
,,,,,,,,,,001,2024-06-07_07h11.49.048,empathy_intonation_perc,2024.1.4,Win32,60.24096386,31.5602,33.4081,0,1,1.3156,,33.4082,34.4065,0,4,4,4,1,0,joten,0,REAL,FALSA,,,,,,,,,,,,,,,,,
,,,,,,,,,,001,2024-06-07_07h11.49.048,empathy_intonation_perc,2024.1.4,Win32,60.24096386,34.4073,36.2435,0,0,1.3005,,36.2436,37.2424,0,5,5,5,1,0,sacapuntas,1,REAL,FALSA,,,,,,,,,,,,,,,,,
,,,,,,,,,,001,2024-06-07_07h11.49.048,empathy_intonation_perc,2024.1.4,Win32,60.24096386,37.243,38.9064,0,1,1.1456,,38.9067,39.9069,0,6,6,6,1,0,priba,0,REAL,FALSA,,,,,,,,,,,,,,,,,
,,,,,,,,,,001,2024-06-07_07h11.49.048,empathy_intonation_perc,2024.1.4,Win32,60.24096386,39.9078,41.4774,0,1,1.0511,,41.4775,42.477,0,7,7,7,1,0,pelasula,0,REAL,FALSA,,,,,,,,,,,,,,,,,
,,,,,,,,,,001,2024-06-07_07h11.49.048,empathy_intonation_perc,2024.1.4,Win32,60.24096386,42.4775,43.8603,1,1,0.8498,,43.8604,44.8576,0,8,8,8,1,0,bien,1,REAL,FALSA,,,,,,,,,,,,,,,,,
,,,,,,,,,,001,2024-06-07_07h11.49.048,empathy_intonation_perc,2024.1.4,Win32,60.24096386,44.8582,46.2071,1,1,0.8049,,46.2073,47.2068,0,9,9,9,1,0,casa,1,REAL,FALSA,,,,,,,,,,,,,,,,,
,,,,,,,,,,001,2024-06-07_07h11.49.048,empathy_intonation_perc,2024.1.4,Win32,60.24096386,47.2078,48.6744,1,0,0.9187,,48.6748,49.6759,0,10,10,10,1,0,lejo,0,REAL,FALSA,,,,,,,,,,,,,,,,,
,,,,,,,,,,001,2024-06-07_07h11.49.048,empathy_intonation_perc,2024.1.4,Win32,60.24096386,49.6765,51.1102,0,1,0.8991,,51.1103,52.1075,0,11,11,11,1,0,pretantas,0,REAL,FALSA,,,,,,,,,,,,,,,,,
,,,,,,,,,,001,2024-06-07_07h11.49.048,empathy_intonation_perc,2024.1.4,Win32,60.24096386,,,,,,,,,,,,,,,,,,,52.1086,54.5412,,,,,,,,,,,,,,,
,,,,,,,,,,001,2024-06-07_07h11.49.048,empathy_intonation_perc,2024.1.4,Win32,60.24096386,,,,,,,,,,,,,,93,tapa,,,,,,54.5531,56.3755,1,0,1.2924,,0,0,0,92,1,non_cognate,1,REAL,FALSA
,,,,,,,,,,001,2024-06-07_07h11.49.048,empathy_intonation_perc,2024.1.4,Win32,60.24096386,,,,,,,,,,,,,,51,listo,,,,,,56.3764,58.1083,1,0,1.1903,,0,1,1,50,1,non_cognate,1,REAL,FALSA
,,,,,,,,,,001,2024-06-07_07h11.49.048,empathy_intonation_perc,2024.1.4,Win32,60.24096386,,,,,,,,,,,,,,2,disco,,,,,,58.1088,59.8588,1,0,1.2307,,0,2,2,1,1,three_way_cognate,1,REAL,FALSA
,,,,,,,,,,001,2024-06-07_07h11.49.048,empathy_intonation_perc,2024.1.4,Win32,60.24096386,,,,,,,,,,,,,,97,hufón,,,,,,59.8594,61.0759,0,1,0.6809,,0,3,3,96,1,pseudoword,0,REAL,FALSA
,,,,,,,,,,001,2024-06-07_07h11.49.048,empathy_intonation_perc,2024.1.4,Win32,60.24096386,,,,,,,,,,,,,,130,dubo,,,,,,61.0763,62.6422,0,1,1.027,,0,4,4,129,1,pseudoword,0,REAL,FALSA
,,,,,,,,,,001,2024-06-07_07h11.49.048,empathy_intonation_perc,2024.1.4,Win32,60.24096386,,,,,,,,,,,,,,90,venado,,,,,,62.6429,64.2458,0,1,1.0676,,0,5,5,89,1,non_cognate,1,REAL,FALSA
,,,,,,,,,,001,2024-06-07_07h11.49.048,empathy_intonation_perc,2024.1.4,Win32,60.24096386,,,,,,,,,,,,,,8,portal,,,,,,64.2464,65.8955,1,0,1.1175,,0,6,6,7,1,three_way_cognate,1,REAL,FALSA
,,,,,,,,,,001,2024-06-07_07h11.49.048,empathy_intonation_perc,2024.1.4,Win32,60.24096386,,,,,,,,,,,,,,22,plural,,,,,,65.8963,67.2775,0,1,0.8492,,0,7,7,21,1,three_way_cognate,1,REAL,FALSA
,,,,,,,,,,001,2024-06-07_07h11.49.048,empathy_intonation_perc,2024.1.4,Win32,60.24096386,,,,,,,,,,,,,,9,drama,,,,,,67.2777,69.0593,1,0,1.2403,,0,8,8,8,1,three_way_cognate,1,REAL,FALSA
,,,,,,,,,,001,2024-06-07_07h11.49.048,empathy_intonation_perc,2024.1.4,Win32,60.24096386,,,,,,,,,,,,,,45,total,,,,,,69.0598,70.3091,1,0,0.7134,,0,9,9,44,1,two_way_cognate,1,REAL,FALSA
,,,,,,,,,,001,2024-06-07_07h11.49.048,empathy_intonation_perc,2024.1.4,Win32,60.24096386,,,,,,,,,,,,,,11,dogma,,,,,,70.3099,71.8125,0,1,0.9837,,0,10,10,10,1,three_way_cognate,1,REAL,FALSA
,,,,,,,,,,001,2024-06-07_07h11.49.048,empathy_intonation_perc,2024.1.4,Win32,60.24096386,,,,,,,,,,,,,,138,glural,,,,,,71.8135,73.2924,0,1,0.9429,,0,11,11,137,1,pseudoword,0,REAL,FALSA
,,,,,,,,,,001,2024-06-07_07h11.49.048,empathy_intonation_perc,2024.1.4,Win32,60.24096386,,,,,,,,,,,,,,124,lobe,,,,,,73.2932,74.7928,1,0,0.9546,,0,12,12,123,1,pseudoword,0,REAL,FALSA
,,,,,,,,,,001,2024-06-07_07h11.49.048,empathy_intonation_perc,2024.1.4,Win32,60.24096386,,,,,,,,,,,,,,83,hálito,,,,,,74.7937,76.0259,0,1,0.6893,,0,13,13,82,1,non_cognate,1,REAL,FALSA
,,,,,,,,,,001,2024-06-07_07h11.49.048,empathy_intonation_perc,2024.1.4,Win32,60.24096386,,,,,,,,,,,,,,127,vien,,,,,,76.0268,77.4596,0,1,0.8948,,0,14,14,126,1,pseudoword,0,REAL,FALSA
,,,,,,,,,,001,2024-06-07_07h11.49.048,empathy_intonation_perc,2024.1.4,Win32,60.24096386,,,,,,,,,,,,,,108,viarle,,,,,,77.4604,78.7096,0,1,0.7055,,0,15,15,107,1,pseudoword,0,REAL,FALSA
,,,,,,,,,,001,2024-06-07_07h11.49.048,empathy_intonation_perc,2024.1.4,Win32,60.24096386,,,,,,,,,,,,,,114,potos,,,,,,78.7103,80.3595,1,0,1.109,,0,16,16,113,1,pseudoword,0,REAL,FALSA
,,,,,,,,,,001,2024-06-07_07h11.49.048,empathy_intonation_perc,2024.1.4,Win32,60.24096386,,,,,,,,,,,,,,30,fiscal,,,,,,80.3604,81.6969,1,0,0.8175,,0,17,17,29,1,two_way_cognate,1,REAL,FALSA
,,,,,,,,,,001,2024-06-07_07h11.49.048,empathy_intonation_perc,2024.1.4,Win32,60.24096386,,,,,,,,,,,,,,64,rizado,,,,,,81.6973,82.8934,0,1,0.6603,,0,18,18,63,1,non_cognate,1,REAL,FALSA
,,,,,,,,,,001,2024-06-07_07h11.49.048,empathy_intonation_perc,2024.1.4,Win32,60.24096386,,,,,,,,,,,,,,29,clamor,,,,,,82.8941,84.3473,0,1,0.9175,,0,19,19,28,1,two_way_cognate,1,REAL,FALSA
,,,,,,,,,,001,2024-06-07_07h11.49.048,empathy_intonation_perc,2024.1.4,Win32,60.24096386,,,,,,,,,,,,,,94,forro,,,,,,84.3479,85.6764,0,1,0.7915,,0,20,20,93,1,non_cognate,1,REAL,FALSA
,,,,,,,,,,001,2024-06-07_07h11.49.048,empathy_intonation_perc,2024.1.4,Win32,60.24096386,,,,,,,,,,,,,,69,tiza,,,,,,85.6774,86.9104,0,1,0.6946,,0,21,21,68,1,non_cognate,1,REAL,FALSA
,,,,,,,,,,001,2024-06-07_07h11.49.048,empathy_intonation_perc,2024.1.4,Win32,60.24096386,,,,,,,,,,,,,,37,torso,,,,,,86.9114,88.1136,1,0,0.684,,0,22,22,36,1,two_way_cognate,1,REAL,FALSA
,,,,,,,,,,001,2024-06-07_07h11.49.048,empathy_intonation_perc,2024.1.4,Win32,60.24096386,,,,,,,,,,,,,,24,retina,,,,,,88.1141,89.4292,1,0,0.7826,,0,23,23,23,1,three_way_cognate,1,REAL,FALSA
,,,,,,,,,,001,2024-06-07_07h11.49.048,empathy_intonation_perc,2024.1.4,Win32,60.24096386,,,,,,,,,,,,,,95,listo,,,,,,89.4297,90.7979,0,1,0.8341,,0,24,24,94,1,non_cognate,1,REAL,FALSA
,,,,,,,,,,001,2024-06-07_07h11.49.048,empathy_intonation_perc,2024.1.4,Win32,60.24096386,,,,,,,,,,,,,,63,hilo,,,,,,90.7983,92.3459,0,1,1.0158,,0,25,25,62,1,non_cognate,1,REAL,FALSA
,,,,,,,,,,001,2024-06-07_07h11.49.048,empathy_intonation_perc,2024.1.4,Win32,60.24096386,,,,,,,,,,,,,,107,plamos,,,,,,92.3465,93.5601,0,1,0.6704,,0,26,26,106,1,pseudoword,0,REAL,FALSA
,,,,,,,,,,001,2024-06-07_07h11.49.048,empathy_intonation_perc,2024.1.4,Win32,60.24096386,,,,,,,,,,,,,,33,collar,,,,,,93.5612,94.7941,1,0,0.691,,0,27,27,32,1,two_way_cognate,1,REAL,FALSA
,,,,,,,,,,001,2024-06-07_07h11.49.048,empathy_intonation_perc,2024.1.4,Win32,60.24096386,,,,,,,,,,,,,,110,vacapó,,,,,,94.795,95.9603,0,1,0.6297,,0,28,28,109,1,pseudoword,0,REAL,FALSA
,,,,,,,,,,001,2024-06-07_07h11.49.048,empathy_intonation_perc,2024.1.4,Win32,60.24096386,,,,,,,,,,,,,,132,nocó,,,,,,95.9612,97.1774,0,1,0.6786,,0,29,29,131,1,pseudoword,0,REAL,FALSA
,,,,,,,,,,001,2024-06-07_07h11.49.048,empathy_intonation_perc,2024.1.4,Win32,60.24096386,,,,,,,,,,,,,,55,maldad,,,,,,97.1783,98.431,0,1,0.7171,,0,30,30,54,1,non_cognate,1,REAL,FALSA
,,,,,,,,,,001,2024-06-07_07h11.49.048,empathy_intonation_perc,2024.1.4,Win32,60.24096386,,,,,,,,,,,,,,72,rostro,,,,,,98.4314,99.6773,0,1,0.7052,,0,31,31,71,1,non_cognate,1,REAL,FALSA
,,,,,,,,,,001,2024-06-07_07h11.49.048,empathy_intonation_perc,2024.1.4,Win32,60.24096386,,,,,,,,,,,,,,68,puñal,,,,,,99.6782,101.044,1,0,0.8295,,0,32,32,67,1,non_cognate,1,REAL,FALSA
,,,,,,,,,,001,2024-06-07_07h11.49.048,empathy_intonation_perc,2024.1.4,Win32,60.24096386,,,,,,,,,,,,,,98,erede,,,,,,101.0449,102.3645,0,1,0.7836,,0,33,33,97,1,pseudoword,0,REAL,FALSA
,,,,,,,,,,001,2024-06-07_07h11.49.048,empathy_intonation_perc,2024.1.4,Win32,60.24096386,,,,,,,,,,,,,,35,aurora,,,,,,102.3651,103.6153,1,0,0.7178,,0,34,34,34,1,two_way_cognate,1,REAL,FALSA
,,,,,,,,,,001,2024-06-07_07h11.49.048,empathy_intonation_perc,2024.1.4,Win32,60.24096386,,,,,,,,,,,,,,89,muñeca,,,,,,103.6159,104.9318,0,1,0.784,,0,35,35,88,1,non_cognate,1,REAL,FALSA
,,,,,,,,,,001,2024-06-07_07h11.49.048,empathy_intonation_perc,2024.1.4,Win32,60.24096386,,,,,,,,,,,,,,135,macayó,,,,,,104.9323,106.2317,0,1,0.7673,,0,36,36,134,1,pseudoword,0,REAL,FALSA
,,,,,,,,,,001,2024-06-07_07h11.49.048,empathy_intonation_perc,2024.1.4,Win32,60.24096386,,,,,,,,,,,,,,109,hágino,,,,,,106.2322,107.4322,0,1,0.6674,,0,37,37,108,1,pseudoword,0,REAL,FALSA
,,,,,,,,,,001,2024-06-07_07h11.49.048,empathy_intonation_perc,2024.1.4,Win32,60.24096386,,,,,,,,,,,,,,92,flecha,,,,,,107.4328,108.7491,0,1,0.7842,,0,38,38,91,1,non_cognate,1,REAL,FALSA
,,,,,,,,,,001,2024-06-07_07h11.49.048,empathy_intonation_perc,2024.1.4,Win32,60.24096386,,,,,,,,,,,,,,96,caro,,,,,,108.7495,110.2317,0,1,0.9503,,0,39,39,95,1,non_cognate,1,REAL,FALSA
,,,,,,,,,,001,2024-06-07_07h11.49.048,empathy_intonation_perc,2024.1.4,Win32,60.24096386,,,,,,,,,,,,,,115,civas,,,,,,110.2325,111.6615,1,0,0.8915,,0,40,40,114,1,pseudoword,0,REAL,FALSA
,,,,,,,,,,001,2024-06-07_07h11.49.048,empathy_intonation_perc,2024.1.4,Win32,60.24096386,,,,,,,,,,,,,,111,vibler,,,,,,111.6623,112.9313,0,1,0.7328,,0,41,41,110,1,pseudoword,0,REAL,FALSA
,,,,,,,,,,001,2024-06-07_07h11.49.048,empathy_intonation_perc,2024.1.4,Win32,60.24096386,,,,,,,,,,,,,,4,extra,,,,,,112.9321,114.179,1,0,0.7026,,0,42,42,3,1,three_way_cognate,1,REAL,FALSA
,,,,,,,,,,001,2024-06-07_07h11.49.048,empathy_intonation_perc,2024.1.4,Win32,60.24096386,,,,,,,,,,,,,,77,suave,,,,,,114.1798,115.4123,1,0,0.7088,,0,43,43,76,1,non_cognate,1,REAL,FALSA
,,,,,,,,,,001,2024-06-07_07h11.49.048,empathy_intonation_perc,2024.1.4,Win32,60.24096386,,,,,,,,,,,,,,133,tirafa,,,,,,115.4132,116.7128,0,1,0.7547,,0,44,44,132,1,pseudoword,0,REAL,FALSA
,,,,,,,,,,001,2024-06-07_07h11.49.048,empathy_intonation_perc,2024.1.4,Win32,60.24096386,,,,,,,,,,,,,,46,mortal,,,,,,116.7135,118.1958,1,0,0.9526,,0,45,45,45,1,two_way_cognate,1,REAL,FALSA
,,,,,,,,,,001,2024-06-07_07h11.49.048,empathy_intonation_perc,2024.1.4,Win32,60.24096386,,,,,,,,,,,,,,59,feo,,,,,,118.197,119.4658,0,1,0.7502,,0,46,46,58,1,non_cognate,1,REAL,FALSA
,,,,,,,,,,001,2024-06-07_07h11.49.048,empathy_intonation_perc,2024.1.4,Win32,60.24096386,,,,,,,,,,,,,,141,sumer,,,,,,119.4661,121.0649,0,1,1.0658,,0,47,47,140,1,pseudoword,0,REAL,FALSA
,,,,,,,,,,001,2024-06-07_07h11.49.048,empathy_intonation_perc,2024.1.4,Win32,60.24096386,,,,,,,,,,,,,,42,rumor,,,,,,121.0654,122.1798,1,0,0.5723,,0,48,48,41,1,two_way_cognate,1,REAL,FALSA
,,,,,,,,,,001,2024-06-07_07h11.49.048,empathy_intonation_perc,2024.1.4,Win32,60.24096386,,,,,,,,,,,,,,136,sopleó,,,,,,122.1804,123.383,0,1,0.6675,,0,49,49,135,1,pseudoword,0,REAL,FALSA
,,,,,,,,,,001,2024-06-07_07h11.49.048,empathy_intonation_perc,2024.1.4,Win32,60.24096386,,,,,,,,,,,,,,19,trauma,,,,,,123.3835,124.5319,1,0,0.6163,,0,50,50,18,1,three_way_cognate,1,REAL,FALSA
,,,,,,,,,,001,2024-06-07_07h11.49.048,empathy_intonation_perc,2024.1.4,Win32,60.24096386,,,,,,,,,,,,,,102,coyo,,,,,,124.5324,125.7002,0,1,0.6511,,0,51,51,101,1,pseudoword,0,REAL,FALSA
,,,,,,,,,,001,2024-06-07_07h11.49.048,empathy_intonation_perc,2024.1.4,Win32,60.24096386,,,,,,,,,,,,,,58,colcha,,,,,,125.7007,127.1836,0,1,0.9507,,0,52,52,57,1,non_cognate,1,REAL,FALSA
,,,,,,,,,,001,2024-06-07_07h11.49.048,empathy_intonation_perc,2024.1.4,Win32,60.24096386,,,,,,,,,,,,,,36,viable,,,,,,127.184,128.5002,1,0,0.7842,,0,53,53,35,1,two_way_cognate,1,REAL,FALSA
,,,,,,,,,,001,2024-06-07_07h11.49.048,empathy_intonation_perc,2024.1.4,Win32,60.24096386,,,,,,,,,,,,,,131,fuar,,,,,,128.5006,129.7997,0,1,0.7669,,0,54,54,130,1,pseudoword,0,REAL,FALSA
,,,,,,,,,,001,2024-06-07_07h11.49.048,empathy_intonation_perc,2024.1.4,Win32,60.24096386,,,,,,,,,,,,,,25,vigor,,,,,,129.8003,131.0123,1,0,0.6787,,0,55,55,24,1,two_way_cognate,1,REAL,FALSA
,,,,,,,,,,001,2024-06-07_07h11.49.048,empathy_intonation_perc,2024.1.4,Win32,60.24096386,,,,,,,,,,,,,,129,suchas,,,,,,131.0131,132.9138,0,1,1.3644,,0,56,56,128,1,pseudoword,0,REAL,FALSA
,,,,,,,,,,001,2024-06-07_07h11.49.048,empathy_intonation_perc,2024.1.4,Win32,60.24096386,,,,,,,,,,,,,,57,regalo,,,,,,132.9145,134.3465,1,0,0.9083,,0,57,57,56,1,non_cognate,1,REAL,FALSA
,,,,,,,,,,001,2024-06-07_07h11.49.048,empathy_intonation_perc,2024.1.4,Win32,60.24096386,,,,,,,,,,,,,,128,pelí,,,,,,134.3475,135.867,1,0,1.0006,,0,58,58,127,1,pseudoword,0,REAL,FALSA
,,,,,,,,,,001,2024-06-07_07h11.49.048,empathy_intonation_perc,2024.1.4,Win32,60.24096386,,,,,,,,,,,,,,3,flora,,,,,,135.8675,137.1004,1,0,0.7005,,0,59,59,2,1,three_way_cognate,1,REAL,FALSA
,,,,,,,,,,001,2024-06-07_07h11.49.048,empathy_intonation_perc,2024.1.4,Win32,60.24096386,,,,,,,,,,,,,,122,gravés,,,,,,137.1009,138.4503,0,1,0.8168,,0,60,60,121,1,pseudoword,0,REAL,FALSA
,,,,,,,,,,001,2024-06-07_07h11.49.048,empathy_intonation_perc,2024.1.4,Win32,60.24096386,,,,,,,,,,,,,,103,babes,,,,,,138.4507,139.7306,1,0,0.7378,,0,61,61,102,1,pseudoword,0,REAL,FALSA
,,,,,,,,,,001,2024-06-07_07h11.49.048,empathy_intonation_perc,2024.1.4,Win32,60.24096386,,,,,,,,,,,,,,40,pelvis,,,,,,139.7314,141.0139,1,0,0.7588,,0,62,62,39,1,two_way_cognate,1,REAL,FALSA
,,,,,,,,,,001,2024-06-07_07h11.49.048,empathy_intonation_perc,2024.1.4,Win32,60.24096386,,,,,,,,,,,,,,10,golf,,,,,,141.0147,142.0811,1,0,0.5445,,0,63,63,9,1,three_way_cognate,1,REAL,FALSA
,,,,,,,,,,001,2024-06-07_07h11.49.048,empathy_intonation_perc,2024.1.4,Win32,60.24096386,,,,,,,,,,,,,,39,casual,,,,,,142.0817,143.3142,1,0,0.693,,0,64,64,38,1,two_way_cognate,1,REAL,FALSA
,,,,,,,,,,001,2024-06-07_07h11.49.048,empathy_intonation_perc,2024.1.4,Win32,60.24096386,,,,,,,,,,,,,,28,ardor,,,,,,143.3151,144.4975,0,1,0.6404,,0,65,65,27,1,two_way_cognate,1,REAL,FALSA
,,,,,,,,,,001,2024-06-07_07h11.49.048,empathy_intonation_perc,2024.1.4,Win32,60.24096386,,,,,,,,,,,,,,126,anicio,,,,,,144.4982,145.7508,0,1,0.717,,0,66,66,125,1,pseudoword,0,REAL,FALSA
,,,,,,,,,,001,2024-06-07_07h11.49.048,empathy_intonation_perc,2024.1.4,Win32,60.24096386,,,,,,,,,,,,,,85,enorme,,,,,,145.7513,147.131,0,1,0.8399,,0,67,67,84,1,non_cognate,1,REAL,FALSA
,,,,,,,,,,001,2024-06-07_07h11.49.048,empathy_intonation_perc,2024.1.4,Win32,60.24096386,,,,,,,,,,,,,,1,tumor,,,,,,147.132,148.5474,1,0,0.8888,,0,68,68,0,1,three_way_cognate,1,REAL,FALSA
,,,,,,,,,,001,2024-06-07_07h11.49.048,empathy_intonation_perc,2024.1.4,Win32,60.24096386,,,,,,,,,,,,,,86,cuenco,,,,,,148.5483,149.9835,0,1,0.8995,,0,69,69,85,1,non_cognate,1,REAL,FALSA
,,,,,,,,,,001,2024-06-07_07h11.49.048,empathy_intonation_perc,2024.1.4,Win32,60.24096386,,,,,,,,,,,,,,112,cituló,,,,,,149.9841,151.2307,0,1,0.7027,,0,70,70,111,1,pseudoword,0,REAL,FALSA
,,,,,,,,,,001,2024-06-07_07h11.49.048,empathy_intonation_perc,2024.1.4,Win32,60.24096386,,,,,,,,,,,,,,137,unglés,,,,,,151.2317,152.5313,0,1,0.7642,,0,71,71,136,1,pseudoword,0,REAL,FALSA
,,,,,,,,,,001,2024-06-07_07h11.49.048,empathy_intonation_perc,2024.1.4,Win32,60.24096386,,,,,,,,,,,,,,76,chocar,,,,,,152.5315,154.0316,0,1,0.9566,,0,72,72,75,1,non_cognate,1,REAL,FALSA
,,,,,,,,,,001,2024-06-07_07h11.49.048,empathy_intonation_perc,2024.1.4,Win32,60.24096386,,,,,,,,,,,,,,101,fertes,,,,,,154.0323,155.3021,0,1,0.7344,,0,73,73,100,1,pseudoword,0,REAL,FALSA
,,,,,,,,,,001,2024-06-07_07h11.49.048,empathy_intonation_perc,2024.1.4,Win32,60.24096386,,,,,,,,,,,,,,87,muleta,,,,,,155.3025,156.5859,0,1,0.751,,0,74,74,86,1,non_cognate,1,REAL,FALSA
,,,,,,,,,,001,2024-06-07_07h11.49.048,empathy_intonation_perc,2024.1.4,Win32,60.24096386,,,,,,,,,,,,,,65,guerra,,,,,,156.5863,158.0485,1,0,0.9214,,0,75,75,64,1,non_cognate,1,REAL,FALSA
,,,,,,,,,,001,2024-06-07_07h11.49.048,empathy_intonation_perc,2024.1.4,Win32,60.24096386,,,,,,,,,,,,,,118,bará,,,,,,158.0492,159.5657,1,0,0.9917,,0,76,76,117,1,pseudoword,0,REAL,FALSA
,,,,,,,,,,001,2024-06-07_07h11.49.048,empathy_intonation_perc,2024.1.4,Win32,60.24096386,,,,,,,,,,,,,,113,difrás,,,,,,159.5663,160.8191,0,1,0.7174,,0,77,77,112,1,pseudoword,0,REAL,FALSA
,,,,,,,,,,001,2024-06-07_07h11.49.048,empathy_intonation_perc,2024.1.4,Win32,60.24096386,,,,,,,,,,,,,,74,ala,,,,,,160.8197,162.3858,1,0,1.034,,0,78,78,73,1,non_cognate,1,REAL,FALSA
,,,,,,,,,,001,2024-06-07_07h11.49.048,empathy_intonation_perc,2024.1.4,Win32,60.24096386,,,,,,,,,,,,,,91,equipo,,,,,,162.3865,163.6658,0,1,0.7401,,0,79,79,90,1,non_cognate,1,REAL,FALSA
,,,,,,,,,,001,2024-06-07_07h11.49.048,empathy_intonation_perc,2024.1.4,Win32,60.24096386,,,,,,,,,,,,,,6,albino,,,,,,163.6664,165.032,1,0,0.8427,,0,80,80,5,1,three_way_cognate,1,REAL,FALSA
,,,,,,,,,,001,2024-06-07_07h11.49.048,empathy_intonation_perc,2024.1.4,Win32,60.24096386,,,,,,,,,,,,,,17,altar,,,,,,165.0327,166.2323,1,0,0.6594,,0,81,81,16,1,three_way_cognate,1,REAL,FALSA
,,,,,,,,,,001,2024-06-07_07h11.49.048,empathy_intonation_perc,2024.1.4,Win32,60.24096386,,,,,,,,,,,,,,84,aviso,,,,,,166.2333,168.3198,1,0,1.551,,0,82,82,83,1,non_cognate,1,REAL,FALSA
,,,,,,,,,,001,2024-06-07_07h11.49.048,empathy_intonation_perc,2024.1.4,Win32,60.24096386,,,,,,,,,,,,,,75,patada,,,,,,168.3204,170.199,0,1,1.3462,,0,83,83,74,1,non_cognate,1,REAL,FALSA
,,,,,,,,,,001,2024-06-07_07h11.49.048,empathy_intonation_perc,2024.1.4,Win32,60.24096386,,,,,,,,,,,,,,139,furbos,,,,,,170.1998,171.3694,0,1,0.6341,,0,84,84,138,1,pseudoword,0,REAL,FALSA
,,,,,,,,,,001,2024-06-07_07h11.49.048,empathy_intonation_perc,2024.1.4,Win32,60.24096386,,,,,,,,,,,,,,82,brillo,,,,,,171.37,172.7369,1,0,0.8341,,0,85,85,81,1,non_cognate,1,REAL,FALSA
,,,,,,,,,,001,2024-06-07_07h11.49.048,empathy_intonation_perc,2024.1.4,Win32,60.24096386,,,,,,,,,,,,,,120,hierno,,,,,,172.7376,174.0995,0,1,0.8209,,0,86,86,119,1,pseudoword,0,REAL,FALSA
,,,,,,,,,,001,2024-06-07_07h11.49.048,empathy_intonation_perc,2024.1.4,Win32,60.24096386,,,,,,,,,,,,,,121,rombar,,,,,,174.1005,175.5993,0,1,0.9615,,0,87,87,120,1,pseudoword,0,REAL,FALSA
,,,,,,,,,,001,2024-06-07_07h11.49.048,empathy_intonation_perc,2024.1.4,Win32,60.24096386,,,,,,,,,,,,,,32,animal,,,,,,175.6003,176.7702,1,0,0.634,,0,88,88,31,1,two_way_cognate,1,REAL,FALSA
,,,,,,,,,,001,2024-06-07_07h11.49.048,empathy_intonation_perc,2024.1.4,Win32,60.24096386,,,,,,,,,,,,,,142,viseña,,,,,,176.7707,177.9864,0,1,0.6837,,0,89,89,141,1,pseudoword,0,REAL,FALSA
,,,,,,,,,,001,2024-06-07_07h11.49.048,empathy_intonation_perc,2024.1.4,Win32,60.24096386,,,,,,,,,,,,,,79,suelo,,,,,,177.987,179.2006,0,1,0.6803,,0,90,90,78,1,non_cognate,1,REAL,FALSA
,,,,,,,,,,001,2024-06-07_07h11.49.048,empathy_intonation_perc,2024.1.4,Win32,60.24096386,,,,,,,,,,,,,,116,crene,,,,,,179.201,180.3705,0,1,0.6343,,0,91,91,115,1,pseudoword,0,REAL,FALSA
,,,,,,,,,,001,2024-06-07_07h11.49.048,empathy_intonation_perc,2024.1.4,Win32,60.24096386,,,,,,,,,,,,,,16,clan,,,,,,180.371,181.6499,1,0,0.7395,,0,92,92,15,1,three_way_cognate,1,REAL,FALSA
,,,,,,,,,,001,2024-06-07_07h11.49.048,empathy_intonation_perc,2024.1.4,Win32,60.24096386,,,,,,,,,,,,,,104,vitra,,,,,,181.6507,183.1335,0,1,0.9451,,0,93,93,103,1,pseudoword,0,REAL,FALSA
,,,,,,,,,,001,2024-06-07_07h11.49.048,empathy_intonation_perc,2024.1.4,Win32,60.24096386,,,,,,,,,,,,,,66,aleta,,,,,,183.1344,184.4033,0,1,0.7335,,0,94,94,65,1,non_cognate,1,REAL,FALSA
,,,,,,,,,,001,2024-06-07_07h11.49.048,empathy_intonation_perc,2024.1.4,Win32,60.24096386,,,,,,,,,,,,,,71,torta,,,,,,184.4038,185.8001,1,0,0.8574,,0,95,95,70,1,non_cognate,1,REAL,FALSA
,,,,,,,,,,001,2024-06-07_07h11.49.048,empathy_intonation_perc,2024.1.4,Win32,60.24096386,,,,,,,,,,,,,,81,sacar,,,,,,185.8009,187.1169,0,1,0.7712,,0,96,96,80,1,non_cognate,1,REAL,FALSA
,,,,,,,,,,001,2024-06-07_07h11.49.048,empathy_intonation_perc,2024.1.4,Win32,60.24096386,,,,,,,,,,,,,,73,llevar,,,,,,187.1177,188.5867,1,0,0.9334,,0,97,97,72,1,non_cognate,1,REAL,FALSA
,,,,,,,,,,001,2024-06-07_07h11.49.048,empathy_intonation_perc,2024.1.4,Win32,60.24096386,,,,,,,,,,,,,,14,test,,,,,,188.5873,189.7045,1,0,0.584,,0,98,98,13,1,three_way_cognate,1,REAL,FALSA
,,,,,,,,,,001,2024-06-07_07h11.49.048,empathy_intonation_perc,2024.1.4,Win32,60.24096386,,,,,,,,,,,,,,144,piria,,,,,,189.705,190.8838,0,1,0.6456,,0,99,99,143,1,pseudoword,0,REAL,FALSA
,,,,,,,,,,001,2024-06-07_07h11.49.048,empathy_intonation_perc,2024.1.4,Win32,60.24096386,,,,,,,,,,,,,,49,teñir,,,,,,190.8847,192.1226,1,0,0.7196,,0,100,100,48,1,non_cognate,1,REAL,FALSA
,,,,,,,,,,001,2024-06-07_07h11.49.048,empathy_intonation_perc,2024.1.4,Win32,60.24096386,,,,,,,,,,,,,,140,vapen,,,,,,192.124,193.3843,0,1,0.7277,,0,101,101,139,1,pseudoword,0,REAL,FALSA
,,,,,,,,,,001,2024-06-07_07h11.49.048,empathy_intonation_perc,2024.1.4,Win32,60.24096386,,,,,,,,,,,,,,13,aura,,,,,,193.3853,194.5184,1,0,0.5974,,0,102,102,12,1,three_way_cognate,1,REAL,FALSA
,,,,,,,,,,001,2024-06-07_07h11.49.048,empathy_intonation_perc,2024.1.4,Win32,60.24096386,,,,,,,,,,,,,,27,piano,,,,,,194.5188,195.6682,1,0,0.6141,,0,103,103,26,1,two_way_cognate,1,REAL,FALSA
,,,,,,,,,,001,2024-06-07_07h11.49.048,empathy_intonation_perc,2024.1.4,Win32,60.24096386,,,,,,,,,,,,,,43,honor,,,,,,195.6689,196.7012,1,0,0.5056,,0,104,104,42,1,two_way_cognate,1,REAL,FALSA
,,,,,,,,,,001,2024-06-07_07h11.49.048,empathy_intonation_perc,2024.1.4,Win32,60.24096386,,,,,,,,,,,,,,143,pledú,,,,,,196.702,197.8048,0,1,0.5674,,0,105,105,142,1,pseudoword,0,REAL,FALSA
,,,,,,,,,,001,2024-06-07_07h11.49.048,empathy_intonation_perc,2024.1.4,Win32,60.24096386,,,,,,,,,,,,,,21,mango,,,,,,197.8053,199.0014,1,0,0.6528,,0,106,106,20,1,three_way_cognate,1,REAL,FALSA
,,,,,,,,,,001,2024-06-07_07h11.49.048,empathy_intonation_perc,2024.1.4,Win32,60.24096386,,,,,,,,,,,,,,119,esís,,,,,,199.0023,200.0671,0,1,0.5172,,0,107,107,118,1,pseudoword,0,REAL,FALSA
,,,,,,,,,,001,2024-06-07_07h11.49.048,empathy_intonation_perc,2024.1.4,Win32,60.24096386,,,,,,,,,,,,,,38,halo,,,,,,200.0679,201.1348,1,0,0.5265,,0,108,108,37,1,two_way_cognate,1,REAL,FALSA
,,,,,,,,,,001,2024-06-07_07h11.49.048,empathy_intonation_perc,2024.1.4,Win32,60.24096386,,,,,,,,,,,,,,100,medón,,,,,,201.1357,202.2875,0,1,0.6165,,0,109,109,99,1,pseudoword,0,REAL,FALSA
,,,,,,,,,,001,2024-06-07_07h11.49.048,empathy_intonation_perc,2024.1.4,Win32,60.24096386,,,,,,,,,,,,,,41,pasta,,,,,,202.2879,203.3222,1,0,0.5177,,0,110,110,40,1,two_way_cognate,1,REAL,FALSA
,,,,,,,,,,001,2024-06-07_07h11.49.048,empathy_intonation_perc,2024.1.4,Win32,60.24096386,,,,,,,,,,,,,,56,pico,,,,,,203.3228,204.6379,1,0,0.7832,,0,111,111,55,1,non_cognate,1,REAL,FALSA
,,,,,,,,,,001,2024-06-07_07h11.49.048,empathy_intonation_perc,2024.1.4,Win32,60.24096386,,,,,,,,,,,,,,134,fruzas,,,,,,204.6386,205.8872,0,1,0.7159,,0,112,112,133,1,pseudoword,0,REAL,FALSA
,,,,,,,,,,001,2024-06-07_07h11.49.048,empathy_intonation_perc,2024.1.4,Win32,60.24096386,,,,,,,,,,,,,,105,curgué,,,,,,205.8878,207.135,0,1,0.7118,,0,113,113,104,1,pseudoword,0,REAL,FALSA
,,,,,,,,,,001,2024-06-07_07h11.49.048,empathy_intonation_perc,2024.1.4,Win32,60.24096386,,,,,,,,,,,,,,5,horror,,,,,,207.1357,208.1852,1,0,0.5105,,0,114,114,4,1,three_way_cognate,1,REAL,FALSA
,,,,,,,,,,001,2024-06-07_07h11.49.048,empathy_intonation_perc,2024.1.4,Win32,60.24096386,,,,,,,,,,,,,,117,apunan,,,,,,208.1861,209.4221,0,1,0.7005,,0,115,115,116,1,pseudoword,0,REAL,FALSA
,,,,,,,,,,001,2024-06-07_07h11.49.048,empathy_intonation_perc,2024.1.4,Win32,60.24096386,,,,,,,,,,,,,,26,enigma,,,,,,209.4228,210.9016,1,0,0.9424,,0,116,116,25,1,two_way_cognate,1,REAL,FALSA
,,,,,,,,,,001,2024-06-07_07h11.49.048,empathy_intonation_perc,2024.1.4,Win32,60.24096386,,,,,,,,,,,,,,50,sierra,,,,,,210.9028,212.0861,1,0,0.6353,,0,117,117,49,1,non_cognate,1,REAL,FALSA
,,,,,,,,,,001,2024-06-07_07h11.49.048,empathy_intonation_perc,2024.1.4,Win32,60.24096386,,,,,,,,,,,,,,88,percha,,,,,,212.0866,213.4896,0,1,0.8674,,0,118,118,87,1,non_cognate,1,REAL,FALSA
,,,,,,,,,,001,2024-06-07_07h11.49.048,empathy_intonation_perc,2024.1.4,Win32,60.24096386,,,,,,,,,,,,,,48,pelvis,,,,,,213.4902,214.8053,1,0,0.7836,,0,119,119,47,1,two_way_cognate,1,REAL,FALSA
,,,,,,,,,,001,2024-06-07_07h11.49.048,empathy_intonation_perc,2024.1.4,Win32,60.24096386,,,,,,,,,,,,,,61,aduana,,,,,,214.806,215.9525,0,1,0.6115,,0,120,120,60,1,non_cognate,1,REAL,FALSA
,,,,,,,,,,001,2024-06-07_07h11.49.048,empathy_intonation_perc,2024.1.4,Win32,60.24096386,,,,,,,,,,,,,,125,ceme,,,,,,215.9534,217.2563,0,1,0.7675,,0,121,121,124,1,pseudoword,0,REAL,FALSA
,,,,,,,,,,001,2024-06-07_07h11.49.048,empathy_intonation_perc,2024.1.4,Win32,60.24096386,,,,,,,,,,,,,,31,civil,,,,,,217.2567,218.3859,1,0,0.5953,,0,122,122,30,1,two_way_cognate,1,REAL,FALSA
,,,,,,,,,,001,2024-06-07_07h11.49.048,empathy_intonation_perc,2024.1.4,Win32,60.24096386,,,,,,,,,,,,,,99,mieris,,,,,,218.3868,219.5714,0,1,0.6658,,0,123,123,98,1,pseudoword,0,REAL,FALSA
,,,,,,,,,,001,2024-06-07_07h11.49.048,empathy_intonation_perc,2024.1.4,Win32,60.24096386,,,,,,,,,,,,,,53,punta,,,,,,219.5719,220.8731,1,0,0.7674,,0,124,124,52,1,non_cognate,1,REAL,FALSA
,,,,,,,,,,001,2024-06-07_07h11.49.048,empathy_intonation_perc,2024.1.4,Win32,60.24096386,,,,,,,,,,,,,,18,mafia,,,,,,220.8736,222.0234,1,0,0.6177,,0,125,125,17,1,three_way_cognate,1,REAL,FALSA
,,,,,,,,,,001,2024-06-07_07h11.49.048,empathy_intonation_perc,2024.1.4,Win32,60.24096386,,,,,,,,,,,,,,78,rendir,,,,,,222.0238,223.153,0,1,0.5889,,0,126,126,77,1,non_cognate,1,REAL,FALSA
,,,,,,,,,,001,2024-06-07_07h11.49.048,empathy_intonation_perc,2024.1.4,Win32,60.24096386,,,,,,,,,,,,,,60,siglo,,,,,,223.1539,224.4197,0,1,0.7268,,0,127,127,59,1,non_cognate,1,REAL,FALSA
,,,,,,,,,,001,2024-06-07_07h11.49.048,empathy_intonation_perc,2024.1.4,Win32,60.24096386,,,,,,,,,,,,,,62,pegar,,,,,,224.4203,226.04,1,0,1.084,,0,128,128,61,1,non_cognate,1,REAL,FALSA
,,,,,,,,,,001,2024-06-07_07h11.49.048,empathy_intonation_perc,2024.1.4,Win32,60.24096386,,,,,,,,,,,,,,7,kilo,,,,,,226.0407,227.2738,1,0,0.7011,,0,129,129,6,1,three_way_cognate,1,REAL,FALSA
,,,,,,,,,,001,2024-06-07_07h11.49.048,empathy_intonation_perc,2024.1.4,Win32,60.24096386,,,,,,,,,,,,,,47,color,,,,,,227.2744,228.4067,1,0,0.6005,,0,130,130,46,1,two_way_cognate,1,REAL,FALSA
,,,,,,,,,,001,2024-06-07_07h11.49.048,empathy_intonation_perc,2024.1.4,Win32,60.24096386,,,,,,,,,,,,,,34,actor,,,,,,228.4072,229.4405,1,0,0.501,,0,131,131,33,1,two_way_cognate,1,REAL,FALSA
,,,,,,,,,,001,2024-06-07_07h11.49.048,empathy_intonation_perc,2024.1.4,Win32,60.24096386,,,,,,,,,,,,,,70,ánimo,,,,,,229.441,230.64,0,1,0.667,,0,132,132,69,1,non_cognate,1,REAL,FALSA
,,,,,,,,,,001,2024-06-07_07h11.49.048,empathy_intonation_perc,2024.1.4,Win32,60.24096386,,,,,,,,,,,,,,106,baurá,,,,,,230.6405,231.7535,0,1,0.5768,,0,133,133,105,1,pseudoword,0,REAL,FALSA
,,,,,,,,,,001,2024-06-07_07h11.49.048,empathy_intonation_perc,2024.1.4,Win32,60.24096386,,,,,,,,,,,,,,12,plan,,,,,,231.7541,232.8538,1,0,0.555,,0,134,134,11,1,three_way_cognate,1,REAL,FALSA
,,,,,,,,,,001,2024-06-07_07h11.49.048,empathy_intonation_perc,2024.1.4,Win32,60.24096386,,,,,,,,,,,,,,67,llamar,,,,,,232.8544,234.3234,1,0,0.9335,,0,135,135,66,1,non_cognate,1,REAL,FALSA
,,,,,,,,,,001,2024-06-07_07h11.49.048,empathy_intonation_perc,2024.1.4,Win32,60.24096386,,,,,,,,,,,,,,52,blando,,,,,,234.3241,235.9868,0,1,1.1231,,0,136,136,51,1,non_cognate,1,REAL,FALSA
,,,,,,,,,,001,2024-06-07_07h11.49.048,empathy_intonation_perc,2024.1.4,Win32,60.24096386,,,,,,,,,,,,,,15,chat,,,,,,235.9878,237.2231,1,0,0.6995,,0,137,137,14,1,three_way_cognate,1,REAL,FALSA
,,,,,,,,,,001,2024-06-07_07h11.49.048,empathy_intonation_perc,2024.1.4,Win32,60.24096386,,,,,,,,,,,,,,44,editor,,,,,,237.2237,238.3039,1,0,0.5382,,0,138,138,43,1,two_way_cognate,1,REAL,FALSA
,,,,,,,,,,001,2024-06-07_07h11.49.048,empathy_intonation_perc,2024.1.4,Win32,60.24096386,,,,,,,,,,,,,,20,hotel,,,,,,238.3048,239.3204,1,0,0.4782,,0,139,139,19,1,three_way_cognate,1,REAL,FALSA
,,,,,,,,,,001,2024-06-07_07h11.49.048,empathy_intonation_perc,2024.1.4,Win32,60.24096386,,,,,,,,,,,,,,54,tapón,,,,,,239.3213,240.8573,0,1,0.9997,,0,140,140,53,1,non_cognate,1,REAL,FALSA
,,,,,,,,,,001,2024-06-07_07h11.49.048,empathy_intonation_perc,2024.1.4,Win32,60.24096386,,,,,,,,,,,,,,80,cuenco,,,,,,240.858,242.0207,0,1,0.6267,,0,141,141,79,1,non_cognate,1,REAL,FALSA
,,,,,,,,,,001,2024-06-07_07h11.49.048,empathy_intonation_perc,2024.1.4,Win32,60.24096386,,,,,,,,,,,,,,123,escare,,,,,,242.0215,243.3208,0,1,0.7563,,0,142,142,122,1,pseudoword,0,REAL,FALSA
,,,,,,,,,,001,2024-06-07_07h11.49.048,empathy_intonation_perc,2024.1.4,Win32,60.24096386,,,,,,,,,,,,,,23,porno,,,,,,243.3215,245.1545,1,0,1.3028,,0,143,143,22,1,three_way_cognate,1,REAL,FALSA
