lextale_instructions.started,lextale_instructions.stopped,lextale_instructions_loop.thisRepN,lextale_instructions_loop.thisTrialN,lextale_instructions_loop.thisN,lextale_instructions_loop.thisIndex,lextale_instructions_loop.ran,instructions_text,continue_text,participant,session,date,expName,psychopyVersion,OS,frameRate,lextale_practice.started,lextale_practice.stopped,key_resp_lextale_practice.keys,key_resp_lextale_practice.corr,key_resp_lextale_practice.rt,key_resp_lextale_practice.duration,lextale_practice_feedback.started,lextale_practice_feedback.stopped,lextale_practice_trials.thisRepN,lextale_practice_trials.thisTrialN,lextale_practice_trials.thisN,lextale_practice_trials.thisIndex,lextale_practice_trials.ran,stim,word,correct_response,prac_button_real,prac_button_false,lextale_check.started,lextale_check.stopped,lextale_trial.started,lextale_trial.stopped,key_resp_lextale_trial.keys,key_resp_lextale_trial.corr,key_resp_lextale_trial.rt,key_resp_lextale_trial.duration,lextail_trials.thisRepN,lextail_trials.thisTrialN,lextail_trials.thisN,lextail_trials.thisIndex,lextail_trials.ran,type,correct_reponse,button_real,button_false
0.0115,52.7621,0,0,0,0,1,"Este es un test de vocabulario en español. 
  
  A continuación vas a ver 90 secuencias de letras que parecen 'españolas'.
  
  Solo algunas de ellas son palabras de verdad.",(presiona la barra espaciadora para continuar),,001,2024-06-07_08h37.27.088,empathy_intonation_perc,2024.1.4,Win32,59.88023952,,,,,,,,,,,,,,,,,,,,,,,,,,,,,,,,,,,
52.7989,66.1133,0,1,1,1,1,"Por favor, señala las palabras que tú conoces (aquellas que estás convencido que son palabras españolas, incluso aunque no seas capaz de dar el significado preciso).",(presiona la barra espaciadora para continuar),,001,2024-06-07_08h37.27.088,empathy_intonation_perc,2024.1.4,Win32,59.88023952,,,,,,,,,,,,,,,,,,,,,,,,,,,,,,,,,,,
66.1499,86.9293,0,2,2,2,1,Pero cuidado: los errores se penalizan. Por eso no tiene sentido tratar de incrementar tu puntuación marcando como reales palabras que nunca has visto.,(presiona la barra espaciadora para continuar),,001,2024-06-07_08h37.27.088,empathy_intonation_perc,2024.1.4,Win32,59.88023952,,,,,,,,,,,,,,,,,,,,,,,,,,,,,,,,,,,
86.9657,99.1428,0,3,3,3,1,"Presiona la tecla 1 si piensas que es una palabra real y la tecla 
  0 si piensas que es una palabra falsa. 
  
  Vamos a practicar un poco...",(presiona la barra espaciadora para continuar),,001,2024-06-07_08h37.27.088,empathy_intonation_perc,2024.1.4,Win32,59.88023952,,,,,,,,,,,,,,,,,,,,,,,,,,,,,,,,,,,
,,,,,,,,,,001,2024-06-07_08h37.27.088,empathy_intonation_perc,2024.1.4,Win32,59.88023952,99.1859,115.2006,1,0,15.4777,,115.201,116.2058,0,0,0,0,1,0,depiste,0,REAL,FALSA,,,,,,,,,,,,,,,,,
,,,,,,,,,,001,2024-06-07_08h37.27.088,empathy_intonation_perc,2024.1.4,Win32,59.88023952,116.247,117.7085,1,1,0.9113,,117.7087,118.707,0,1,1,1,1,0,sí,1,REAL,FALSA,,,,,,,,,,,,,,,,,
,,,,,,,,,,001,2024-06-07_08h37.27.088,empathy_intonation_perc,2024.1.4,Win32,59.88023952,118.7086,128.362,1,0,9.1045,,128.3622,129.3592,0,2,2,2,1,0,coné,0,REAL,FALSA,,,,,,,,,,,,,,,,,
,,,,,,,,,,001,2024-06-07_08h37.27.088,empathy_intonation_perc,2024.1.4,Win32,59.88023952,129.3993,130.8603,1,0,0.9198,,130.8604,131.8361,0,3,3,3,1,0,calpar,0,REAL,FALSA,,,,,,,,,,,,,,,,,
,,,,,,,,,,001,2024-06-07_08h37.27.088,empathy_intonation_perc,2024.1.4,Win32,59.88023952,131.8374,132.8292,1,0,0.427,,132.8293,133.8353,0,4,4,4,1,0,joten,0,REAL,FALSA,,,,,,,,,,,,,,,,,
,,,,,,,,,,001,2024-06-07_08h37.27.088,empathy_intonation_perc,2024.1.4,Win32,59.88023952,133.8364,135.2189,1,1,0.8195,,135.219,136.1999,0,5,5,5,1,0,sacapuntas,1,REAL,FALSA,,,,,,,,,,,,,,,,,
,,,,,,,,,,001,2024-06-07_08h37.27.088,empathy_intonation_perc,2024.1.4,Win32,59.88023952,136.2007,138.1389,0,1,1.3929,,138.139,139.1388,0,6,6,6,1,0,priba,0,REAL,FALSA,,,,,,,,,,,,,,,,,
,,,,,,,,,,001,2024-06-07_08h37.27.088,empathy_intonation_perc,2024.1.4,Win32,59.88023952,139.1399,140.4583,0,1,0.7668,,140.4585,141.4681,0,7,7,7,1,0,pelasula,0,REAL,FALSA,,,,,,,,,,,,,,,,,
,,,,,,,,,,001,2024-06-07_08h37.27.088,empathy_intonation_perc,2024.1.4,Win32,59.88023952,141.469,142.4829,1,1,0.4625,,142.483,143.4987,0,8,8,8,1,0,bien,1,REAL,FALSA,,,,,,,,,,,,,,,,,
,,,,,,,,,,001,2024-06-07_08h37.27.088,empathy_intonation_perc,2024.1.4,Win32,59.88023952,143.5006,147.6468,0,0,3.5973,,147.647,148.642,0,9,9,9,1,0,casa,1,REAL,FALSA,,,,,,,,,,,,,,,,,
,,,,,,,,,,001,2024-06-07_08h37.27.088,empathy_intonation_perc,2024.1.4,Win32,59.88023952,148.6772,155.8661,1,0,6.6558,,155.8662,156.8553,0,10,10,10,1,0,lejo,0,REAL,FALSA,,,,,,,,,,,,,,,,,
,,,,,,,,,,001,2024-06-07_08h37.27.088,empathy_intonation_perc,2024.1.4,Win32,59.88023952,156.8906,167.7783,1,0,10.3476,,167.7784,168.7845,0,11,11,11,1,0,pretantas,0,REAL,FALSA,,,,,,,,,,,,,,,,,
,,,,,,,,,,001,2024-06-07_08h37.27.088,empathy_intonation_perc,2024.1.4,Win32,59.88023952,,,,,,,,,,,,,,,,,,,168.7858,175.7239,,,,,,,,,,,,,,,
,,,,,,,,,,001,2024-06-07_08h37.27.088,empathy_intonation_perc,2024.1.4,Win32,59.88023952,,,,,,,,,,,,,,72,rostro,,,,,,175.7829,184.1048,0,1,7.7839,,0,0,0,71,1,non_cognate,1,REAL,FALSA
,,,,,,,,,,001,2024-06-07_08h37.27.088,empathy_intonation_perc,2024.1.4,Win32,59.88023952,,,,,,,,,,,,,,84,aviso,,,,,,184.142,190.5163,1,0,5.825,,0,1,1,83,1,non_cognate,1,REAL,FALSA
,,,,,,,,,,001,2024-06-07_08h37.27.088,empathy_intonation_perc,2024.1.4,Win32,59.88023952,,,,,,,,,,,,,,7,kilo,,,,,,190.5503,194.3397,0,1,3.2148,,0,2,2,6,1,three_way_cognate,1,REAL,FALSA
,,,,,,,,,,001,2024-06-07_08h37.27.088,empathy_intonation_perc,2024.1.4,Win32,59.88023952,,,,,,,,,,,,,,98,erede,,,,,,194.3745,201.6406,0,1,6.6537,,0,3,3,97,1,pseudoword,0,REAL,FALSA
,,,,,,,,,,001,2024-06-07_08h37.27.088,empathy_intonation_perc,2024.1.4,Win32,59.88023952,,,,,,,,,,,,,,17,altar,,,,,,201.6753,204.01,0,1,1.7829,,0,4,4,16,1,three_way_cognate,1,REAL,FALSA
,,,,,,,,,,001,2024-06-07_08h37.27.088,empathy_intonation_perc,2024.1.4,Win32,59.88023952,,,,,,,,,,,,,,85,enorme,,,,,,204.011,229.1259,1,0,24.5406,,0,5,5,84,1,non_cognate,1,REAL,FALSA
,,,,,,,,,,001,2024-06-07_08h37.27.088,empathy_intonation_perc,2024.1.4,Win32,59.88023952,,,,,,,,,,,,,,121,rombar,,,,,,229.1651,239.4528,0,1,9.718,,0,6,6,120,1,pseudoword,0,REAL,FALSA
,,,,,,,,,,001,2024-06-07_08h37.27.088,empathy_intonation_perc,2024.1.4,Win32,59.88023952,,,,,,,,,,,,,,5,horror,,,,,,239.4894,242.4507,0,1,2.4091,,0,7,7,4,1,three_way_cognate,1,REAL,FALSA
,,,,,,,,,,001,2024-06-07_08h37.27.088,empathy_intonation_perc,2024.1.4,Win32,59.88023952,,,,,,,,,,,,,,105,curgué,,,,,,242.452,297.0592,0,1,54.0621,,0,8,8,104,1,pseudoword,0,REAL,FALSA
,,,,,,,,,,001,2024-06-07_08h37.27.088,empathy_intonation_perc,2024.1.4,Win32,59.88023952,,,,,,,,,,,,,,89,muñeca,,,,,,297.0948,311.5606,1,0,13.9373,,0,9,9,88,1,non_cognate,1,REAL,FALSA
,,,,,,,,,,001,2024-06-07_08h37.27.088,empathy_intonation_perc,2024.1.4,Win32,59.88023952,,,,,,,,,,,,,,28,ardor,,,,,,311.6162,330.2099,0,1,18.0455,,0,10,10,27,1,two_way_cognate,1,REAL,FALSA
,,,,,,,,,,001,2024-06-07_08h37.27.088,empathy_intonation_perc,2024.1.4,Win32,59.88023952,,,,,,,,,,,,,,29,clamor,,,,,,330.256,331.8738,0,1,1.0533,,0,11,11,28,1,two_way_cognate,1,REAL,FALSA
,,,,,,,,,,001,2024-06-07_08h37.27.088,empathy_intonation_perc,2024.1.4,Win32,59.88023952,,,,,,,,,,,,,,13,aura,,,,,,331.8746,333.8543,0,1,1.3586,,0,12,12,12,1,three_way_cognate,1,REAL,FALSA
,,,,,,,,,,001,2024-06-07_08h37.27.088,empathy_intonation_perc,2024.1.4,Win32,59.88023952,,,,,,,,,,,,,,82,brillo,,,,,,333.8553,344.9323,1,0,10.4962,,0,13,13,81,1,non_cognate,1,REAL,FALSA
,,,,,,,,,,001,2024-06-07_08h37.27.088,empathy_intonation_perc,2024.1.4,Win32,59.88023952,,,,,,,,,,,,,,53,punta,,,,,,344.9815,378.658,1,0,33.1303,,0,14,14,52,1,non_cognate,1,REAL,FALSA
,,,,,,,,,,001,2024-06-07_08h37.27.088,empathy_intonation_perc,2024.1.4,Win32,59.88023952,,,,,,,,,,,,,,39,casual,,,,,,378.6949,380.8969,0,1,1.6151,,0,15,15,38,1,two_way_cognate,1,REAL,FALSA
,,,,,,,,,,001,2024-06-07_08h37.27.088,empathy_intonation_perc,2024.1.4,Win32,59.88023952,,,,,,,,,,,,,,110,vacapó,,,,,,380.8983,393.7893,0,1,12.3214,,0,16,16,109,1,pseudoword,0,REAL,FALSA
,,,,,,,,,,001,2024-06-07_08h37.27.088,empathy_intonation_perc,2024.1.4,Win32,59.88023952,,,,,,,,,,,,,,20,hotel,,,,,,393.8276,395.9564,0,1,1.5905,,0,17,17,19,1,three_way_cognate,1,REAL,FALSA
,,,,,,,,,,001,2024-06-07_08h37.27.088,empathy_intonation_perc,2024.1.4,Win32,59.88023952,,,,,,,,,,,,,,22,plural,,,,,,395.9577,402.9962,0,1,6.48,,0,18,18,21,1,three_way_cognate,1,REAL,FALSA
,,,,,,,,,,001,2024-06-07_08h37.27.088,empathy_intonation_perc,2024.1.4,Win32,59.88023952,,,,,,,,,,,,,,97,hufón,,,,,,403.0314,413.2798,0,1,9.6666,,0,19,19,96,1,pseudoword,0,REAL,FALSA
,,,,,,,,,,001,2024-06-07_08h37.27.088,empathy_intonation_perc,2024.1.4,Win32,59.88023952,,,,,,,,,,,,,,16,clan,,,,,,413.3292,415.1396,0,1,1.2589,,0,20,20,15,1,three_way_cognate,1,REAL,FALSA
,,,,,,,,,,001,2024-06-07_08h37.27.088,empathy_intonation_perc,2024.1.4,Win32,59.88023952,,,,,,,,,,,,,,3,flora,,,,,,415.1412,416.8181,0,1,1.116,,0,21,21,2,1,three_way_cognate,1,REAL,FALSA
,,,,,,,,,,001,2024-06-07_08h37.27.088,empathy_intonation_perc,2024.1.4,Win32,59.88023952,,,,,,,,,,,,,,137,unglés,,,,,,416.819,423.9614,0,1,6.5962,,0,22,22,136,1,pseudoword,0,REAL,FALSA
,,,,,,,,,,001,2024-06-07_08h37.27.088,empathy_intonation_perc,2024.1.4,Win32,59.88023952,,,,,,,,,,,,,,61,aduana,,,,,,424.0113,427.896,1,0,3.3418,,0,23,23,60,1,non_cognate,1,REAL,FALSA
,,,,,,,,,,001,2024-06-07_08h37.27.088,empathy_intonation_perc,2024.1.4,Win32,59.88023952,,,,,,,,,,,,,,90,venado,,,,,,427.8972,437.1938,1,0,8.7278,,0,24,24,89,1,non_cognate,1,REAL,FALSA
,,,,,,,,,,001,2024-06-07_08h37.27.088,empathy_intonation_perc,2024.1.4,Win32,59.88023952,,,,,,,,,,,,,,106,baurá,,,,,,437.2304,446.7882,0,1,8.9873,,0,25,25,105,1,pseudoword,0,REAL,FALSA
,,,,,,,,,,001,2024-06-07_08h37.27.088,empathy_intonation_perc,2024.1.4,Win32,59.88023952,,,,,,,,,,,,,,120,hierno,,,,,,446.8244,454.5906,0,1,7.2059,,0,26,26,119,1,pseudoword,0,REAL,FALSA
,,,,,,,,,,001,2024-06-07_08h37.27.088,empathy_intonation_perc,2024.1.4,Win32,59.88023952,,,,,,,,,,,,,,21,mango,,,,,,454.6241,456.7728,0,1,1.5861,,0,27,27,20,1,three_way_cognate,1,REAL,FALSA
,,,,,,,,,,001,2024-06-07_08h37.27.088,empathy_intonation_perc,2024.1.4,Win32,59.88023952,,,,,,,,,,,,,,91,equipo,,,,,,456.774,463.2159,1,0,5.8968,,0,28,28,90,1,non_cognate,1,REAL,FALSA
,,,,,,,,,,001,2024-06-07_08h37.27.088,empathy_intonation_perc,2024.1.4,Win32,59.88023952,,,,,,,,,,,,,,44,editor,,,,,,463.2603,465.6426,0,1,1.8385,,0,29,29,43,1,two_way_cognate,1,REAL,FALSA
,,,,,,,,,,001,2024-06-07_08h37.27.088,empathy_intonation_perc,2024.1.4,Win32,59.88023952,,,,,,,,,,,,,,46,mortal,,,,,,465.6449,466.8944,0,1,0.7087,,0,30,30,45,1,two_way_cognate,1,REAL,FALSA
,,,,,,,,,,001,2024-06-07_08h37.27.088,empathy_intonation_perc,2024.1.4,Win32,59.88023952,,,,,,,,,,,,,,8,portal,,,,,,466.8949,468.2182,0,1,0.7469,,0,31,31,7,1,three_way_cognate,1,REAL,FALSA
,,,,,,,,,,001,2024-06-07_08h37.27.088,empathy_intonation_perc,2024.1.4,Win32,59.88023952,,,,,,,,,,,,,,80,cuenco,,,,,,468.2209,475.0582,1,0,6.2913,,0,32,32,79,1,non_cognate,1,REAL,FALSA
,,,,,,,,,,001,2024-06-07_08h37.27.088,empathy_intonation_perc,2024.1.4,Win32,59.88023952,,,,,,,,,,,,,,92,flecha,,,,,,475.0926,479.565,1,0,3.8984,,0,33,33,91,1,non_cognate,1,REAL,FALSA
,,,,,,,,,,001,2024-06-07_08h37.27.088,empathy_intonation_perc,2024.1.4,Win32,59.88023952,,,,,,,,,,,,,,33,collar,,,,,,479.5989,486.2977,0,1,6.1619,,0,34,34,32,1,two_way_cognate,1,REAL,FALSA
,,,,,,,,,,001,2024-06-07_08h37.27.088,empathy_intonation_perc,2024.1.4,Win32,59.88023952,,,,,,,,,,,,,,41,pasta,,,,,,486.3353,489.2805,0,1,2.3549,,0,35,35,40,1,two_way_cognate,1,REAL,FALSA
,,,,,,,,,,001,2024-06-07_08h37.27.088,empathy_intonation_perc,2024.1.4,Win32,59.88023952,,,,,,,,,,,,,,102,coyo,,,,,,489.2819,494.7516,0,1,4.9186,,0,36,36,101,1,pseudoword,0,REAL,FALSA
,,,,,,,,,,001,2024-06-07_08h37.27.088,empathy_intonation_perc,2024.1.4,Win32,59.88023952,,,,,,,,,,,,,,139,furbos,,,,,,494.7971,501.1334,0,1,5.7747,,0,37,37,138,1,pseudoword,0,REAL,FALSA
,,,,,,,,,,001,2024-06-07_08h37.27.088,empathy_intonation_perc,2024.1.4,Win32,59.88023952,,,,,,,,,,,,,,35,aurora,,,,,,501.1666,507.1088,1,0,5.3836,,0,38,38,34,1,two_way_cognate,1,REAL,FALSA
,,,,,,,,,,001,2024-06-07_08h37.27.088,empathy_intonation_perc,2024.1.4,Win32,59.88023952,,,,,,,,,,,,,,9,drama,,,,,,507.1433,509.9154,0,1,2.1936,,0,39,39,8,1,three_way_cognate,1,REAL,FALSA
,,,,,,,,,,001,2024-06-07_08h37.27.088,empathy_intonation_perc,2024.1.4,Win32,59.88023952,,,,,,,,,,,,,,23,porno,,,,,,509.9525,514.2515,1,0,3.6976,,0,40,40,22,1,three_way_cognate,1,REAL,FALSA
,,,,,,,,,,001,2024-06-07_08h37.27.088,empathy_intonation_perc,2024.1.4,Win32,59.88023952,,,,,,,,,,,,,,50,sierra,,,,,,514.2887,519.5094,0,1,4.6597,,0,41,41,49,1,non_cognate,1,REAL,FALSA
,,,,,,,,,,001,2024-06-07_08h37.27.088,empathy_intonation_perc,2024.1.4,Win32,59.88023952,,,,,,,,,,,,,,63,hilo,,,,,,519.5531,524.7614,1,0,4.6609,,0,42,42,62,1,non_cognate,1,REAL,FALSA
,,,,,,,,,,001,2024-06-07_08h37.27.088,empathy_intonation_perc,2024.1.4,Win32,59.88023952,,,,,,,,,,,,,,144,piria,,,,,,524.7948,533.0715,1,0,7.6983,,0,43,43,143,1,pseudoword,0,REAL,FALSA
,,,,,,,,,,001,2024-06-07_08h37.27.088,empathy_intonation_perc,2024.1.4,Win32,59.88023952,,,,,,,,,,,,,,25,vigor,,,,,,533.1144,538.0379,0,1,4.3222,,0,44,44,24,1,two_way_cognate,1,REAL,FALSA
,,,,,,,,,,001,2024-06-07_08h37.27.088,empathy_intonation_perc,2024.1.4,Win32,59.88023952,,,,,,,,,,,,,,142,viseña,,,,,,538.0721,544.2183,0,1,5.5833,,0,45,45,141,1,pseudoword,0,REAL,FALSA
,,,,,,,,,,001,2024-06-07_08h37.27.088,empathy_intonation_perc,2024.1.4,Win32,59.88023952,,,,,,,,,,,,,,15,chat,,,,,,544.2645,546.0762,0,1,1.2672,,0,46,46,14,1,three_way_cognate,1,REAL,FALSA
,,,,,,,,,,001,2024-06-07_08h37.27.088,empathy_intonation_perc,2024.1.4,Win32,59.88023952,,,,,,,,,,,,,,38,halo,,,,,,546.0771,555.7763,0,1,9.1685,,0,47,47,37,1,two_way_cognate,1,REAL,FALSA
,,,,,,,,,,001,2024-06-07_08h37.27.088,empathy_intonation_perc,2024.1.4,Win32,59.88023952,,,,,,,,,,,,,,130,dubo,,,,,,555.8131,561.0006,1,0,4.6311,,0,48,48,129,1,pseudoword,0,REAL,FALSA
,,,,,,,,,,001,2024-06-07_08h37.27.088,empathy_intonation_perc,2024.1.4,Win32,59.88023952,,,,,,,,,,,,,,55,maldad,,,,,,561.0346,568.1872,0,1,6.6043,,0,49,49,54,1,non_cognate,1,REAL,FALSA
,,,,,,,,,,001,2024-06-07_08h37.27.088,empathy_intonation_perc,2024.1.4,Win32,59.88023952,,,,,,,,,,,,,,114,potos,,,,,,568.2256,577.7255,0,1,8.9144,,0,50,50,113,1,pseudoword,0,REAL,FALSA
,,,,,,,,,,001,2024-06-07_08h37.27.088,empathy_intonation_perc,2024.1.4,Win32,59.88023952,,,,,,,,,,,,,,108,viarle,,,,,,577.7617,583.2091,1,0,4.8879,,0,51,51,107,1,pseudoword,0,REAL,FALSA
,,,,,,,,,,001,2024-06-07_08h37.27.088,empathy_intonation_perc,2024.1.4,Win32,59.88023952,,,,,,,,,,,,,,83,hálito,,,,,,583.2441,588.6273,0,1,4.8166,,0,52,52,82,1,non_cognate,1,REAL,FALSA
,,,,,,,,,,001,2024-06-07_08h37.27.088,empathy_intonation_perc,2024.1.4,Win32,59.88023952,,,,,,,,,,,,,,141,sumer,,,,,,588.6606,593.0356,0,1,3.818,,0,53,53,140,1,pseudoword,0,REAL,FALSA
,,,,,,,,,,001,2024-06-07_08h37.27.088,empathy_intonation_perc,2024.1.4,Win32,59.88023952,,,,,,,,,,,,,,45,total,,,,,,593.0691,594.5907,0,1,0.9756,,0,54,54,44,1,two_way_cognate,1,REAL,FALSA
,,,,,,,,,,001,2024-06-07_08h37.27.088,empathy_intonation_perc,2024.1.4,Win32,59.88023952,,,,,,,,,,,,,,47,color,,,,,,594.5917,595.821,0,1,0.6284,,0,55,55,46,1,two_way_cognate,1,REAL,FALSA
,,,,,,,,,,001,2024-06-07_08h37.27.088,empathy_intonation_perc,2024.1.4,Win32,59.88023952,,,,,,,,,,,,,,67,llamar,,,,,,595.8221,600.1312,1,0,3.761,,0,56,56,66,1,non_cognate,1,REAL,FALSA
,,,,,,,,,,001,2024-06-07_08h37.27.088,empathy_intonation_perc,2024.1.4,Win32,59.88023952,,,,,,,,,,,,,,125,ceme,,,,,,600.1741,604.9232,0,1,4.2052,,0,57,57,124,1,pseudoword,0,REAL,FALSA
,,,,,,,,,,001,2024-06-07_08h37.27.088,empathy_intonation_perc,2024.1.4,Win32,59.88023952,,,,,,,,,,,,,,77,suave,,,,,,604.957,606.8512,0,1,1.3412,,0,58,58,76,1,non_cognate,1,REAL,FALSA
,,,,,,,,,,001,2024-06-07_08h37.27.088,empathy_intonation_perc,2024.1.4,Win32,59.88023952,,,,,,,,,,,,,,93,tapa,,,,,,606.8525,611.0576,1,0,3.6113,,0,59,59,92,1,non_cognate,1,REAL,FALSA
,,,,,,,,,,001,2024-06-07_08h37.27.088,empathy_intonation_perc,2024.1.4,Win32,59.88023952,,,,,,,,,,,,,,2,disco,,,,,,611.0912,616.3895,0,1,4.7594,,0,60,60,1,1,three_way_cognate,1,REAL,FALSA
,,,,,,,,,,001,2024-06-07_08h37.27.088,empathy_intonation_perc,2024.1.4,Win32,59.88023952,,,,,,,,,,,,,,126,anicio,,,,,,616.4221,620.6751,0,1,3.6842,,0,61,61,125,1,pseudoword,0,REAL,FALSA
,,,,,,,,,,001,2024-06-07_08h37.27.088,empathy_intonation_perc,2024.1.4,Win32,59.88023952,,,,,,,,,,,,,,87,muleta,,,,,,620.7086,627.105,1,0,5.8514,,0,62,62,86,1,non_cognate,1,REAL,FALSA
,,,,,,,,,,001,2024-06-07_08h37.27.088,empathy_intonation_perc,2024.1.4,Win32,59.88023952,,,,,,,,,,,,,,68,puñal,,,,,,627.1401,631.328,1,0,3.6036,,0,63,63,67,1,non_cognate,1,REAL,FALSA
,,,,,,,,,,001,2024-06-07_08h37.27.088,empathy_intonation_perc,2024.1.4,Win32,59.88023952,,,,,,,,,,,,,,127,vien,,,,,,631.3613,635.9348,1,0,4.0243,,0,64,64,126,1,pseudoword,0,REAL,FALSA
,,,,,,,,,,001,2024-06-07_08h37.27.088,empathy_intonation_perc,2024.1.4,Win32,59.88023952,,,,,,,,,,,,,,14,test,,,,,,635.9699,638.9998,0,1,2.437,,0,65,65,13,1,three_way_cognate,1,REAL,FALSA
,,,,,,,,,,001,2024-06-07_08h37.27.088,empathy_intonation_perc,2024.1.4,Win32,59.88023952,,,,,,,,,,,,,,96,caro,,,,,,639.0333,643.0339,0,1,3.4483,,0,66,66,95,1,non_cognate,1,REAL,FALSA
,,,,,,,,,,001,2024-06-07_08h37.27.088,empathy_intonation_perc,2024.1.4,Win32,59.88023952,,,,,,,,,,,,,,101,fertes,,,,,,643.0627,647.1822,0,1,3.5691,,0,67,67,100,1,pseudoword,0,REAL,FALSA
,,,,,,,,,,001,2024-06-07_08h37.27.088,empathy_intonation_perc,2024.1.4,Win32,59.88023952,,,,,,,,,,,,,,81,sacar,,,,,,647.2289,651.1128,0,1,3.2814,,0,68,68,80,1,non_cognate,1,REAL,FALSA
,,,,,,,,,,001,2024-06-07_08h37.27.088,empathy_intonation_perc,2024.1.4,Win32,59.88023952,,,,,,,,,,,,,,74,ala,,,,,,651.1601,655.7792,1,0,4.0706,,0,69,69,73,1,non_cognate,1,REAL,FALSA
,,,,,,,,,,001,2024-06-07_08h37.27.088,empathy_intonation_perc,2024.1.4,Win32,59.88023952,,,,,,,,,,,,,,76,chocar,,,,,,655.8127,659.9622,1,0,3.6033,,0,70,70,75,1,non_cognate,1,REAL,FALSA
,,,,,,,,,,001,2024-06-07_08h37.27.088,empathy_intonation_perc,2024.1.4,Win32,59.88023952,,,,,,,,,,,,,,27,piano,,,,,,659.9959,661.9451,0,1,1.4102,,0,71,71,26,1,two_way_cognate,1,REAL,FALSA
,,,,,,,,,,001,2024-06-07_08h37.27.088,empathy_intonation_perc,2024.1.4,Win32,59.88023952,,,,,,,,,,,,,,62,pegar,,,,,,661.9461,666.3201,1,0,3.7611,,0,72,72,61,1,non_cognate,1,REAL,FALSA
,,,,,,,,,,001,2024-06-07_08h37.27.088,empathy_intonation_perc,2024.1.4,Win32,59.88023952,,,,,,,,,,,,,,42,rumor,,,,,,666.3791,669.2333,0,1,2.2959,,0,73,73,41,1,two_way_cognate,1,REAL,FALSA
,,,,,,,,,,001,2024-06-07_08h37.27.088,empathy_intonation_perc,2024.1.4,Win32,59.88023952,,,,,,,,,,,,,,30,fiscal,,,,,,669.2796,671.4068,0,1,1.5813,,0,74,74,29,1,two_way_cognate,1,REAL,FALSA
,,,,,,,,,,001,2024-06-07_08h37.27.088,empathy_intonation_perc,2024.1.4,Win32,59.88023952,,,,,,,,,,,,,,54,tapón,,,,,,671.4091,676.5454,1,0,4.4551,,0,75,75,53,1,non_cognate,1,REAL,FALSA
,,,,,,,,,,001,2024-06-07_08h37.27.088,empathy_intonation_perc,2024.1.4,Win32,59.88023952,,,,,,,,,,,,,,69,tiza,,,,,,676.5813,681.6301,1,0,4.5062,,0,76,76,68,1,non_cognate,1,REAL,FALSA
,,,,,,,,,,001,2024-06-07_08h37.27.088,empathy_intonation_perc,2024.1.4,Win32,59.88023952,,,,,,,,,,,,,,140,vapen,,,,,,681.6637,685.3827,1,0,3.1607,,0,77,77,139,1,pseudoword,0,REAL,FALSA
,,,,,,,,,,001,2024-06-07_08h37.27.088,empathy_intonation_perc,2024.1.4,Win32,59.88023952,,,,,,,,,,,,,,71,torta,,,,,,685.4168,689.4573,1,0,3.4449,,0,78,78,70,1,non_cognate,1,REAL,FALSA
,,,,,,,,,,001,2024-06-07_08h37.27.088,empathy_intonation_perc,2024.1.4,Win32,59.88023952,,,,,,,,,,,,,,64,rizado,,,,,,689.4907,697.8023,1,0,7.756,,0,79,79,63,1,non_cognate,1,REAL,FALSA
,,,,,,,,,,001,2024-06-07_08h37.27.088,empathy_intonation_perc,2024.1.4,Win32,59.88023952,,,,,,,,,,,,,,115,civas,,,,,,697.8387,840.3906,0,1,142.0004,,0,80,80,114,1,pseudoword,0,REAL,FALSA
,,,,,,,,,,001,2024-06-07_08h37.27.088,empathy_intonation_perc,2024.1.4,Win32,59.88023952,,,,,,,,,,,,,,123,escare,,,,,,840.428,847.0414,1,0,6.0789,,0,81,81,122,1,pseudoword,0,REAL,FALSA
,,,,,,,,,,001,2024-06-07_08h37.27.088,empathy_intonation_perc,2024.1.4,Win32,59.88023952,,,,,,,,,,,,,,122,gravés,,,,,,847.076,857.8446,1,0,10.2242,,0,82,82,121,1,pseudoword,0,REAL,FALSA
,,,,,,,,,,001,2024-06-07_08h37.27.088,empathy_intonation_perc,2024.1.4,Win32,59.88023952,,,,,,,,,,,,,,49,teñir,,,,,,857.8812,862.2712,1,0,3.8496,,0,83,83,48,1,non_cognate,1,REAL,FALSA
,,,,,,,,,,001,2024-06-07_08h37.27.088,empathy_intonation_perc,2024.1.4,Win32,59.88023952,,,,,,,,,,,,,,95,listo,,,,,,862.3049,869.5606,1,0,6.6936,,0,84,84,94,1,non_cognate,1,REAL,FALSA
,,,,,,,,,,001,2024-06-07_08h37.27.088,empathy_intonation_perc,2024.1.4,Win32,59.88023952,,,,,,,,,,,,,,88,percha,,,,,,869.597,873.0327,1,0,2.8994,,0,85,85,87,1,non_cognate,1,REAL,FALSA
,,,,,,,,,,001,2024-06-07_08h37.27.088,empathy_intonation_perc,2024.1.4,Win32,59.88023952,,,,,,,,,,,,,,40,pelvis,,,,,,873.0658,878.0124,0,1,4.3832,,0,86,86,39,1,two_way_cognate,1,REAL,FALSA
,,,,,,,,,,001,2024-06-07_08h37.27.088,empathy_intonation_perc,2024.1.4,Win32,59.88023952,,,,,,,,,,,,,,78,rendir,,,,,,878.0463,883.2581,1,0,4.6527,,0,87,87,77,1,non_cognate,1,REAL,FALSA
,,,,,,,,,,001,2024-06-07_08h37.27.088,empathy_intonation_perc,2024.1.4,Win32,59.88023952,,,,,,,,,,,,,,73,llevar,,,,,,883.2856,887.8993,1,0,3.9591,,0,88,88,72,1,non_cognate,1,REAL,FALSA
,,,,,,,,,,001,2024-06-07_08h37.27.088,empathy_intonation_perc,2024.1.4,Win32,59.88023952,,,,,,,,,,,,,,132,nocó,,,,,,887.9338,891.8515,1,0,3.3616,,0,89,89,131,1,pseudoword,0,REAL,FALSA
,,,,,,,,,,001,2024-06-07_08h37.27.088,empathy_intonation_perc,2024.1.4,Win32,59.88023952,,,,,,,,,,,,,,113,difrás,,,,,,891.9145,894.9361,1,0,2.4237,,0,90,90,112,1,pseudoword,0,REAL,FALSA
,,,,,,,,,,001,2024-06-07_08h37.27.088,empathy_intonation_perc,2024.1.4,Win32,59.88023952,,,,,,,,,,,,,,65,guerra,,,,,,894.971,910.1058,1,0,14.5942,,0,91,91,64,1,non_cognate,1,REAL,FALSA
,,,,,,,,,,001,2024-06-07_08h37.27.088,empathy_intonation_perc,2024.1.4,Win32,59.88023952,,,,,,,,,,,,,,143,pledú,,,,,,910.1436,915.3669,0,1,4.6646,,0,92,92,142,1,pseudoword,0,REAL,FALSA
,,,,,,,,,,001,2024-06-07_08h37.27.088,empathy_intonation_perc,2024.1.4,Win32,59.88023952,,,,,,,,,,,,,,34,actor,,,,,,915.4011,916.9656,0,1,1.0069,,0,93,93,33,1,two_way_cognate,1,REAL,FALSA
,,,,,,,,,,001,2024-06-07_08h37.27.088,empathy_intonation_perc,2024.1.4,Win32,59.88023952,,,,,,,,,,,,,,99,mieris,,,,,,916.9666,919.833,0,1,2.3219,,0,94,94,98,1,pseudoword,0,REAL,FALSA
,,,,,,,,,,001,2024-06-07_08h37.27.088,empathy_intonation_perc,2024.1.4,Win32,59.88023952,,,,,,,,,,,,,,1,tumor,,,,,,919.834,921.3367,0,1,0.9484,,0,95,95,0,1,three_way_cognate,1,REAL,FALSA
,,,,,,,,,,001,2024-06-07_08h37.27.088,empathy_intonation_perc,2024.1.4,Win32,59.88023952,,,,,,,,,,,,,,75,patada,,,,,,921.3384,925.4899,1,0,3.5937,,0,96,96,74,1,non_cognate,1,REAL,FALSA
,,,,,,,,,,001,2024-06-07_08h37.27.088,empathy_intonation_perc,2024.1.4,Win32,59.88023952,,,,,,,,,,,,,,111,vibler,,,,,,925.5242,930.2318,0,1,4.1642,,0,97,97,110,1,pseudoword,0,REAL,FALSA
,,,,,,,,,,001,2024-06-07_08h37.27.088,empathy_intonation_perc,2024.1.4,Win32,59.88023952,,,,,,,,,,,,,,32,animal,,,,,,930.2798,933.5904,0,1,2.7423,,0,98,98,31,1,two_way_cognate,1,REAL,FALSA
,,,,,,,,,,001,2024-06-07_08h37.27.088,empathy_intonation_perc,2024.1.4,Win32,59.88023952,,,,,,,,,,,,,,19,trauma,,,,,,933.6243,935.0232,0,1,0.8319,,0,99,99,18,1,three_way_cognate,1,REAL,FALSA
,,,,,,,,,,001,2024-06-07_08h37.27.088,empathy_intonation_perc,2024.1.4,Win32,59.88023952,,,,,,,,,,,,,,51,listo,,,,,,935.0244,938.2311,0,1,2.653,,0,100,100,50,1,non_cognate,1,REAL,FALSA
,,,,,,,,,,001,2024-06-07_08h37.27.088,empathy_intonation_perc,2024.1.4,Win32,59.88023952,,,,,,,,,,,,,,37,torso,,,,,,938.2329,942.0589,0,1,3.2618,,0,101,101,36,1,two_way_cognate,1,REAL,FALSA
,,,,,,,,,,001,2024-06-07_08h37.27.088,empathy_intonation_perc,2024.1.4,Win32,59.88023952,,,,,,,,,,,,,,104,vitra,,,,,,942.1114,946.6926,0,1,4.0273,,0,102,102,103,1,pseudoword,0,REAL,FALSA
,,,,,,,,,,001,2024-06-07_08h37.27.088,empathy_intonation_perc,2024.1.4,Win32,59.88023952,,,,,,,,,,,,,,109,hágino,,,,,,946.7423,954.0037,0,1,6.7208,,0,103,103,108,1,pseudoword,0,REAL,FALSA
,,,,,,,,,,001,2024-06-07_08h37.27.088,empathy_intonation_perc,2024.1.4,Win32,59.88023952,,,,,,,,,,,,,,43,honor,,,,,,954.0374,955.4513,0,1,0.8683,,0,104,104,42,1,two_way_cognate,1,REAL,FALSA
,,,,,,,,,,001,2024-06-07_08h37.27.088,empathy_intonation_perc,2024.1.4,Win32,59.88023952,,,,,,,,,,,,,,128,pelí,,,,,,955.4526,960.0503,1,0,4.0305,,0,105,105,127,1,pseudoword,0,REAL,FALSA
,,,,,,,,,,001,2024-06-07_08h37.27.088,empathy_intonation_perc,2024.1.4,Win32,59.88023952,,,,,,,,,,,,,,58,colcha,,,,,,960.0936,1010.1186,1,0,49.4785,,0,106,106,57,1,non_cognate,1,REAL,FALSA
,,,,,,,,,,001,2024-06-07_08h37.27.088,empathy_intonation_perc,2024.1.4,Win32,59.88023952,,,,,,,,,,,,,,124,lobe,,,,,,1010.1663,1015.6115,0,1,4.9003,,0,107,107,123,1,pseudoword,0,REAL,FALSA
,,,,,,,,,,001,2024-06-07_08h37.27.088,empathy_intonation_perc,2024.1.4,Win32,59.88023952,,,,,,,,,,,,,,48,pelvis,,,,,,1015.6474,1017.9985,0,1,1.7524,,0,108,108,47,1,two_way_cognate,1,REAL,FALSA
,,,,,,,,,,001,2024-06-07_08h37.27.088,empathy_intonation_perc,2024.1.4,Win32,59.88023952,,,,,,,,,,,,,,134,fruzas,,,,,,1018.0002,1022.1593,0,1,3.6169,,0,109,109,133,1,pseudoword,0,REAL,FALSA
,,,,,,,,,,001,2024-06-07_08h37.27.088,empathy_intonation_perc,2024.1.4,Win32,59.88023952,,,,,,,,,,,,,,36,viable,,,,,,1022.1941,1026.5066,0,1,3.7607,,0,110,110,35,1,two_way_cognate,1,REAL,FALSA
,,,,,,,,,,001,2024-06-07_08h37.27.088,empathy_intonation_perc,2024.1.4,Win32,59.88023952,,,,,,,,,,,,,,117,apunan,,,,,,1026.5414,1033.5343,1,0,6.4491,,0,111,111,116,1,pseudoword,0,REAL,FALSA
,,,,,,,,,,001,2024-06-07_08h37.27.088,empathy_intonation_perc,2024.1.4,Win32,59.88023952,,,,,,,,,,,,,,26,enigma,,,,,,1033.5678,1037.6784,0,1,3.5604,,0,112,112,25,1,two_way_cognate,1,REAL,FALSA
,,,,,,,,,,001,2024-06-07_08h37.27.088,empathy_intonation_perc,2024.1.4,Win32,59.88023952,,,,,,,,,,,,,,94,forro,,,,,,1037.7117,1041.6652,1,0,3.4005,,0,113,113,93,1,non_cognate,1,REAL,FALSA
,,,,,,,,,,001,2024-06-07_08h37.27.088,empathy_intonation_perc,2024.1.4,Win32,59.88023952,,,,,,,,,,,,,,107,plamos,,,,,,1041.6986,1050.6818,0,1,8.4263,,0,114,114,106,1,pseudoword,0,REAL,FALSA
,,,,,,,,,,001,2024-06-07_08h37.27.088,empathy_intonation_perc,2024.1.4,Win32,59.88023952,,,,,,,,,,,,,,133,tirafa,,,,,,1050.7189,1054.3779,0,1,3.0977,,0,115,115,132,1,pseudoword,0,REAL,FALSA
,,,,,,,,,,001,2024-06-07_08h37.27.088,empathy_intonation_perc,2024.1.4,Win32,59.88023952,,,,,,,,,,,,,,4,extra,,,,,,1054.3788,1055.6607,0,1,0.7125,,0,116,116,3,1,three_way_cognate,1,REAL,FALSA
,,,,,,,,,,001,2024-06-07_08h37.27.088,empathy_intonation_perc,2024.1.4,Win32,59.88023952,,,,,,,,,,,,,,11,dogma,,,,,,1055.6618,1059.5812,0,1,3.3604,,0,117,117,10,1,three_way_cognate,1,REAL,FALSA
,,,,,,,,,,001,2024-06-07_08h37.27.088,empathy_intonation_perc,2024.1.4,Win32,59.88023952,,,,,,,,,,,,,,79,suelo,,,,,,1059.6166,1064.7982,1,0,4.6349,,0,118,118,78,1,non_cognate,1,REAL,FALSA
,,,,,,,,,,001,2024-06-07_08h37.27.088,empathy_intonation_perc,2024.1.4,Win32,59.88023952,,,,,,,,,,,,,,70,ánimo,,,,,,1064.8327,1069.5037,1,0,4.1312,,0,119,119,69,1,non_cognate,1,REAL,FALSA
,,,,,,,,,,001,2024-06-07_08h37.27.088,empathy_intonation_perc,2024.1.4,Win32,59.88023952,,,,,,,,,,,,,,119,esís,,,,,,1069.5457,1073.5591,0,1,3.4724,,0,120,120,118,1,pseudoword,0,REAL,FALSA
,,,,,,,,,,001,2024-06-07_08h37.27.088,empathy_intonation_perc,2024.1.4,Win32,59.88023952,,,,,,,,,,,,,,18,mafia,,,,,,1073.5974,1077.7059,0,1,3.565,,0,121,121,17,1,three_way_cognate,1,REAL,FALSA
,,,,,,,,,,001,2024-06-07_08h37.27.088,empathy_intonation_perc,2024.1.4,Win32,59.88023952,,,,,,,,,,,,,,59,feo,,,,,,1077.7395,1082.2876,1,0,4.0022,,0,122,122,58,1,non_cognate,1,REAL,FALSA
,,,,,,,,,,001,2024-06-07_08h37.27.088,empathy_intonation_perc,2024.1.4,Win32,59.88023952,,,,,,,,,,,,,,118,bará,,,,,,1082.3217,1090.7203,0,1,7.8591,,0,123,123,117,1,pseudoword,0,REAL,FALSA
,,,,,,,,,,001,2024-06-07_08h37.27.088,empathy_intonation_perc,2024.1.4,Win32,59.88023952,,,,,,,,,,,,,,131,fuar,,,,,,1090.7587,1094.9287,0,1,3.6137,,0,124,124,130,1,pseudoword,0,REAL,FALSA
,,,,,,,,,,001,2024-06-07_08h37.27.088,empathy_intonation_perc,2024.1.4,Win32,59.88023952,,,,,,,,,,,,,,129,suchas,,,,,,1094.9634,1099.3235,0,1,3.8075,,0,125,125,128,1,pseudoword,0,REAL,FALSA
,,,,,,,,,,001,2024-06-07_08h37.27.088,empathy_intonation_perc,2024.1.4,Win32,59.88023952,,,,,,,,,,,,,,57,regalo,,,,,,1099.3573,1103.7262,1,0,3.8222,,0,126,126,56,1,non_cognate,1,REAL,FALSA
,,,,,,,,,,001,2024-06-07_08h37.27.088,empathy_intonation_perc,2024.1.4,Win32,59.88023952,,,,,,,,,,,,,,138,glural,,,,,,1103.756,1108.8436,0,1,4.5155,,0,127,127,137,1,pseudoword,0,REAL,FALSA
,,,,,,,,,,001,2024-06-07_08h37.27.088,empathy_intonation_perc,2024.1.4,Win32,59.88023952,,,,,,,,,,,,,,10,golf,,,,,,1108.8734,1110.2868,0,1,0.8711,,0,128,128,9,1,three_way_cognate,1,REAL,FALSA
,,,,,,,,,,001,2024-06-07_08h37.27.088,empathy_intonation_perc,2024.1.4,Win32,59.88023952,,,,,,,,,,,,,,56,pico,,,,,,1110.2878,1115.3547,1,0,4.5057,,0,129,129,55,1,non_cognate,1,REAL,FALSA
,,,,,,,,,,001,2024-06-07_08h37.27.088,empathy_intonation_perc,2024.1.4,Win32,59.88023952,,,,,,,,,,,,,,52,blando,,,,,,1115.3927,1119.5236,1,0,3.5854,,0,130,130,51,1,non_cognate,1,REAL,FALSA
,,,,,,,,,,001,2024-06-07_08h37.27.088,empathy_intonation_perc,2024.1.4,Win32,59.88023952,,,,,,,,,,,,,,66,aleta,,,,,,1119.5574,1132.3321,1,0,12.2128,,0,131,131,65,1,non_cognate,1,REAL,FALSA
,,,,,,,,,,001,2024-06-07_08h37.27.088,empathy_intonation_perc,2024.1.4,Win32,59.88023952,,,,,,,,,,,,,,112,cituló,,,,,,1132.3685,1138.2274,1,0,5.3127,,0,132,132,111,1,pseudoword,0,REAL,FALSA
,,,,,,,,,,001,2024-06-07_08h37.27.088,empathy_intonation_perc,2024.1.4,Win32,59.88023952,,,,,,,,,,,,,,86,cuenco,,,,,,1138.2622,1142.2932,1,0,3.4838,,0,133,133,85,1,non_cognate,1,REAL,FALSA
,,,,,,,,,,001,2024-06-07_08h37.27.088,empathy_intonation_perc,2024.1.4,Win32,59.88023952,,,,,,,,,,,,,,60,siglo,,,,,,1142.3271,1146.1636,1,0,3.2942,,0,134,134,59,1,non_cognate,1,REAL,FALSA
,,,,,,,,,,001,2024-06-07_08h37.27.088,empathy_intonation_perc,2024.1.4,Win32,59.88023952,,,,,,,,,,,,,,31,civil,,,,,,1146.198,1148.4628,0,1,1.7134,,0,135,135,30,1,two_way_cognate,1,REAL,FALSA
,,,,,,,,,,001,2024-06-07_08h37.27.088,empathy_intonation_perc,2024.1.4,Win32,59.88023952,,,,,,,,,,,,,,6,albino,,,,,,1148.464,1149.8982,0,1,0.8738,,0,136,136,5,1,three_way_cognate,1,REAL,FALSA
,,,,,,,,,,001,2024-06-07_08h37.27.088,empathy_intonation_perc,2024.1.4,Win32,59.88023952,,,,,,,,,,,,,,135,macayó,,,,,,1149.899,1162.2015,0,1,11.7332,,0,137,137,134,1,pseudoword,0,REAL,FALSA
,,,,,,,,,,001,2024-06-07_08h37.27.088,empathy_intonation_perc,2024.1.4,Win32,59.88023952,,,,,,,,,,,,,,100,medón,,,,,,1162.2381,1168.0417,1,0,5.2576,,0,138,138,99,1,pseudoword,0,REAL,FALSA
,,,,,,,,,,001,2024-06-07_08h37.27.088,empathy_intonation_perc,2024.1.4,Win32,59.88023952,,,,,,,,,,,,,,136,sopleó,,,,,,1168.0764,1174.4861,1,0,5.8226,,0,139,139,135,1,pseudoword,0,REAL,FALSA
,,,,,,,,,,001,2024-06-07_08h37.27.088,empathy_intonation_perc,2024.1.4,Win32,59.88023952,,,,,,,,,,,,,,116,crene,,,,,,1174.523,1179.2955,0,1,4.2143,,0,140,140,115,1,pseudoword,0,REAL,FALSA
,,,,,,,,,,001,2024-06-07_08h37.27.088,empathy_intonation_perc,2024.1.4,Win32,59.88023952,,,,,,,,,,,,,,103,babes,,,,,,1179.331,1181.104,0,1,1.1758,,0,141,141,102,1,pseudoword,0,REAL,FALSA
,,,,,,,,,,001,2024-06-07_08h37.27.088,empathy_intonation_perc,2024.1.4,Win32,59.88023952,,,,,,,,,,,,,,24,retina,,,,,,1181.1067,1182.6019,0,1,0.9464,,0,142,142,23,1,three_way_cognate,1,REAL,FALSA
,,,,,,,,,,001,2024-06-07_08h37.27.088,empathy_intonation_perc,2024.1.4,Win32,59.88023952,,,,,,,,,,,,,,12,plan,,,,,,1182.6028,1183.8512,0,1,0.647,,0,143,143,11,1,three_way_cognate,1,REAL,FALSA
