lextale_instructions.started,lextale_instructions.stopped,lextale_instructions_loop.thisRepN,lextale_instructions_loop.thisTrialN,lextale_instructions_loop.thisN,lextale_instructions_loop.thisIndex,lextale_instructions_loop.ran,instructions_text,continue_text,participant,session,date,expName,psychopyVersion,OS,frameRate,lextale_practice.started,lextale_practice.stopped,key_resp_lextale_practice.keys,key_resp_lextale_practice.corr,key_resp_lextale_practice.rt,key_resp_lextale_practice.duration,lextale_practice_feedback.started,lextale_practice_feedback.stopped,lextale_practice_trials.thisRepN,lextale_practice_trials.thisTrialN,lextale_practice_trials.thisN,lextale_practice_trials.thisIndex,lextale_practice_trials.ran,stim,word,correct_response,prac_button_real,prac_button_false,lextale_check.started,lextale_check.stopped,lextale_trial.started,lextale_trial.stopped,key_resp_lextale_trial.keys,key_resp_lextale_trial.corr,key_resp_lextale_trial.rt,key_resp_lextale_trial.duration,lextail_trials.thisRepN,lextail_trials.thisTrialN,lextail_trials.thisN,lextail_trials.thisIndex,lextail_trials.ran,type,correct_reponse,button_real,button_false
0.0226,6.0493,0,0,0,0,1,"Este es un test de vocabulario en español. 
  
  A continuación vas a ver 90 secuencias de letras que parecen 'españolas'.
  
  Solo algunas de ellas son palabras de verdad.",(presiona la barra espaciadora para continuar),,001,2024-06-07_08h31.48.062,empathy_intonation_perc,2024.1.4,Win32,30.21148036,,,,,,,,,,,,,,,,,,,,,,,,,,,,,,,,,,,
6.0517,9.9959,0,1,1,1,1,"Por favor, señala las palabras que tú conoces (aquellas que estás convencido que son palabras españolas, incluso aunque no seas capaz de dar el significado preciso).",(presiona la barra espaciadora para continuar),,001,2024-06-07_08h31.48.062,empathy_intonation_perc,2024.1.4,Win32,30.21148036,,,,,,,,,,,,,,,,,,,,,,,,,,,,,,,,,,,
9.9971,13.1373,0,2,2,2,1,Pero cuidado: los errores se penalizan. Por eso no tiene sentido tratar de incrementar tu puntuación marcando como reales palabras que nunca has visto.,(presiona la barra espaciadora para continuar),,001,2024-06-07_08h31.48.062,empathy_intonation_perc,2024.1.4,Win32,30.21148036,,,,,,,,,,,,,,,,,,,,,,,,,,,,,,,,,,,
13.1388,14.6295,0,3,3,3,1,"Presiona la tecla 1 si piensas que es una palabra real y la tecla 
  0 si piensas que es una palabra falsa. 
  
  Vamos a practicar un poco...",(presiona la barra espaciadora para continuar),,001,2024-06-07_08h31.48.062,empathy_intonation_perc,2024.1.4,Win32,30.21148036,,,,,,,,,,,,,,,,,,,,,,,,,,,,,,,,,,,
,,,,,,,,,,001,2024-06-07_08h31.48.062,empathy_intonation_perc,2024.1.4,Win32,30.21148036,14.6418,17.1698,1,0,1.9207,,17.1717,18.1408,0,0,0,0,1,0,depiste,0,REAL,FALSA,,,,,,,,,,,,,,,,,
,,,,,,,,,,001,2024-06-07_08h31.48.062,empathy_intonation_perc,2024.1.4,Win32,30.21148036,18.1435,20.253,1,1,1.5592,,20.2532,21.2202,0,1,1,1,1,0,sí,1,REAL,FALSA,,,,,,,,,,,,,,,,,
,,,,,,,,,,001,2024-06-07_08h31.48.062,empathy_intonation_perc,2024.1.4,Win32,30.21148036,21.2219,28.7342,0,1,6.9731,,28.7345,29.6862,0,2,2,2,1,0,coné,0,REAL,FALSA,,,,,,,,,,,,,,,,,
,,,,,,,,,,001,2024-06-07_08h31.48.062,empathy_intonation_perc,2024.1.4,Win32,30.21148036,29.6871,31.1948,0,1,0.8812,,31.1949,32.1798,0,3,3,3,1,0,calpar,0,REAL,FALSA,,,,,,,,,,,,,,,,,
,,,,,,,,,,001,2024-06-07_08h31.48.062,empathy_intonation_perc,2024.1.4,Win32,30.21148036,32.181,33.6077,1,0,0.893,,33.6077,34.5896,0,4,4,4,1,0,joten,0,REAL,FALSA,,,,,,,,,,,,,,,,,
,,,,,,,,,,001,2024-06-07_08h31.48.062,empathy_intonation_perc,2024.1.4,Win32,30.21148036,34.591,36.0056,1,1,0.7971,,36.0059,36.9855,0,5,5,5,1,0,sacapuntas,1,REAL,FALSA,,,,,,,,,,,,,,,,,
,,,,,,,,,,001,2024-06-07_08h31.48.062,empathy_intonation_perc,2024.1.4,Win32,30.21148036,36.9865,38.8893,1,0,1.338,,38.8894,39.881,0,6,6,6,1,0,priba,0,REAL,FALSA,,,,,,,,,,,,,,,,,
,,,,,,,,,,001,2024-06-07_08h31.48.062,empathy_intonation_perc,2024.1.4,Win32,30.21148036,39.8819,41.4368,0,1,0.9666,,41.4372,42.403,0,7,7,7,1,0,pelasula,0,REAL,FALSA,,,,,,,,,,,,,,,,,
,,,,,,,,,,001,2024-06-07_08h31.48.062,empathy_intonation_perc,2024.1.4,Win32,30.21148036,42.4081,43.9018,1,1,0.9092,,43.902,44.9479,0,8,8,8,1,0,bien,1,REAL,FALSA,,,,,,,,,,,,,,,,,
,,,,,,,,,,001,2024-06-07_08h31.48.062,empathy_intonation_perc,2024.1.4,Win32,30.21148036,44.9487,46.7227,1,1,1.1653,,46.7229,47.6596,0,9,9,9,1,0,casa,1,REAL,FALSA,,,,,,,,,,,,,,,,,
,,,,,,,,,,001,2024-06-07_08h31.48.062,empathy_intonation_perc,2024.1.4,Win32,30.21148036,47.6616,49.1957,0,1,0.8135,,49.1959,50.2024,0,10,10,10,1,0,lejo,0,REAL,FALSA,,,,,,,,,,,,,,,,,
,,,,,,,,,,001,2024-06-07_08h31.48.062,empathy_intonation_perc,2024.1.4,Win32,30.21148036,50.2034,51.6095,1,0,0.8608,,51.6101,52.5772,0,11,11,11,1,0,pretantas,0,REAL,FALSA,,,,,,,,,,,,,,,,,
,,,,,,,,,,001,2024-06-07_08h31.48.062,empathy_intonation_perc,2024.1.4,Win32,30.21148036,,,,,,,,,,,,,,,,,,,52.5796,55.7767,,,,,,,,,,,,,,,
,,,,,,,,,,001,2024-06-07_08h31.48.062,empathy_intonation_perc,2024.1.4,Win32,30.21148036,,,,,,,,,,,,,,137,unglés,,,,,,55.912,58.7752,1,0,2.1671,,0,0,0,136,1,pseudoword,0,REAL,FALSA
,,,,,,,,,,001,2024-06-07_08h31.48.062,empathy_intonation_perc,2024.1.4,Win32,30.21148036,,,,,,,,,,,,,,100,medón,,,,,,58.7792,61.0957,0,1,1.6152,,0,1,1,99,1,pseudoword,0,REAL,FALSA
,,,,,,,,,,001,2024-06-07_08h31.48.062,empathy_intonation_perc,2024.1.4,Win32,30.21148036,,,,,,,,,,,,,,77,suave,,,,,,61.0971,62.9524,0,1,1.2731,,0,2,2,76,1,non_cognate,1,REAL,FALSA
,,,,,,,,,,001,2024-06-07_08h31.48.062,empathy_intonation_perc,2024.1.4,Win32,30.21148036,,,,,,,,,,,,,,129,suchas,,,,,,62.9535,65.3499,1,0,1.7625,,0,3,3,128,1,pseudoword,0,REAL,FALSA
,,,,,,,,,,001,2024-06-07_08h31.48.062,empathy_intonation_perc,2024.1.4,Win32,30.21148036,,,,,,,,,,,,,,34,actor,,,,,,65.3548,66.9042,0,1,0.963,,0,4,4,33,1,two_way_cognate,1,REAL,FALSA
,,,,,,,,,,001,2024-06-07_08h31.48.062,empathy_intonation_perc,2024.1.4,Win32,30.21148036,,,,,,,,,,,,,,6,albino,,,,,,66.9055,68.4147,0,1,0.9651,,0,5,5,5,1,three_way_cognate,1,REAL,FALSA
,,,,,,,,,,001,2024-06-07_08h31.48.062,empathy_intonation_perc,2024.1.4,Win32,30.21148036,,,,,,,,,,,,,,96,caro,,,,,,68.4172,70.2609,1,0,1.2519,,0,6,6,95,1,non_cognate,1,REAL,FALSA
,,,,,,,,,,001,2024-06-07_08h31.48.062,empathy_intonation_perc,2024.1.4,Win32,30.21148036,,,,,,,,,,,,,,122,gravés,,,,,,70.2626,71.7986,1,0,0.9854,,0,7,7,121,1,pseudoword,0,REAL,FALSA
,,,,,,,,,,001,2024-06-07_08h31.48.062,empathy_intonation_perc,2024.1.4,Win32,30.21148036,,,,,,,,,,,,,,84,aviso,,,,,,71.8012,73.2653,0,1,0.8485,,0,8,8,83,1,non_cognate,1,REAL,FALSA
,,,,,,,,,,001,2024-06-07_08h31.48.062,empathy_intonation_perc,2024.1.4,Win32,30.21148036,,,,,,,,,,,,,,102,coyo,,,,,,73.2665,74.6894,0,1,0.8735,,0,9,9,101,1,pseudoword,0,REAL,FALSA
,,,,,,,,,,001,2024-06-07_08h31.48.062,empathy_intonation_perc,2024.1.4,Win32,30.21148036,,,,,,,,,,,,,,68,puñal,,,,,,74.6904,76.1793,1,0,0.9253,,0,10,10,67,1,non_cognate,1,REAL,FALSA
,,,,,,,,,,001,2024-06-07_08h31.48.062,empathy_intonation_perc,2024.1.4,Win32,30.21148036,,,,,,,,,,,,,,45,total,,,,,,76.1807,77.8623,0,1,1.1209,,0,11,11,44,1,two_way_cognate,1,REAL,FALSA
,,,,,,,,,,001,2024-06-07_08h31.48.062,empathy_intonation_perc,2024.1.4,Win32,30.21148036,,,,,,,,,,,,,,88,percha,,,,,,77.866,80.8486,0,1,2.4073,,0,12,12,87,1,non_cognate,1,REAL,FALSA
,,,,,,,,,,001,2024-06-07_08h31.48.062,empathy_intonation_perc,2024.1.4,Win32,30.21148036,,,,,,,,,,,,,,1,tumor,,,,,,80.8499,82.5468,0,1,1.1391,,0,13,13,0,1,three_way_cognate,1,REAL,FALSA
,,,,,,,,,,001,2024-06-07_08h31.48.062,empathy_intonation_perc,2024.1.4,Win32,30.21148036,,,,,,,,,,,,,,66,aleta,,,,,,82.5479,84.6476,1,0,1.5441,,0,14,14,65,1,non_cognate,1,REAL,FALSA
,,,,,,,,,,001,2024-06-07_08h31.48.062,empathy_intonation_perc,2024.1.4,Win32,30.21148036,,,,,,,,,,,,,,56,pico,,,,,,84.6489,85.9496,1,0,0.725,,0,15,15,55,1,non_cognate,1,REAL,FALSA
,,,,,,,,,,001,2024-06-07_08h31.48.062,empathy_intonation_perc,2024.1.4,Win32,30.21148036,,,,,,,,,,,,,,12,plan,,,,,,85.9522,87.2029,0,1,0.6958,,0,16,16,11,1,three_way_cognate,1,REAL,FALSA
,,,,,,,,,,001,2024-06-07_08h31.48.062,empathy_intonation_perc,2024.1.4,Win32,30.21148036,,,,,,,,,,,,,,42,rumor,,,,,,87.2048,88.9279,0,1,1.156,,0,17,17,41,1,two_way_cognate,1,REAL,FALSA
,,,,,,,,,,001,2024-06-07_08h31.48.062,empathy_intonation_perc,2024.1.4,Win32,30.21148036,,,,,,,,,,,,,,38,halo,,,,,,88.9299,90.4979,1,0,1.0298,,0,18,18,37,1,two_way_cognate,1,REAL,FALSA
,,,,,,,,,,001,2024-06-07_08h31.48.062,empathy_intonation_perc,2024.1.4,Win32,30.21148036,,,,,,,,,,,,,,93,tapa,,,,,,90.4995,92.016,0,1,0.9554,,0,19,19,92,1,non_cognate,1,REAL,FALSA
,,,,,,,,,,001,2024-06-07_08h31.48.062,empathy_intonation_perc,2024.1.4,Win32,30.21148036,,,,,,,,,,,,,,135,macayó,,,,,,92.0174,93.8818,0,1,1.2707,,0,20,20,134,1,pseudoword,0,REAL,FALSA
,,,,,,,,,,001,2024-06-07_08h31.48.062,empathy_intonation_perc,2024.1.4,Win32,30.21148036,,,,,,,,,,,,,,144,piria,,,,,,93.8825,95.4538,1,0,0.9427,,0,21,21,143,1,pseudoword,0,REAL,FALSA
,,,,,,,,,,001,2024-06-07_08h31.48.062,empathy_intonation_perc,2024.1.4,Win32,30.21148036,,,,,,,,,,,,,,41,pasta,,,,,,95.456,97.1751,1,0,1.0564,,0,22,22,40,1,two_way_cognate,1,REAL,FALSA
,,,,,,,,,,001,2024-06-07_08h31.48.062,empathy_intonation_perc,2024.1.4,Win32,30.21148036,,,,,,,,,,,,,,49,teñir,,,,,,97.1761,98.5437,0,1,0.8232,,0,23,23,48,1,non_cognate,1,REAL,FALSA
,,,,,,,,,,001,2024-06-07_08h31.48.062,empathy_intonation_perc,2024.1.4,Win32,30.21148036,,,,,,,,,,,,,,111,vibler,,,,,,98.5449,100.4515,0,1,1.36,,0,24,24,110,1,pseudoword,0,REAL,FALSA
,,,,,,,,,,001,2024-06-07_08h31.48.062,empathy_intonation_perc,2024.1.4,Win32,30.21148036,,,,,,,,,,,,,,94,forro,,,,,,100.4527,101.7001,1,0,0.701,,0,25,25,93,1,non_cognate,1,REAL,FALSA
,,,,,,,,,,001,2024-06-07_08h31.48.062,empathy_intonation_perc,2024.1.4,Win32,30.21148036,,,,,,,,,,,,,,74,ala,,,,,,101.7009,103.8475,0,1,1.6024,,0,26,26,73,1,non_cognate,1,REAL,FALSA
,,,,,,,,,,001,2024-06-07_08h31.48.062,empathy_intonation_perc,2024.1.4,Win32,30.21148036,,,,,,,,,,,,,,69,tiza,,,,,,103.8492,105.343,1,0,0.8742,,0,27,27,68,1,non_cognate,1,REAL,FALSA
,,,,,,,,,,001,2024-06-07_08h31.48.062,empathy_intonation_perc,2024.1.4,Win32,30.21148036,,,,,,,,,,,,,,48,pelvis,,,,,,105.3441,107.7061,0,1,1.8061,,0,28,28,47,1,two_way_cognate,1,REAL,FALSA
,,,,,,,,,,001,2024-06-07_08h31.48.062,empathy_intonation_perc,2024.1.4,Win32,30.21148036,,,,,,,,,,,,,,83,hálito,,,,,,107.7076,117.1116,1,0,8.8571,,0,29,29,82,1,non_cognate,1,REAL,FALSA
,,,,,,,,,,001,2024-06-07_08h31.48.062,empathy_intonation_perc,2024.1.4,Win32,30.21148036,,,,,,,,,,,,,,67,llamar,,,,,,117.1478,119.1986,0,1,1.5168,,0,30,30,66,1,non_cognate,1,REAL,FALSA
,,,,,,,,,,001,2024-06-07_08h31.48.062,empathy_intonation_perc,2024.1.4,Win32,30.21148036,,,,,,,,,,,,,,62,pegar,,,,,,119.2003,121.0399,0,1,1.2942,,0,31,31,61,1,non_cognate,1,REAL,FALSA
,,,,,,,,,,001,2024-06-07_08h31.48.062,empathy_intonation_perc,2024.1.4,Win32,30.21148036,,,,,,,,,,,,,,126,anicio,,,,,,121.0407,122.3819,1,0,0.789,,0,32,32,125,1,pseudoword,0,REAL,FALSA
,,,,,,,,,,001,2024-06-07_08h31.48.062,empathy_intonation_perc,2024.1.4,Win32,30.21148036,,,,,,,,,,,,,,95,listo,,,,,,122.3833,124.0321,1,0,1.0885,,0,33,33,94,1,non_cognate,1,REAL,FALSA
,,,,,,,,,,001,2024-06-07_08h31.48.062,empathy_intonation_perc,2024.1.4,Win32,30.21148036,,,,,,,,,,,,,,52,blando,,,,,,124.0332,125.3436,0,1,0.7633,,0,34,34,51,1,non_cognate,1,REAL,FALSA
,,,,,,,,,,001,2024-06-07_08h31.48.062,empathy_intonation_perc,2024.1.4,Win32,30.21148036,,,,,,,,,,,,,,37,torso,,,,,,125.3449,127.2435,0,1,1.3541,,0,35,35,36,1,two_way_cognate,1,REAL,FALSA
,,,,,,,,,,001,2024-06-07_08h31.48.062,empathy_intonation_perc,2024.1.4,Win32,30.21148036,,,,,,,,,,,,,,80,cuenco,,,,,,127.2442,128.7049,1,0,0.9032,,0,36,36,79,1,non_cognate,1,REAL,FALSA
,,,,,,,,,,001,2024-06-07_08h31.48.062,empathy_intonation_perc,2024.1.4,Win32,30.21148036,,,,,,,,,,,,,,140,vapen,,,,,,128.7058,130.1363,0,1,0.8553,,0,37,37,139,1,pseudoword,0,REAL,FALSA
,,,,,,,,,,001,2024-06-07_08h31.48.062,empathy_intonation_perc,2024.1.4,Win32,30.21148036,,,,,,,,,,,,,,123,escare,,,,,,130.1373,131.6251,0,1,0.9444,,0,38,38,122,1,pseudoword,0,REAL,FALSA
,,,,,,,,,,001,2024-06-07_08h31.48.062,empathy_intonation_perc,2024.1.4,Win32,30.21148036,,,,,,,,,,,,,,23,porno,,,,,,131.6261,133.2053,1,0,1.0264,,0,39,39,22,1,three_way_cognate,1,REAL,FALSA
,,,,,,,,,,001,2024-06-07_08h31.48.062,empathy_intonation_perc,2024.1.4,Win32,30.21148036,,,,,,,,,,,,,,118,bará,,,,,,133.2069,134.7628,1,0,1.0031,,0,40,40,117,1,pseudoword,0,REAL,FALSA
,,,,,,,,,,001,2024-06-07_08h31.48.062,empathy_intonation_perc,2024.1.4,Win32,30.21148036,,,,,,,,,,,,,,125,ceme,,,,,,134.7635,135.9472,0,1,0.6414,,0,41,41,124,1,pseudoword,0,REAL,FALSA
,,,,,,,,,,001,2024-06-07_08h31.48.062,empathy_intonation_perc,2024.1.4,Win32,30.21148036,,,,,,,,,,,,,,10,golf,,,,,,135.9484,137.5553,0,1,1.0495,,0,42,42,9,1,three_way_cognate,1,REAL,FALSA
,,,,,,,,,,001,2024-06-07_08h31.48.062,empathy_intonation_perc,2024.1.4,Win32,30.21148036,,,,,,,,,,,,,,76,chocar,,,,,,137.5564,139.6451,0,1,1.5423,,0,43,43,75,1,non_cognate,1,REAL,FALSA
,,,,,,,,,,001,2024-06-07_08h31.48.062,empathy_intonation_perc,2024.1.4,Win32,30.21148036,,,,,,,,,,,,,,9,drama,,,,,,139.6462,141.0705,0,1,0.7998,,0,44,44,8,1,three_way_cognate,1,REAL,FALSA
,,,,,,,,,,001,2024-06-07_08h31.48.062,empathy_intonation_perc,2024.1.4,Win32,30.21148036,,,,,,,,,,,,,,54,tapón,,,,,,141.0726,142.4069,1,0,0.8079,,0,45,45,53,1,non_cognate,1,REAL,FALSA
,,,,,,,,,,001,2024-06-07_08h31.48.062,empathy_intonation_perc,2024.1.4,Win32,30.21148036,,,,,,,,,,,,,,136,sopleó,,,,,,142.4083,144.069,1,0,1.0555,,0,46,46,135,1,pseudoword,0,REAL,FALSA
,,,,,,,,,,001,2024-06-07_08h31.48.062,empathy_intonation_perc,2024.1.4,Win32,30.21148036,,,,,,,,,,,,,,70,ánimo,,,,,,144.0699,145.8483,1,0,1.2451,,0,47,47,69,1,non_cognate,1,REAL,FALSA
,,,,,,,,,,001,2024-06-07_08h31.48.062,empathy_intonation_perc,2024.1.4,Win32,30.21148036,,,,,,,,,,,,,,14,test,,,,,,145.8521,147.2921,0,1,0.8929,,0,48,48,13,1,three_way_cognate,1,REAL,FALSA
,,,,,,,,,,001,2024-06-07_08h31.48.062,empathy_intonation_perc,2024.1.4,Win32,30.21148036,,,,,,,,,,,,,,63,hilo,,,,,,147.2935,148.9214,0,1,1.0179,,0,49,49,62,1,non_cognate,1,REAL,FALSA
,,,,,,,,,,001,2024-06-07_08h31.48.062,empathy_intonation_perc,2024.1.4,Win32,30.21148036,,,,,,,,,,,,,,133,tirafa,,,,,,148.9223,150.3692,1,0,0.9052,,0,50,50,132,1,pseudoword,0,REAL,FALSA
,,,,,,,,,,001,2024-06-07_08h31.48.062,empathy_intonation_perc,2024.1.4,Win32,30.21148036,,,,,,,,,,,,,,58,colcha,,,,,,150.3704,152.2845,0,1,1.3685,,0,51,51,57,1,non_cognate,1,REAL,FALSA
,,,,,,,,,,001,2024-06-07_08h31.48.062,empathy_intonation_perc,2024.1.4,Win32,30.21148036,,,,,,,,,,,,,,3,flora,,,,,,152.2855,153.8127,1,0,0.9838,,0,52,52,2,1,three_way_cognate,1,REAL,FALSA
,,,,,,,,,,001,2024-06-07_08h31.48.062,empathy_intonation_perc,2024.1.4,Win32,30.21148036,,,,,,,,,,,,,,13,aura,,,,,,153.8135,155.2272,0,1,0.8364,,0,53,53,12,1,three_way_cognate,1,REAL,FALSA
,,,,,,,,,,001,2024-06-07_08h31.48.062,empathy_intonation_perc,2024.1.4,Win32,30.21148036,,,,,,,,,,,,,,26,enigma,,,,,,155.2292,156.744,0,1,0.9717,,0,54,54,25,1,two_way_cognate,1,REAL,FALSA
,,,,,,,,,,001,2024-06-07_08h31.48.062,empathy_intonation_perc,2024.1.4,Win32,30.21148036,,,,,,,,,,,,,,79,suelo,,,,,,156.745,158.1409,1,0,0.8637,,0,55,55,78,1,non_cognate,1,REAL,FALSA
,,,,,,,,,,001,2024-06-07_08h31.48.062,empathy_intonation_perc,2024.1.4,Win32,30.21148036,,,,,,,,,,,,,,90,venado,,,,,,158.1423,159.3444,0,1,0.6578,,0,56,56,89,1,non_cognate,1,REAL,FALSA
,,,,,,,,,,001,2024-06-07_08h31.48.062,empathy_intonation_perc,2024.1.4,Win32,30.21148036,,,,,,,,,,,,,,65,guerra,,,,,,159.3454,161.6901,1,0,1.7891,,0,57,57,64,1,non_cognate,1,REAL,FALSA
,,,,,,,,,,001,2024-06-07_08h31.48.062,empathy_intonation_perc,2024.1.4,Win32,30.21148036,,,,,,,,,,,,,,28,ardor,,,,,,161.728,162.931,0,1,0.6664,,0,58,58,27,1,two_way_cognate,1,REAL,FALSA
,,,,,,,,,,001,2024-06-07_08h31.48.062,empathy_intonation_perc,2024.1.4,Win32,30.21148036,,,,,,,,,,,,,,104,vitra,,,,,,162.9323,164.4631,0,1,0.9344,,0,59,59,103,1,pseudoword,0,REAL,FALSA
,,,,,,,,,,001,2024-06-07_08h31.48.062,empathy_intonation_perc,2024.1.4,Win32,30.21148036,,,,,,,,,,,,,,22,plural,,,,,,164.464,165.7924,0,1,0.7823,,0,60,60,21,1,three_way_cognate,1,REAL,FALSA
,,,,,,,,,,001,2024-06-07_08h31.48.062,empathy_intonation_perc,2024.1.4,Win32,30.21148036,,,,,,,,,,,,,,55,maldad,,,,,,165.7933,167.8462,1,0,1.4916,,0,61,61,54,1,non_cognate,1,REAL,FALSA
,,,,,,,,,,001,2024-06-07_08h31.48.062,empathy_intonation_perc,2024.1.4,Win32,30.21148036,,,,,,,,,,,,,,27,piano,,,,,,167.8487,168.9717,0,1,0.5685,,0,62,62,26,1,two_way_cognate,1,REAL,FALSA
,,,,,,,,,,001,2024-06-07_08h31.48.062,empathy_intonation_perc,2024.1.4,Win32,30.21148036,,,,,,,,,,,,,,130,dubo,,,,,,168.9731,170.7331,0,1,1.2133,,0,63,63,129,1,pseudoword,0,REAL,FALSA
,,,,,,,,,,001,2024-06-07_08h31.48.062,empathy_intonation_perc,2024.1.4,Win32,30.21148036,,,,,,,,,,,,,,24,retina,,,,,,170.7342,172.1006,0,1,0.793,,0,64,64,23,1,three_way_cognate,1,REAL,FALSA
,,,,,,,,,,001,2024-06-07_08h31.48.062,empathy_intonation_perc,2024.1.4,Win32,30.21148036,,,,,,,,,,,,,,33,collar,,,,,,172.102,173.4483,0,1,0.7857,,0,65,65,32,1,two_way_cognate,1,REAL,FALSA
,,,,,,,,,,001,2024-06-07_08h31.48.062,empathy_intonation_perc,2024.1.4,Win32,30.21148036,,,,,,,,,,,,,,116,crene,,,,,,173.4492,175.2373,0,1,1.2425,,0,66,66,115,1,pseudoword,0,REAL,FALSA
,,,,,,,,,,001,2024-06-07_08h31.48.062,empathy_intonation_perc,2024.1.4,Win32,30.21148036,,,,,,,,,,,,,,35,aurora,,,,,,175.2381,176.7562,1,0,0.9792,,0,67,67,34,1,two_way_cognate,1,REAL,FALSA
,,,,,,,,,,001,2024-06-07_08h31.48.062,empathy_intonation_perc,2024.1.4,Win32,30.21148036,,,,,,,,,,,,,,17,altar,,,,,,176.7583,178.0241,0,1,0.7174,,0,68,68,16,1,three_way_cognate,1,REAL,FALSA
,,,,,,,,,,001,2024-06-07_08h31.48.062,empathy_intonation_perc,2024.1.4,Win32,30.21148036,,,,,,,,,,,,,,59,feo,,,,,,178.0249,179.7516,1,0,1.18,,0,69,69,58,1,non_cognate,1,REAL,FALSA
,,,,,,,,,,001,2024-06-07_08h31.48.062,empathy_intonation_perc,2024.1.4,Win32,30.21148036,,,,,,,,,,,,,,78,rendir,,,,,,179.7539,180.939,0,1,0.6368,,0,70,70,77,1,non_cognate,1,REAL,FALSA
,,,,,,,,,,001,2024-06-07_08h31.48.062,empathy_intonation_perc,2024.1.4,Win32,30.21148036,,,,,,,,,,,,,,40,pelvis,,,,,,180.9399,182.1537,0,1,0.6368,,0,71,71,39,1,two_way_cognate,1,REAL,FALSA
,,,,,,,,,,001,2024-06-07_08h31.48.062,empathy_intonation_perc,2024.1.4,Win32,30.21148036,,,,,,,,,,,,,,64,rizado,,,,,,182.155,183.4954,1,0,0.7805,,0,72,72,63,1,non_cognate,1,REAL,FALSA
,,,,,,,,,,001,2024-06-07_08h31.48.062,empathy_intonation_perc,2024.1.4,Win32,30.21148036,,,,,,,,,,,,,,86,cuenco,,,,,,183.4976,186.1085,1,0,2.0621,,0,73,73,85,1,non_cognate,1,REAL,FALSA
,,,,,,,,,,001,2024-06-07_08h31.48.062,empathy_intonation_perc,2024.1.4,Win32,30.21148036,,,,,,,,,,,,,,99,mieris,,,,,,186.1429,187.7341,0,1,1.0594,,0,74,74,98,1,pseudoword,0,REAL,FALSA
,,,,,,,,,,001,2024-06-07_08h31.48.062,empathy_intonation_perc,2024.1.4,Win32,30.21148036,,,,,,,,,,,,,,2,disco,,,,,,187.7348,189.4897,1,0,1.2008,,0,75,75,1,1,three_way_cognate,1,REAL,FALSA
,,,,,,,,,,001,2024-06-07_08h31.48.062,empathy_intonation_perc,2024.1.4,Win32,30.21148036,,,,,,,,,,,,,,25,vigor,,,,,,189.4905,190.706,0,1,0.6701,,0,76,76,24,1,two_way_cognate,1,REAL,FALSA
,,,,,,,,,,001,2024-06-07_08h31.48.062,empathy_intonation_perc,2024.1.4,Win32,30.21148036,,,,,,,,,,,,,,87,muleta,,,,,,190.7078,194.4488,0,1,3.1811,,0,77,77,86,1,non_cognate,1,REAL,FALSA
,,,,,,,,,,001,2024-06-07_08h31.48.062,empathy_intonation_perc,2024.1.4,Win32,30.21148036,,,,,,,,,,,,,,112,cituló,,,,,,194.4872,196.0123,1,0,0.9674,,0,78,78,111,1,pseudoword,0,REAL,FALSA
,,,,,,,,,,001,2024-06-07_08h31.48.062,empathy_intonation_perc,2024.1.4,Win32,30.21148036,,,,,,,,,,,,,,21,mango,,,,,,196.0131,197.3438,0,1,0.7881,,0,79,79,20,1,three_way_cognate,1,REAL,FALSA
,,,,,,,,,,001,2024-06-07_08h31.48.062,empathy_intonation_perc,2024.1.4,Win32,30.21148036,,,,,,,,,,,,,,51,listo,,,,,,197.345,198.7481,1,0,0.8575,,0,80,80,50,1,non_cognate,1,REAL,FALSA
,,,,,,,,,,001,2024-06-07_08h31.48.062,empathy_intonation_perc,2024.1.4,Win32,30.21148036,,,,,,,,,,,,,,132,nocó,,,,,,198.7493,201.0899,0,1,1.8156,,0,81,81,131,1,pseudoword,0,REAL,FALSA
,,,,,,,,,,001,2024-06-07_08h31.48.062,empathy_intonation_perc,2024.1.4,Win32,30.21148036,,,,,,,,,,,,,,85,enorme,,,,,,201.0909,202.4592,0,1,0.8106,,0,82,82,84,1,non_cognate,1,REAL,FALSA
,,,,,,,,,,001,2024-06-07_08h31.48.062,empathy_intonation_perc,2024.1.4,Win32,30.21148036,,,,,,,,,,,,,,139,furbos,,,,,,202.4606,204.0114,0,1,1.0002,,0,83,83,138,1,pseudoword,0,REAL,FALSA
,,,,,,,,,,001,2024-06-07_08h31.48.062,empathy_intonation_perc,2024.1.4,Win32,30.21148036,,,,,,,,,,,,,,8,portal,,,,,,204.0132,205.3788,0,1,0.8161,,0,84,84,7,1,three_way_cognate,1,REAL,FALSA
,,,,,,,,,,001,2024-06-07_08h31.48.062,empathy_intonation_perc,2024.1.4,Win32,30.21148036,,,,,,,,,,,,,,4,extra,,,,,,205.38,206.6181,0,1,0.6905,,0,85,85,3,1,three_way_cognate,1,REAL,FALSA
,,,,,,,,,,001,2024-06-07_08h31.48.062,empathy_intonation_perc,2024.1.4,Win32,30.21148036,,,,,,,,,,,,,,127,vien,,,,,,206.6191,207.9782,1,0,0.8205,,0,86,86,126,1,pseudoword,0,REAL,FALSA
,,,,,,,,,,001,2024-06-07_08h31.48.062,empathy_intonation_perc,2024.1.4,Win32,30.21148036,,,,,,,,,,,,,,36,viable,,,,,,207.9793,209.2415,0,1,0.7187,,0,87,87,35,1,two_way_cognate,1,REAL,FALSA
,,,,,,,,,,001,2024-06-07_08h31.48.062,empathy_intonation_perc,2024.1.4,Win32,30.21148036,,,,,,,,,,,,,,138,glural,,,,,,209.2424,211.2642,1,0,1.3955,,0,88,88,137,1,pseudoword,0,REAL,FALSA
,,,,,,,,,,001,2024-06-07_08h31.48.062,empathy_intonation_perc,2024.1.4,Win32,30.21148036,,,,,,,,,,,,,,73,llevar,,,,,,211.2656,212.3882,1,0,0.57,,0,89,89,72,1,non_cognate,1,REAL,FALSA
,,,,,,,,,,001,2024-06-07_08h31.48.062,empathy_intonation_perc,2024.1.4,Win32,30.21148036,,,,,,,,,,,,,,29,clamor,,,,,,212.3891,213.8788,0,1,0.9417,,0,90,90,28,1,two_way_cognate,1,REAL,FALSA
,,,,,,,,,,001,2024-06-07_08h31.48.062,empathy_intonation_perc,2024.1.4,Win32,30.21148036,,,,,,,,,,,,,,113,difrás,,,,,,213.8812,215.3015,0,1,0.8431,,0,91,91,112,1,pseudoword,0,REAL,FALSA
,,,,,,,,,,001,2024-06-07_08h31.48.062,empathy_intonation_perc,2024.1.4,Win32,30.21148036,,,,,,,,,,,,,,97,hufón,,,,,,215.3025,216.6663,0,1,0.8086,,0,92,92,96,1,pseudoword,0,REAL,FALSA
,,,,,,,,,,001,2024-06-07_08h31.48.062,empathy_intonation_perc,2024.1.4,Win32,30.21148036,,,,,,,,,,,,,,98,erede,,,,,,216.6673,218.1471,0,1,0.9233,,0,93,93,97,1,pseudoword,0,REAL,FALSA
,,,,,,,,,,001,2024-06-07_08h31.48.062,empathy_intonation_perc,2024.1.4,Win32,30.21148036,,,,,,,,,,,,,,91,equipo,,,,,,218.1481,219.3426,1,0,0.6525,,0,94,94,90,1,non_cognate,1,REAL,FALSA
,,,,,,,,,,001,2024-06-07_08h31.48.062,empathy_intonation_perc,2024.1.4,Win32,30.21148036,,,,,,,,,,,,,,103,babes,,,,,,219.3438,220.7291,0,1,0.8196,,0,95,95,102,1,pseudoword,0,REAL,FALSA
,,,,,,,,,,001,2024-06-07_08h31.48.062,empathy_intonation_perc,2024.1.4,Win32,30.21148036,,,,,,,,,,,,,,117,apunan,,,,,,220.7303,222.2037,0,1,0.9175,,0,96,96,116,1,pseudoword,0,REAL,FALSA
,,,,,,,,,,001,2024-06-07_08h31.48.062,empathy_intonation_perc,2024.1.4,Win32,30.21148036,,,,,,,,,,,,,,47,color,,,,,,222.2045,223.5068,0,1,0.7331,,0,97,97,46,1,two_way_cognate,1,REAL,FALSA
,,,,,,,,,,001,2024-06-07_08h31.48.062,empathy_intonation_perc,2024.1.4,Win32,30.21148036,,,,,,,,,,,,,,115,civas,,,,,,223.5075,224.6895,1,0,0.6256,,0,98,98,114,1,pseudoword,0,REAL,FALSA
,,,,,,,,,,001,2024-06-07_08h31.48.062,empathy_intonation_perc,2024.1.4,Win32,30.21148036,,,,,,,,,,,,,,75,patada,,,,,,224.6907,226.3631,0,1,1.1203,,0,99,99,74,1,non_cognate,1,REAL,FALSA
,,,,,,,,,,001,2024-06-07_08h31.48.062,empathy_intonation_perc,2024.1.4,Win32,30.21148036,,,,,,,,,,,,,,30,fiscal,,,,,,226.364,227.7489,0,1,0.8387,,0,100,100,29,1,two_way_cognate,1,REAL,FALSA
,,,,,,,,,,001,2024-06-07_08h31.48.062,empathy_intonation_perc,2024.1.4,Win32,30.21148036,,,,,,,,,,,,,,121,rombar,,,,,,227.7504,229.2926,0,1,0.985,,0,101,101,120,1,pseudoword,0,REAL,FALSA
,,,,,,,,,,001,2024-06-07_08h31.48.062,empathy_intonation_perc,2024.1.4,Win32,30.21148036,,,,,,,,,,,,,,11,dogma,,,,,,229.2937,230.7784,0,1,0.9393,,0,102,102,10,1,three_way_cognate,1,REAL,FALSA
,,,,,,,,,,001,2024-06-07_08h31.48.062,empathy_intonation_perc,2024.1.4,Win32,30.21148036,,,,,,,,,,,,,,107,plamos,,,,,,230.7795,232.291,1,0,0.9389,,0,103,103,106,1,pseudoword,0,REAL,FALSA
,,,,,,,,,,001,2024-06-07_08h31.48.062,empathy_intonation_perc,2024.1.4,Win32,30.21148036,,,,,,,,,,,,,,44,editor,,,,,,232.2928,233.5709,0,1,0.7181,,0,104,104,43,1,two_way_cognate,1,REAL,FALSA
,,,,,,,,,,001,2024-06-07_08h31.48.062,empathy_intonation_perc,2024.1.4,Win32,30.21148036,,,,,,,,,,,,,,60,siglo,,,,,,233.5717,258.3078,0,1,24.1916,,0,105,105,59,1,non_cognate,1,REAL,FALSA
,,,,,,,,,,001,2024-06-07_08h31.48.062,empathy_intonation_perc,2024.1.4,Win32,30.21148036,,,,,,,,,,,,,,120,hierno,,,,,,258.3445,259.6592,1,0,0.7831,,0,106,106,119,1,pseudoword,0,REAL,FALSA
,,,,,,,,,,001,2024-06-07_08h31.48.062,empathy_intonation_perc,2024.1.4,Win32,30.21148036,,,,,,,,,,,,,,53,punta,,,,,,259.6602,260.9422,1,0,0.7292,,0,107,107,52,1,non_cognate,1,REAL,FALSA
,,,,,,,,,,001,2024-06-07_08h31.48.062,empathy_intonation_perc,2024.1.4,Win32,30.21148036,,,,,,,,,,,,,,46,mortal,,,,,,260.9434,262.1063,0,1,0.5982,,0,108,108,45,1,two_way_cognate,1,REAL,FALSA
,,,,,,,,,,001,2024-06-07_08h31.48.062,empathy_intonation_perc,2024.1.4,Win32,30.21148036,,,,,,,,,,,,,,39,casual,,,,,,262.1073,263.405,0,1,0.7531,,0,109,109,38,1,two_way_cognate,1,REAL,FALSA
,,,,,,,,,,001,2024-06-07_08h31.48.062,empathy_intonation_perc,2024.1.4,Win32,30.21148036,,,,,,,,,,,,,,43,honor,,,,,,263.4058,264.6293,0,1,0.6637,,0,110,110,42,1,two_way_cognate,1,REAL,FALSA
,,,,,,,,,,001,2024-06-07_08h31.48.062,empathy_intonation_perc,2024.1.4,Win32,30.21148036,,,,,,,,,,,,,,108,viarle,,,,,,264.6301,266.1293,0,1,0.9498,,0,111,111,107,1,pseudoword,0,REAL,FALSA
,,,,,,,,,,001,2024-06-07_08h31.48.062,empathy_intonation_perc,2024.1.4,Win32,30.21148036,,,,,,,,,,,,,,31,civil,,,,,,266.1312,267.3634,0,1,0.681,,0,112,112,30,1,two_way_cognate,1,REAL,FALSA
,,,,,,,,,,001,2024-06-07_08h31.48.062,empathy_intonation_perc,2024.1.4,Win32,30.21148036,,,,,,,,,,,,,,106,baurá,,,,,,267.3641,268.5832,1,0,0.6713,,0,113,113,105,1,pseudoword,0,REAL,FALSA
,,,,,,,,,,001,2024-06-07_08h31.48.062,empathy_intonation_perc,2024.1.4,Win32,30.21148036,,,,,,,,,,,,,,128,pelí,,,,,,268.5844,269.7612,1,0,0.6224,,0,114,114,127,1,pseudoword,0,REAL,FALSA
,,,,,,,,,,001,2024-06-07_08h31.48.062,empathy_intonation_perc,2024.1.4,Win32,30.21148036,,,,,,,,,,,,,,110,vacapó,,,,,,269.7623,271.1117,1,0,0.8061,,0,115,115,109,1,pseudoword,0,REAL,FALSA
,,,,,,,,,,001,2024-06-07_08h31.48.062,empathy_intonation_perc,2024.1.4,Win32,30.21148036,,,,,,,,,,,,,,61,aduana,,,,,,271.1132,272.172,0,1,0.5123,,0,116,116,60,1,non_cognate,1,REAL,FALSA
,,,,,,,,,,001,2024-06-07_08h31.48.062,empathy_intonation_perc,2024.1.4,Win32,30.21148036,,,,,,,,,,,,,,109,hágino,,,,,,272.1734,273.3263,1,0,0.6096,,0,117,117,108,1,pseudoword,0,REAL,FALSA
,,,,,,,,,,001,2024-06-07_08h31.48.062,empathy_intonation_perc,2024.1.4,Win32,30.21148036,,,,,,,,,,,,,,114,potos,,,,,,273.3275,274.3757,0,1,0.508,,0,118,118,113,1,pseudoword,0,REAL,FALSA
,,,,,,,,,,001,2024-06-07_08h31.48.062,empathy_intonation_perc,2024.1.4,Win32,30.21148036,,,,,,,,,,,,,,5,horror,,,,,,274.377,275.5574,0,1,0.6242,,0,119,119,4,1,three_way_cognate,1,REAL,FALSA
,,,,,,,,,,001,2024-06-07_08h31.48.062,empathy_intonation_perc,2024.1.4,Win32,30.21148036,,,,,,,,,,,,,,142,viseña,,,,,,275.5585,277.1449,0,1,1.0251,,0,120,120,141,1,pseudoword,0,REAL,FALSA
,,,,,,,,,,001,2024-06-07_08h31.48.062,empathy_intonation_perc,2024.1.4,Win32,30.21148036,,,,,,,,,,,,,,71,torta,,,,,,277.1461,278.0983,1,0,0.42,,0,121,121,70,1,non_cognate,1,REAL,FALSA
,,,,,,,,,,001,2024-06-07_08h31.48.062,empathy_intonation_perc,2024.1.4,Win32,30.21148036,,,,,,,,,,,,,,101,fertes,,,,,,278.0992,279.2466,1,0,0.6048,,0,122,122,100,1,pseudoword,0,REAL,FALSA
,,,,,,,,,,001,2024-06-07_08h31.48.062,empathy_intonation_perc,2024.1.4,Win32,30.21148036,,,,,,,,,,,,,,72,rostro,,,,,,279.2478,280.7819,0,1,0.9913,,0,123,123,71,1,non_cognate,1,REAL,FALSA
,,,,,,,,,,001,2024-06-07_08h31.48.062,empathy_intonation_perc,2024.1.4,Win32,30.21148036,,,,,,,,,,,,,,7,kilo,,,,,,280.7832,282.3348,0,1,0.9959,,0,124,124,6,1,three_way_cognate,1,REAL,FALSA
,,,,,,,,,,001,2024-06-07_08h31.48.062,empathy_intonation_perc,2024.1.4,Win32,30.21148036,,,,,,,,,,,,,,50,sierra,,,,,,282.3379,284.334,1,0,1.4458,,0,125,125,49,1,non_cognate,1,REAL,FALSA
,,,,,,,,,,001,2024-06-07_08h31.48.062,empathy_intonation_perc,2024.1.4,Win32,30.21148036,,,,,,,,,,,,,,134,fruzas,,,,,,284.3356,285.4903,1,0,0.5988,,0,126,126,133,1,pseudoword,0,REAL,FALSA
,,,,,,,,,,001,2024-06-07_08h31.48.062,empathy_intonation_perc,2024.1.4,Win32,30.21148036,,,,,,,,,,,,,,92,flecha,,,,,,285.4911,287.4118,0,1,1.3637,,0,127,127,91,1,non_cognate,1,REAL,FALSA
,,,,,,,,,,001,2024-06-07_08h31.48.062,empathy_intonation_perc,2024.1.4,Win32,30.21148036,,,,,,,,,,,,,,141,sumer,,,,,,287.413,289.0757,0,1,1.1122,,0,128,128,140,1,pseudoword,0,REAL,FALSA
,,,,,,,,,,001,2024-06-07_08h31.48.062,empathy_intonation_perc,2024.1.4,Win32,30.21148036,,,,,,,,,,,,,,81,sacar,,,,,,289.0773,290.5943,1,0,0.9695,,0,129,129,80,1,non_cognate,1,REAL,FALSA
,,,,,,,,,,001,2024-06-07_08h31.48.062,empathy_intonation_perc,2024.1.4,Win32,30.21148036,,,,,,,,,,,,,,143,pledú,,,,,,290.5951,291.994,0,1,0.8481,,0,130,130,142,1,pseudoword,0,REAL,FALSA
,,,,,,,,,,001,2024-06-07_08h31.48.062,empathy_intonation_perc,2024.1.4,Win32,30.21148036,,,,,,,,,,,,,,82,brillo,,,,,,291.9948,293.2746,1,0,0.7201,,0,131,131,81,1,non_cognate,1,REAL,FALSA
,,,,,,,,,,001,2024-06-07_08h31.48.062,empathy_intonation_perc,2024.1.4,Win32,30.21148036,,,,,,,,,,,,,,124,lobe,,,,,,293.2753,294.6889,0,1,0.8528,,0,132,132,123,1,pseudoword,0,REAL,FALSA
,,,,,,,,,,001,2024-06-07_08h31.48.062,empathy_intonation_perc,2024.1.4,Win32,30.21148036,,,,,,,,,,,,,,16,clan,,,,,,294.6903,295.8087,0,1,0.5851,,0,133,133,15,1,three_way_cognate,1,REAL,FALSA
,,,,,,,,,,001,2024-06-07_08h31.48.062,empathy_intonation_perc,2024.1.4,Win32,30.21148036,,,,,,,,,,,,,,131,fuar,,,,,,295.8095,297.5502,1,0,1.2011,,0,134,134,130,1,pseudoword,0,REAL,FALSA
,,,,,,,,,,001,2024-06-07_08h31.48.062,empathy_intonation_perc,2024.1.4,Win32,30.21148036,,,,,,,,,,,,,,15,chat,,,,,,297.5517,298.7147,0,1,0.612,,0,135,135,14,1,three_way_cognate,1,REAL,FALSA
,,,,,,,,,,001,2024-06-07_08h31.48.062,empathy_intonation_perc,2024.1.4,Win32,30.21148036,,,,,,,,,,,,,,89,muñeca,,,,,,298.7155,300.1125,0,1,0.8348,,0,136,136,88,1,non_cognate,1,REAL,FALSA
,,,,,,,,,,001,2024-06-07_08h31.48.062,empathy_intonation_perc,2024.1.4,Win32,30.21148036,,,,,,,,,,,,,,32,animal,,,,,,300.114,301.3104,0,1,0.6498,,0,137,137,31,1,two_way_cognate,1,REAL,FALSA
,,,,,,,,,,001,2024-06-07_08h31.48.062,empathy_intonation_perc,2024.1.4,Win32,30.21148036,,,,,,,,,,,,,,20,hotel,,,,,,301.3118,302.425,0,1,0.5716,,0,138,138,19,1,three_way_cognate,1,REAL,FALSA
,,,,,,,,,,001,2024-06-07_08h31.48.062,empathy_intonation_perc,2024.1.4,Win32,30.21148036,,,,,,,,,,,,,,105,curgué,,,,,,302.4261,306.4526,1,0,3.4807,,0,139,139,104,1,pseudoword,0,REAL,FALSA
,,,,,,,,,,001,2024-06-07_08h31.48.062,empathy_intonation_perc,2024.1.4,Win32,30.21148036,,,,,,,,,,,,,,119,esís,,,,,,306.4915,307.5898,1,0,0.5564,,0,140,140,118,1,pseudoword,0,REAL,FALSA
,,,,,,,,,,001,2024-06-07_08h31.48.062,empathy_intonation_perc,2024.1.4,Win32,30.21148036,,,,,,,,,,,,,,19,trauma,,,,,,307.5908,309.049,0,1,0.9027,,0,141,141,18,1,three_way_cognate,1,REAL,FALSA
,,,,,,,,,,001,2024-06-07_08h31.48.062,empathy_intonation_perc,2024.1.4,Win32,30.21148036,,,,,,,,,,,,,,57,regalo,,,,,,309.05,310.5888,0,1,0.9997,,0,142,142,56,1,non_cognate,1,REAL,FALSA
,,,,,,,,,,001,2024-06-07_08h31.48.062,empathy_intonation_perc,2024.1.4,Win32,30.21148036,,,,,,,,,,,,,,18,mafia,,,,,,310.5904,311.999,1,0,0.7757,,0,143,143,17,1,three_way_cognate,1,REAL,FALSA
