instructions_text,continue_text,stim,word,correct_response,prac_button_real,prac_button_false,type,correct_reponse,button_real,button_false,lextale_instructions_loop.thisRepN,lextale_instructions_loop.thisTrialN,lextale_instructions_loop.thisN,lextale_instructions_loop.thisIndex,lextale_practice_trials.thisRepN,lextale_practice_trials.thisTrialN,lextale_practice_trials.thisN,lextale_practice_trials.thisIndex,lextail_trials.thisRepN,lextail_trials.thisTrialN,lextail_trials.thisN,lextail_trials.thisIndex,thisRow.t,notes,lextale_instructions.started,lextale_instructions.stopped,lextale_practice.started,lextale_practice.stopped,key_resp_lextale_practice.keys,key_resp_lextale_practice.corr,key_resp_lextale_practice.rt,key_resp_lextale_practice.duration,lextale_practice_feedback.started,lextale_practice_feedback.stopped,lextale_check.started,lextale_check.stopped,lextale_trial.started,lextale_trial.stopped,key_resp_lextale_trial.keys,key_resp_lextale_trial.corr,key_resp_lextale_trial.rt,key_resp_lextale_trial.duration,participant,session,date,expName,psychopyVersion,frameRate,expStart,
"Este es un test de vocabulario en español. 
  
  A continuación vas a ver 90 secuencias de letras que parecen 'españolas'.
  
  Solo algunas de ellas son palabras de verdad.",(presiona la barra espaciadora para continuar),,,,,,,,,,0,0,0,0,,,,,,,,,0.03780287501285784,,0.015211624995572492,3.04226162499981,,,,,,,,,,,,,,,,,kp_pilot,001,2024-06-02_13h06.17.553,empathy_intonation_perc,2024.1.4,None,2024-06-02 13h06.24.538503 +0200,
"Por favor, señala las palabras que tú conoces (aquellas que estás convencido que son palabras españolas, incluso aunque no seas capaz de dar el significado preciso).",(presiona la barra espaciadora para continuar),,,,,,,,,,0,1,1,1,,,,,,,,,3.057800957991276,,3.042601499997545,5.948061041010078,,,,,,,,,,,,,,,,,kp_pilot,001,2024-06-02_13h06.17.553,empathy_intonation_perc,2024.1.4,None,2024-06-02 13h06.24.538503 +0200,
Pero cuidado: los errores se penalizan. Por eso no tiene sentido tratar de incrementar tu puntuación marcando como reales palabras que nunca has visto.,(presiona la barra espaciadora para continuar),,,,,,,,,,0,2,2,2,,,,,,,,,5.969691665988648,,5.948371083009988,9.854647791013122,,,,,,,,,,,,,,,,,kp_pilot,001,2024-06-02_13h06.17.553,empathy_intonation_perc,2024.1.4,None,2024-06-02 13h06.24.538503 +0200,
"Presiona la tecla 1 si piensas que es una palabra real y la tecla 
  0 si piensas que es una palabra falsa. 
  
  Vamos a practicar un poco...",(presiona la barra espaciadora para continuar),,,,,,,,,,0,3,3,3,,,,,,,,,9.868251041014446,,9.854904957988765,12.765394665999338,,,,,,,,,,,,,,,,,kp_pilot,001,2024-06-02_13h06.17.553,empathy_intonation_perc,2024.1.4,None,2024-06-02 13h06.24.538503 +0200,
,,0,depiste,0,REAL,FALSA,,,,,,,,,0,0,0,0,,,,,12.782032082992373,,,,12.77096820800216,13.631661249994067,0,1,0.3353375830047298,None,13.632051416003378,14.631764082994778,,,,,,,,,kp_pilot,001,2024-06-02_13h06.17.553,empathy_intonation_perc,2024.1.4,None,2024-06-02 13h06.24.538503 +0200,
,,0,sí,1,REAL,FALSA,,,,,,,,,0,1,1,1,,,,,14.647106958000222,,,,14.632062374992529,15.66439387499122,1,1,0.5183751659933478,None,15.664643875003094,16.664726374991005,,,,,,,,,kp_pilot,001,2024-06-02_13h06.17.553,empathy_intonation_perc,2024.1.4,None,2024-06-02 13h06.24.538503 +0200,
,,0,coné,0,REAL,FALSA,,,,,,,,,0,2,2,2,,,,,16.681428957992466,,,,16.6650337910105,17.68188779099728,1,0,0.5020655829866882,None,17.68212054099422,18.681583249999676,,,,,,,,,kp_pilot,001,2024-06-02_13h06.17.553,empathy_intonation_perc,2024.1.4,None,2024-06-02 13h06.24.538503 +0200,
,,0,calpar,0,REAL,FALSA,,,,,,,,,0,3,3,3,,,,,18.698950124991825,,,,18.681902874988737,19.232268416002626,0,1,0.04321204099687748,None,19.232548750005662,20.231959124997957,,,,,,,,,kp_pilot,001,2024-06-02_13h06.17.553,empathy_intonation_perc,2024.1.4,None,2024-06-02 13h06.24.538503 +0200,
,,0,joten,0,REAL,FALSA,,,,,,,,,0,4,4,4,,,,,20.248260874999687,,,,20.232266208011424,20.849129165988415,0,1,0.11681875001522712,None,20.849417999997968,21.84815270800027,,,,,,,,,kp_pilot,001,2024-06-02_13h06.17.553,empathy_intonation_perc,2024.1.4,None,2024-06-02 13h06.24.538503 +0200,
,,0,sacapuntas,1,REAL,FALSA,,,,,,,,,0,5,5,5,,,,,21.866479791002348,,,,21.84847462500329,22.449078000005102,0,0,0.09302191698225215,None,22.44933599999058,23.44870050001191,,,,,,,,,kp_pilot,001,2024-06-02_13h06.17.553,empathy_intonation_perc,2024.1.4,None,2024-06-02 13h06.24.538503 +0200,
,,0,priba,0,REAL,FALSA,,,,,,,,,0,6,6,6,,,,,23.464391707995674,,,,23.448987957992358,23.965410833014175,1,0,1.418220666993875,None,23.965715416008607,24.965480207989458,,,,,,,,,kp_pilot,001,2024-06-02_13h06.17.553,empathy_intonation_perc,2024.1.4,None,2024-06-02 13h06.24.538503 +0200,
,,0,pelasula,0,REAL,FALSA,,,,,,,,,0,7,7,7,,,,,24.98197679099394,,,,24.965792583010625,25.466435415990418,0,1,1.3979075419774745,None,25.466794665990165,26.465150875010295,,,,,,,,,kp_pilot,001,2024-06-02_13h06.17.553,empathy_intonation_perc,2024.1.4,None,2024-06-02 13h06.24.538503 +0200,
,,0,bien,1,REAL,FALSA,,,,,,,,,0,8,8,8,,,,,26.482241499994416,,,,26.465474291006103,26.982950125006028,0,0,0.006154624978080392,None,26.9832779999997,27.983034915989265,,,,,,,,,kp_pilot,001,2024-06-02_13h06.17.553,empathy_intonation_perc,2024.1.4,None,2024-06-02 13h06.24.538503 +0200,
,,0,casa,1,REAL,FALSA,,,,,,,,,0,9,9,9,,,,,27.99908283300465,,,,27.98334325000178,28.481880500010448,1,1,1.2843603339861147,None,28.482150249998085,29.48251391600934,,,,,,,,,kp_pilot,001,2024-06-02_13h06.17.553,empathy_intonation_perc,2024.1.4,None,2024-06-02 13h06.24.538503 +0200,
,,0,lejo,0,REAL,FALSA,,,,,,,,,0,10,10,10,,,,,29.49926745801349,,,,29.482856332993833,29.98191004100954,1,0,1.433783874992514,None,29.982178041012958,30.982425124995643,,,,,,,,,kp_pilot,001,2024-06-02_13h06.17.553,empathy_intonation_perc,2024.1.4,None,2024-06-02 13h06.24.538503 +0200,
,,0,pretantas,0,REAL,FALSA,,,,,,,,,0,11,11,11,,,,,30.998755999986315,,,,30.982725125009893,31.498733790998813,0,1,1.3968942079809494,None,31.499045333010145,32.499273708002875,,,,,,,,,kp_pilot,001,2024-06-02_13h06.17.553,empathy_intonation_perc,2024.1.4,None,2024-06-02 13h06.24.538503 +0200,
,,,,,,,,,,,,,,,,,,,,,,,,,,,,,,,,,,,32.499334916006774,33.18317908298923,,,,,,,kp_pilot,001,2024-06-02_13h06.17.553,empathy_intonation_perc,2024.1.4,None,2024-06-02 13h06.24.538503 +0200,
,,60,debada,,,,pseudoword,0,REAL,FALSA,,,,,,,,,0,0,0,59,33.2068999579933,,,,,,,,,,,,,,33.19701883298694,34.51601766599924,0,1,0.8228529169864487,None,kp_pilot,001,2024-06-02_13h06.17.553,empathy_intonation_perc,2024.1.4,None,2024-06-02 13h06.24.538503 +0200,
,,40,cuento,,,,non_cognate,1,REAL,FALSA,,,,,,,,,0,1,1,39,34.53236066599493,,,,,,,,,,,,,,34.51669466600288,35.75019550000434,1,0,0.7337800839741249,None,kp_pilot,001,2024-06-02_13h06.17.553,empathy_intonation_perc,2024.1.4,None,2024-06-02 13h06.24.538503 +0200,
,,61,trip,,,,pseudoword,0,REAL,FALSA,,,,,,,,,0,2,2,60,35.76459095798782,,,,,,,,,,,,,,35.75060233299155,37.64958020800259,0,1,1.3707753749913536,None,kp_pilot,001,2024-06-02_13h06.17.553,empathy_intonation_perc,2024.1.4,None,2024-06-02 13h06.24.538503 +0200,
,,57,calto,,,,pseudoword,0,REAL,FALSA,,,,,,,,,0,3,3,56,37.66524012500304,,,,,,,,,,,,,,37.64999891599291,40.29968483300763,1,0,2.1260579579975456,None,kp_pilot,001,2024-06-02_13h06.17.553,empathy_intonation_perc,2024.1.4,None,2024-06-02 13h06.24.538503 +0200,
,,48,taza,,,,non_cognate,1,REAL,FALSA,,,,,,,,,0,4,4,47,40.316001416009385,,,,,,,,,,,,,,40.300084874994354,42.300442583014956,1,0,1.4740140000067186,None,kp_pilot,001,2024-06-02_13h06.17.553,empathy_intonation_perc,2024.1.4,None,2024-06-02 13h06.24.538503 +0200,
,,63,aljizo,,,,pseudoword,0,REAL,FALSA,,,,,,,,,0,5,5,62,42.314839791011764,,,,,,,,,,,,,,42.30087295800331,43.78347837500041,0,1,0.9831490419746842,None,kp_pilot,001,2024-06-02_13h06.17.553,empathy_intonation_perc,2024.1.4,None,2024-06-02 13h06.24.538503 +0200,
,,17,enigma,,,,two_way_cognate,1,REAL,FALSA,,,,,,,,,0,6,6,16,43.79875341599109,,,,,,,,,,,,,,43.78388554099365,45.28329404100077,0,1,0.9785565420170315,None,kp_pilot,001,2024-06-02_13h06.17.553,empathy_intonation_perc,2024.1.4,None,2024-06-02 13h06.24.538503 +0200,
,,1,torso,,,,three_way_cognate,1,REAL,FALSA,,,,,,,,,0,7,7,0,45.29887900000904,,,,,,,,,,,,,,45.28366108299815,46.616759833006654,1,0,0.8323203749896493,None,kp_pilot,001,2024-06-02_13h06.17.553,empathy_intonation_perc,2024.1.4,None,2024-06-02 13h06.24.538503 +0200,
,,49,diebro,,,,pseudoword,0,REAL,FALSA,,,,,,,,,0,8,8,48,46.63230054100859,,,,,,,,,,,,,,46.61712508299388,48.05047650000779,0,1,0.9262893330014776,None,kp_pilot,001,2024-06-02_13h06.17.553,empathy_intonation_perc,2024.1.4,None,2024-06-02 13h06.24.538503 +0200,
,,89,barezo,,,,pseudoword,0,REAL,FALSA,,,,,,,,,0,9,9,88,48.06593379098922,,,,,,,,,,,,,,48.05083216598723,49.534969750005985,0,1,0.9671320829947945,None,kp_pilot,001,2024-06-02_13h06.17.553,empathy_intonation_perc,2024.1.4,None,2024-06-02 13h06.24.538503 +0200,
,,62,sujo,,,,pseudoword,0,REAL,FALSA,,,,,,,,,0,10,10,61,49.549035875010304,,,,,,,,,,,,,,49.53535895800451,51.50096754101105,0,1,1.441643334022956,None,kp_pilot,001,2024-06-02_13h06.17.553,empathy_intonation_perc,2024.1.4,None,2024-06-02 13h06.24.538503 +0200,
,,53,samón,,,,pseudoword,0,REAL,FALSA,,,,,,,,,0,11,11,52,51.516647290991386,,,,,,,,,,,,,,51.50136045800173,53.06637766599306,0,1,1.033322750008665,None,kp_pilot,001,2024-06-02_13h06.17.553,empathy_intonation_perc,2024.1.4,None,2024-06-02 13h06.24.538503 +0200,
,,76,orida,,,,pseudoword,0,REAL,FALSA,,,,,,,,,0,12,12,75,53.08250412499183,,,,,,,,,,,,,,53.066757249995135,54.31670758299879,0,1,0.7401293330185581,None,kp_pilot,001,2024-06-02_13h06.17.553,empathy_intonation_perc,2024.1.4,None,2024-06-02 13h06.24.538503 +0200,
,,44,llamar,,,,non_cognate,1,REAL,FALSA,,,,,,,,,0,13,13,43,54.33322129098815,,,,,,,,,,,,,,54.3171458329889,55.56753254099749,1,0,0.7245849589817226,None,kp_pilot,001,2024-06-02_13h06.17.553,empathy_intonation_perc,2024.1.4,None,2024-06-02 13h06.24.538503 +0200,
,,68,hurmo,,,,pseudoword,0,REAL,FALSA,,,,,,,,,0,14,14,67,55.582718916004524,,,,,,,,,,,,,,55.56793212500634,57.03469233299256,0,1,0.9489477910101414,None,kp_pilot,001,2024-06-02_13h06.17.553,empathy_intonation_perc,2024.1.4,None,2024-06-02 13h06.24.538503 +0200,
,,2,clan,,,,three_way_cognate,1,REAL,FALSA,,,,,,,,,0,15,15,1,57.0505904580059,,,,,,,,,,,,,,57.03508487500949,58.63423608298763,1,0,1.0676052499911748,None,kp_pilot,001,2024-06-02_13h06.17.553,empathy_intonation_perc,2024.1.4,None,2024-06-02 13h06.24.538503 +0200,
,,5,fauna,,,,three_way_cognate,1,REAL,FALSA,,,,,,,,,0,16,16,4,58.649488583003404,,,,,,,,,,,,,,58.63463074999163,61.3509455829917,1,0,2.2139918750035577,None,kp_pilot,001,2024-06-02_13h06.17.553,empathy_intonation_perc,2024.1.4,None,2024-06-02 13h06.24.538503 +0200,
,,14,clamor,,,,two_way_cognate,1,REAL,FALSA,,,,,,,,,0,17,17,13,61.36782983300509,,,,,,,,,,,,,,61.351333750004414,63.21709491600632,0,1,1.3618829580082092,None,kp_pilot,001,2024-06-02_13h06.17.553,empathy_intonation_perc,2024.1.4,None,2024-06-02 13h06.24.538503 +0200,
,,15,actor,,,,two_way_cognate,1,REAL,FALSA,,,,,,,,,0,18,18,14,63.23325754099642,,,,,,,,,,,,,,63.21748870800366,64.50105150000309,1,0,0.759652874985477,None,kp_pilot,001,2024-06-02_13h06.17.553,empathy_intonation_perc,2024.1.4,None,2024-06-02 13h06.24.538503 +0200,
,,90,duyo,,,,pseudoword,0,REAL,FALSA,,,,,,,,,0,19,19,89,64.51588395799627,,,,,,,,,,,,,,64.50143991599907,65.90092791599454,0,1,0.8946627500117756,None,kp_pilot,001,2024-06-02_13h06.17.553,empathy_intonation_perc,2024.1.4,None,2024-06-02 13h06.24.538503 +0200,
,,52,coriar,,,,pseudoword,0,REAL,FALSA,,,,,,,,,0,20,20,51,65.91620954099926,,,,,,,,,,,,,,65.9013879999984,67.55137095801183,0,1,1.1206051250046585,None,kp_pilot,001,2024-06-02_13h06.17.553,empathy_intonation_perc,2024.1.4,None,2024-06-02 13h06.24.538503 +0200,
,,83,monsos,,,,pseudoword,0,REAL,FALSA,,,,,,,,,0,21,21,82,67.5671511660039,,,,,,,,,,,,,,67.55177133300458,69.08535383301205,0,1,1.0114778749994002,None,kp_pilot,001,2024-06-02_13h06.17.553,empathy_intonation_perc,2024.1.4,None,2024-06-02 13h06.24.538503 +0200,
,,42,premio,,,,non_cognate,1,REAL,FALSA,,,,,,,,,0,22,22,41,69.1009380829928,,,,,,,,,,,,,,69.08574983300059,70.56863299998804,1,0,0.959788790991297,None,kp_pilot,001,2024-06-02_13h06.17.553,empathy_intonation_perc,2024.1.4,None,2024-06-02 13h06.24.538503 +0200,
,,86,abamos,,,,pseudoword,0,REAL,FALSA,,,,,,,,,0,23,23,85,70.58353004101082,,,,,,,,,,,,,,70.56908845799626,72.1188961250009,0,1,1.0311112920171581,None,kp_pilot,001,2024-06-02_13h06.17.553,empathy_intonation_perc,2024.1.4,None,2024-06-02 13h06.24.538503 +0200,
,,25,exigir,,,,non_cognate,1,REAL,FALSA,,,,,,,,,0,24,24,24,72.13314229098614,,,,,,,,,,,,,,72.11930683298851,73.76795204100199,1,0,1.1242718749854248,None,kp_pilot,001,2024-06-02_13h06.17.553,empathy_intonation_perc,2024.1.4,None,2024-06-02 13h06.24.538503 +0200,
,,11,sauna,,,,three_way_cognate,1,REAL,FALSA,,,,,,,,,0,25,25,10,73.78411204100121,,,,,,,,,,,,,,73.76839058299083,75.1840474579949,1,0,0.9063639589876402,None,kp_pilot,001,2024-06-02_13h06.17.553,empathy_intonation_perc,2024.1.4,None,2024-06-02 13h06.24.538503 +0200,
,,80,suelet,,,,pseudoword,0,REAL,FALSA,,,,,,,,,0,26,26,79,75.20035345799988,,,,,,,,,,,,,,75.18448604099103,76.41773695801385,0,1,0.7230885839962866,None,kp_pilot,001,2024-06-02_13h06.17.553,empathy_intonation_perc,2024.1.4,None,2024-06-02 13h06.24.538503 +0200,
,,88,hento,,,,pseudoword,0,REAL,FALSA,,,,,,,,,0,27,27,87,76.43399533300544,,,,,,,,,,,,,,76.41810095799156,78.05216679099249,0,1,1.1226927080133464,None,kp_pilot,001,2024-06-02_13h06.17.553,empathy_intonation_perc,2024.1.4,None,2024-06-02 13h06.24.538503 +0200,
,,30,llamar,,,,non_cognate,1,REAL,FALSA,,,,,,,,,0,28,28,29,78.06847724999534,,,,,,,,,,,,,,78.0526086250029,79.2518563749909,1,0,0.6848953750159126,None,kp_pilot,001,2024-06-02_13h06.17.553,empathy_intonation_perc,2024.1.4,None,2024-06-02 13h06.24.538503 +0200,
,,41,salto,,,,non_cognate,1,REAL,FALSA,,,,,,,,,0,29,29,40,79.26729720798903,,,,,,,,,,,,,,79.25227225001436,81.0850187909964,1,0,1.3122397089900915,None,kp_pilot,001,2024-06-02_13h06.17.553,empathy_intonation_perc,2024.1.4,None,2024-06-02 13h06.24.538503 +0200,
,,39,pista,,,,non_cognate,1,REAL,FALSA,,,,,,,,,0,30,30,38,81.10128391601029,,,,,,,,,,,,,,81.08541270799469,82.53524283299339,1,0,0.9348670420004055,None,kp_pilot,001,2024-06-02_13h06.17.553,empathy_intonation_perc,2024.1.4,None,2024-06-02 13h06.24.538503 +0200,
,,91,chote,,,,pseudoword,0,REAL,FALSA,,,,,,,,,0,31,31,90,82.55072450000443,,,,,,,,,,,,,,82.53563208298874,83.85135066599469,0,1,0.8093326250091195,None,kp_pilot,001,2024-06-02_13h06.17.553,empathy_intonation_perc,2024.1.4,None,2024-06-02 13h06.24.538503 +0200,
,,71,rande,,,,pseudoword,0,REAL,FALSA,,,,,,,,,0,32,32,70,83.86715483298758,,,,,,,,,,,,,,83.85174954100512,85.25118145800661,0,1,0.8934189159772359,None,kp_pilot,001,2024-06-02_13h06.17.553,empathy_intonation_perc,2024.1.4,None,2024-06-02 13h06.24.538503 +0200,
,,94,bomos,,,,pseudoword,0,REAL,FALSA,,,,,,,,,0,33,33,93,85.26736054100911,,,,,,,,,,,,,,85.25158229100634,86.78583229100332,0,1,1.0182342079933733,None,kp_pilot,001,2024-06-02_13h06.17.553,empathy_intonation_perc,2024.1.4,None,2024-06-02 13h06.24.538503 +0200,
,,37,delito,,,,non_cognate,1,REAL,FALSA,,,,,,,,,0,34,34,36,86.80020749999676,,,,,,,,,,,,,,86.78624195800512,88.53534745800425,0,1,1.2216746250051074,None,kp_pilot,001,2024-06-02_13h06.17.553,empathy_intonation_perc,2024.1.4,None,2024-06-02 13h06.24.538503 +0200,
,,19,pelvis,,,,two_way_cognate,1,REAL,FALSA,,,,,,,,,0,35,35,18,88.55086625000695,,,,,,,,,,,,,,88.53570945799584,90.00168750001467,1,0,0.9509244170039892,None,kp_pilot,001,2024-06-02_13h06.17.553,empathy_intonation_perc,2024.1.4,None,2024-06-02 13h06.24.538503 +0200,
,,18,honor,,,,two_way_cognate,1,REAL,FALSA,,,,,,,,,0,36,36,17,90.0176374159928,,,,,,,,,,,,,,90.00208179099718,91.45257495800615,1,0,0.9445018749975134,None,kp_pilot,001,2024-06-02_13h06.17.553,empathy_intonation_perc,2024.1.4,None,2024-06-02 13h06.24.538503 +0200,
,,70,hunten,,,,pseudoword,0,REAL,FALSA,,,,,,,,,0,37,37,69,91.46823224998661,,,,,,,,,,,,,,91.45296354099992,92.76936737500364,0,1,0.81698899998446,None,kp_pilot,001,2024-06-02_13h06.17.553,empathy_intonation_perc,2024.1.4,None,2024-06-02 13h06.24.538503 +0200,
,,46,cumbre,,,,non_cognate,1,REAL,FALSA,,,,,,,,,0,38,38,45,92.78465179100749,,,,,,,,,,,,,,92.76974979101215,94.66791983300936,0,1,1.3879256669897586,None,kp_pilot,001,2024-06-02_13h06.17.553,empathy_intonation_perc,2024.1.4,None,2024-06-02 13h06.24.538503 +0200,
,,73,meolar,,,,pseudoword,0,REAL,FALSA,,,,,,,,,0,39,39,72,94.68471841601422,,,,,,,,,,,,,,94.66829775000224,95.90262254100526,0,1,0.7326024170033634,None,kp_pilot,001,2024-06-02_13h06.17.553,empathy_intonation_perc,2024.1.4,None,2024-06-02 13h06.24.538503 +0200,
,,45,viga,,,,non_cognate,1,REAL,FALSA,,,,,,,,,0,40,40,44,95.91839445801452,,,,,,,,,,,,,,95.90301933299634,97.28628437500447,0,1,0.8827351660002023,None,kp_pilot,001,2024-06-02_13h06.17.553,empathy_intonation_perc,2024.1.4,None,2024-06-02 13h06.24.538503 +0200,
,,72,diguán,,,,pseudoword,0,REAL,FALSA,,,,,,,,,0,41,41,71,97.30186491599306,,,,,,,,,,,,,,97.28669908299344,98.60238075000234,0,1,0.7844723339949269,None,kp_pilot,001,2024-06-02_13h06.17.553,empathy_intonation_perc,2024.1.4,None,2024-06-02 13h06.24.538503 +0200,
,,47,alivio,,,,non_cognate,1,REAL,FALSA,,,,,,,,,0,42,42,46,98.61755925000762,,,,,,,,,,,,,,98.60276675000205,101.11976783300634,1,0,2.0168048340128735,None,kp_pilot,001,2024-06-02_13h06.17.553,empathy_intonation_perc,2024.1.4,None,2024-06-02 13h06.24.538503 +0200,
,,95,aclaya,,,,pseudoword,0,REAL,FALSA,,,,,,,,,0,43,43,94,101.13490437500877,,,,,,,,,,,,,,101.12019741599215,102.51871120798751,0,1,0.873418583010789,None,kp_pilot,001,2024-06-02_13h06.17.553,empathy_intonation_perc,2024.1.4,None,2024-06-02 13h06.24.538503 +0200,
,,67,huzas,,,,pseudoword,0,REAL,FALSA,,,,,,,,,0,44,44,66,102.5344082909869,,,,,,,,,,,,,,102.51909216601052,104.08678183300071,0,1,1.0555482089985162,None,kp_pilot,001,2024-06-02_13h06.17.553,empathy_intonation_perc,2024.1.4,None,2024-06-02 13h06.24.538503 +0200,
,,82,alla,,,,pseudoword,0,REAL,FALSA,,,,,,,,,0,45,45,81,104.10145558300428,,,,,,,,,,,,,,104.08716358299716,105.73524354101392,1,0,1.1381904169975314,None,kp_pilot,001,2024-06-02_13h06.17.553,empathy_intonation_perc,2024.1.4,None,2024-06-02 13h06.24.538503 +0200,
,,10,tango,,,,three_way_cognate,1,REAL,FALSA,,,,,,,,,0,46,46,9,105.7513009159884,,,,,,,,,,,,,,105.73564512500889,107.15345174999675,1,0,0.9035778749966994,None,kp_pilot,001,2024-06-02_13h06.17.553,empathy_intonation_perc,2024.1.4,None,2024-06-02 13h06.24.538503 +0200,
,,32,caro,,,,non_cognate,1,REAL,FALSA,,,,,,,,,0,47,47,31,107.16984504100401,,,,,,,,,,,,,,107.15385766600957,108.66989712498616,1,0,1.0134462089918088,None,kp_pilot,001,2024-06-02_13h06.17.553,empathy_intonation_perc,2024.1.4,None,2024-06-02 13h06.24.538503 +0200,
,,64,altimo,,,,pseudoword,0,REAL,FALSA,,,,,,,,,0,48,48,63,108.68560537500889,,,,,,,,,,,,,,108.67028529100935,110.036795041,0,1,0.8530520420172252,None,kp_pilot,001,2024-06-02_13h06.17.553,empathy_intonation_perc,2024.1.4,None,2024-06-02 13h06.24.538503 +0200,
,,84,jomas,,,,pseudoword,0,REAL,FALSA,,,,,,,,,0,49,49,83,110.05150662499364,,,,,,,,,,,,,,110.03720341599546,111.50347358299769,0,1,0.9494059580028988,None,kp_pilot,001,2024-06-02_13h06.17.553,empathy_intonation_perc,2024.1.4,None,2024-06-02 13h06.24.538503 +0200,
,,75,babrá,,,,pseudoword,0,REAL,FALSA,,,,,,,,,0,50,50,74,111.5184749159962,,,,,,,,,,,,,,111.5038736659917,112.96991820799303,0,1,0.9387973330158275,None,kp_pilot,001,2024-06-02_13h06.17.553,empathy_intonation_perc,2024.1.4,None,2024-06-02 13h06.24.538503 +0200,
,,51,tandir,,,,pseudoword,0,REAL,FALSA,,,,,,,,,0,51,51,50,112.98502887500217,,,,,,,,,,,,,,112.97032258298714,114.2868276659865,0,1,0.804971666977508,None,kp_pilot,001,2024-06-02_13h06.17.553,empathy_intonation_perc,2024.1.4,None,2024-06-02 13h06.24.538503 +0200,
,,56,qucrá,,,,pseudoword,0,REAL,FALSA,,,,,,,,,0,52,52,55,114.30191979100346,,,,,,,,,,,,,,114.28722262498923,115.85237358300947,0,1,1.0401324999984354,None,kp_pilot,001,2024-06-02_13h06.17.553,empathy_intonation_perc,2024.1.4,None,2024-06-02 13h06.24.538503 +0200,
,,81,rombar,,,,pseudoword,0,REAL,FALSA,,,,,,,,,0,53,53,80,115.86892766598612,,,,,,,,,,,,,,115.85277724999469,117.32132737498614,0,1,0.9533642499882262,None,kp_pilot,001,2024-06-02_13h06.17.553,empathy_intonation_perc,2024.1.4,None,2024-06-02 13h06.24.538503 +0200,
,,12,bar,,,,three_way_cognate,1,REAL,FALSA,,,,,,,,,0,54,54,11,117.33566124999197,,,,,,,,,,,,,,117.32172066599014,118.670661207987,1,0,0.8220321249973495,None,kp_pilot,001,2024-06-02_13h06.17.553,empathy_intonation_perc,2024.1.4,None,2024-06-02 13h06.24.538503 +0200,
,,20,total,,,,two_way_cognate,1,REAL,FALSA,,,,,,,,,0,55,55,19,118.68564579100348,,,,,,,,,,,,,,118.6710285829904,120.05333866600995,1,0,0.8666093339852523,None,kp_pilot,001,2024-06-02_13h06.17.553,empathy_intonation_perc,2024.1.4,None,2024-06-02 13h06.24.538503 +0200,
,,29,cesta,,,,non_cognate,1,REAL,FALSA,,,,,,,,,0,56,56,28,120.06916704098694,,,,,,,,,,,,,,120.0537412079866,121.63623324999935,0,1,1.0738412080099806,None,kp_pilot,001,2024-06-02_13h06.17.553,empathy_intonation_perc,2024.1.4,None,2024-06-02 13h06.24.538503 +0200,
,,59,mandio,,,,pseudoword,0,REAL,FALSA,,,,,,,,,0,57,57,58,121.65327287500259,,,,,,,,,,,,,,121.63662820801255,122.87064662500052,0,1,0.7342544580169488,None,kp_pilot,001,2024-06-02_13h06.17.553,empathy_intonation_perc,2024.1.4,None,2024-06-02 13h06.24.538503 +0200,
,,33,latón,,,,non_cognate,1,REAL,FALSA,,,,,,,,,0,58,58,32,122.88584141599131,,,,,,,,,,,,,,122.87101112501114,124.1365262499894,0,1,0.749553541012574,None,kp_pilot,001,2024-06-02_13h06.17.553,empathy_intonation_perc,2024.1.4,None,2024-06-02 13h06.24.538503 +0200,
,,36,visión,,,,non_cognate,1,REAL,FALSA,,,,,,,,,0,59,59,35,124.15278008300811,,,,,,,,,,,,,,124.13693029098795,125.62156654099817,1,0,0.9830630830256268,None,kp_pilot,001,2024-06-02_13h06.17.553,empathy_intonation_perc,2024.1.4,None,2024-06-02 13h06.24.538503 +0200,
,,3,bingo,,,,three_way_cognate,1,REAL,FALSA,,,,,,,,,0,60,60,2,125.63528629101347,,,,,,,,,,,,,,125.62197974999435,127.27001041598851,0,1,1.1224792920111213,None,kp_pilot,001,2024-06-02_13h06.17.553,empathy_intonation_perc,2024.1.4,None,2024-06-02 13h06.24.538503 +0200,
,,16,animal,,,,two_way_cognate,1,REAL,FALSA,,,,,,,,,0,61,61,15,127.28647616598755,,,,,,,,,,,,,,127.27042474999325,129.10429204101092,1,0,1.3166482919768896,None,kp_pilot,001,2024-06-02_13h06.17.553,empathy_intonation_perc,2024.1.4,None,2024-06-02 13h06.24.538503 +0200,
,,78,llzan,,,,pseudoword,0,REAL,FALSA,,,,,,,,,0,62,62,77,129.11965633300133,,,,,,,,,,,,,,129.104656874988,130.67037308300496,0,1,1.0382691659906413,None,kp_pilot,001,2024-06-02_13h06.17.553,empathy_intonation_perc,2024.1.4,None,2024-06-02 13h06.24.538503 +0200,
,,35,pájaro,,,,non_cognate,1,REAL,FALSA,,,,,,,,,0,63,63,34,130.6863815409888,,,,,,,,,,,,,,130.67077358299866,132.9877412909991,1,0,1.805496500019217,None,kp_pilot,001,2024-06-02_13h06.17.553,empathy_intonation_perc,2024.1.4,None,2024-06-02 13h06.24.538503 +0200,
,,27,pelado,,,,non_cognate,1,REAL,FALSA,,,,,,,,,0,64,64,26,133.0028271249903,,,,,,,,,,,,,,132.9881400410086,134.471903416008,0,1,0.9836179580015596,None,kp_pilot,001,2024-06-02_13h06.17.553,empathy_intonation_perc,2024.1.4,None,2024-06-02 13h06.24.538503 +0200,
,,43,huella,,,,non_cognate,1,REAL,FALSA,,,,,,,,,0,65,65,42,134.48672045799321,,,,,,,,,,,,,,134.47225975000765,135.83661258299253,0,1,0.8468929159862455,None,kp_pilot,001,2024-06-02_13h06.17.553,empathy_intonation_perc,2024.1.4,None,2024-06-02 13h06.24.538503 +0200,
,,24,civil,,,,two_way_cognate,1,REAL,FALSA,,,,,,,,,0,66,66,23,135.8534752500127,,,,,,,,,,,,,,135.83701870799996,136.98819287499646,1,0,0.6491352499870118,None,kp_pilot,001,2024-06-02_13h06.17.553,empathy_intonation_perc,2024.1.4,None,2024-06-02 13h06.24.538503 +0200,
,,65,edidé,,,,pseudoword,0,REAL,FALSA,,,,,,,,,0,67,67,64,137.0035404159862,,,,,,,,,,,,,,136.98858762500458,138.07003249999252,0,1,0.5669694999814965,None,kp_pilot,001,2024-06-02_13h06.17.553,empathy_intonation_perc,2024.1.4,None,2024-06-02 13h06.24.538503 +0200,
,,34,sermón,,,,non_cognate,1,REAL,FALSA,,,,,,,,,0,68,68,33,138.08656479101046,,,,,,,,,,,,,,138.07041058299365,140.03808299999218,1,0,1.4604914580122568,None,kp_pilot,001,2024-06-02_13h06.17.553,empathy_intonation_perc,2024.1.4,None,2024-06-02 13h06.24.538503 +0200,
,,96,brigan,,,,pseudoword,0,REAL,FALSA,,,,,,,,,0,69,69,95,140.05303170799743,,,,,,,,,,,,,,140.03843658301048,141.42026333301328,0,1,0.8621259999927133,None,kp_pilot,001,2024-06-02_13h06.17.553,empathy_intonation_perc,2024.1.4,None,2024-06-02 13h06.24.538503 +0200,
,,31,campo,,,,non_cognate,1,REAL,FALSA,,,,,,,,,0,70,70,30,141.43647616601083,,,,,,,,,,,,,,141.4206547079957,143.00413304098765,1,0,1.0681586670107208,None,kp_pilot,001,2024-06-02_13h06.17.553,empathy_intonation_perc,2024.1.4,None,2024-06-02 13h06.24.538503 +0200,
,,28,debido,,,,non_cognate,1,REAL,FALSA,,,,,,,,,0,71,71,27,143.01984137500403,,,,,,,,,,,,,,143.00449749999098,145.90734137498657,1,0,2.393495208991226,None,kp_pilot,001,2024-06-02_13h06.17.553,empathy_intonation_perc,2024.1.4,None,2024-06-02 13h06.24.538503 +0200,
,,87,racaer,,,,pseudoword,0,REAL,FALSA,,,,,,,,,0,72,72,86,145.92108620799263,,,,,,,,,,,,,,145.90772129100515,147.0894977079879,0,1,0.6667054170102347,None,kp_pilot,001,2024-06-02_13h06.17.553,empathy_intonation_perc,2024.1.4,None,2024-06-02 13h06.24.538503 +0200,
,,55,ropis,,,,pseudoword,0,REAL,FALSA,,,,,,,,,0,73,73,54,147.10378924998804,,,,,,,,,,,,,,147.08986075001303,148.55493687500712,0,1,0.9393694580066949,None,kp_pilot,001,2024-06-02_13h06.17.553,empathy_intonation_perc,2024.1.4,None,2024-06-02 13h06.24.538503 +0200,
,,93,caemal,,,,pseudoword,0,REAL,FALSA,,,,,,,,,0,74,74,92,148.57032183298725,,,,,,,,,,,,,,148.55529854100314,150.27118562499527,0,1,1.1961642920214217,None,kp_pilot,001,2024-06-02_13h06.17.553,empathy_intonation_perc,2024.1.4,None,2024-06-02 13h06.24.538503 +0200,
,,58,abunal,,,,pseudoword,0,REAL,FALSA,,,,,,,,,0,75,75,57,150.28795745800016,,,,,,,,,,,,,,150.2715763330052,151.62242841601255,0,1,0.849436374992365,None,kp_pilot,001,2024-06-02_13h06.17.553,empathy_intonation_perc,2024.1.4,None,2024-06-02 13h06.24.538503 +0200,
,,77,toges,,,,pseudoword,0,REAL,FALSA,,,,,,,,,0,76,76,76,151.6371756659937,,,,,,,,,,,,,,151.62282941601006,153.18863004099694,0,1,1.0528704169846606,None,kp_pilot,001,2024-06-02_13h06.17.553,empathy_intonation_perc,2024.1.4,None,2024-06-02 13h06.24.538503 +0200,
,,69,vemua,,,,pseudoword,0,REAL,FALSA,,,,,,,,,0,77,77,68,153.20420370801003,,,,,,,,,,,,,,153.18901312499656,154.4391818330041,0,1,0.7358691670233384,None,kp_pilot,001,2024-06-02_13h06.17.553,empathy_intonation_perc,2024.1.4,None,2024-06-02 13h06.24.538503 +0200,
,,66,clazas,,,,pseudoword,0,REAL,FALSA,,,,,,,,,0,78,78,65,154.45360258300207,,,,,,,,,,,,,,154.4395788749971,155.97314854100114,0,1,1.0058203330263495,None,kp_pilot,001,2024-06-02_13h06.17.553,empathy_intonation_perc,2024.1.4,None,2024-06-02 13h06.24.538503 +0200,
,,50,suaja,,,,pseudoword,0,REAL,FALSA,,,,,,,,,0,79,79,49,155.98730204100139,,,,,,,,,,,,,,155.97353404099704,157.28805537501466,0,1,0.7960682499979157,None,kp_pilot,001,2024-06-02_13h06.17.553,empathy_intonation_perc,2024.1.4,None,2024-06-02 13h06.24.538503 +0200,
,,85,tutaba,,,,pseudoword,0,REAL,FALSA,,,,,,,,,0,80,80,84,157.3045605829975,,,,,,,,,,,,,,157.28845008299686,158.55554487500922,0,1,0.7372744999884162,None,kp_pilot,001,2024-06-02_13h06.17.553,empathy_intonation_perc,2024.1.4,None,2024-06-02 13h06.24.538503 +0200,
,,13,aurora,,,,two_way_cognate,1,REAL,FALSA,,,,,,,,,0,81,81,12,158.57107008300954,,,,,,,,,,,,,,158.55595254100626,160.4557221250143,1,0,1.3680525840027258,None,kp_pilot,001,2024-06-02_13h06.17.553,empathy_intonation_perc,2024.1.4,None,2024-06-02 13h06.24.538503 +0200,
,,6,horror,,,,three_way_cognate,1,REAL,FALSA,,,,,,,,,0,82,82,5,160.47117412500666,,,,,,,,,,,,,,160.45609150000382,161.721496165992,1,0,0.7396183749951888,None,kp_pilot,001,2024-06-02_13h06.17.553,empathy_intonation_perc,2024.1.4,None,2024-06-02 13h06.24.538503 +0200,
,,22,pasta,,,,two_way_cognate,1,REAL,FALSA,,,,,,,,,0,83,83,21,161.73817229099222,,,,,,,,,,,,,,161.72188095800811,162.9053012910008,1,0,0.6533151250041556,None,kp_pilot,001,2024-06-02_13h06.17.553,empathy_intonation_perc,2024.1.4,None,2024-06-02 13h06.24.538503 +0200,
,,54,barbs,,,,pseudoword,0,REAL,FALSA,,,,,,,,,0,84,84,53,162.92117116600275,,,,,,,,,,,,,,162.90570495798602,164.0886202910042,0,1,0.6767079159908462,None,kp_pilot,001,2024-06-02_13h06.17.553,empathy_intonation_perc,2024.1.4,None,2024-06-02 13h06.24.538503 +0200,
,,7,retina,,,,three_way_cognate,1,REAL,FALSA,,,,,,,,,0,85,85,6,164.104756249988,,,,,,,,,,,,,,164.0890207909979,165.22177549998742,0,1,0.627781707997201,None,kp_pilot,001,2024-06-02_13h06.17.553,empathy_intonation_perc,2024.1.4,None,2024-06-02 13h06.24.538503 +0200,
,,79,filte,,,,pseudoword,0,REAL,FALSA,,,,,,,,,0,86,86,78,165.23956658301177,,,,,,,,,,,,,,165.22216720800498,166.4551855000027,0,1,0.7080825830053072,None,kp_pilot,001,2024-06-02_13h06.17.553,empathy_intonation_perc,2024.1.4,None,2024-06-02 13h06.24.538503 +0200,
,,9,limbo,,,,three_way_cognate,1,REAL,FALSA,,,,,,,,,0,87,87,8,166.47152004099917,,,,,,,,,,,,,,166.4555824160052,167.823746457987,0,1,0.8660859169904143,None,kp_pilot,001,2024-06-02_13h06.17.553,empathy_intonation_perc,2024.1.4,None,2024-06-02 13h06.24.538503 +0200,
,,23,editor,,,,two_way_cognate,1,REAL,FALSA,,,,,,,,,0,88,88,22,167.83765929099172,,,,,,,,,,,,,,167.8241488749918,169.05585262499517,1,0,0.7032201250258368,None,kp_pilot,001,2024-06-02_13h06.17.553,empathy_intonation_perc,2024.1.4,None,2024-06-02 13h06.24.538503 +0200,
,,26,hilo,,,,non_cognate,1,REAL,FALSA,,,,,,,,,0,89,89,25,169.07074112500413,,,,,,,,,,,,,,169.0562495829945,170.2720476250106,0,1,0.7146130420151167,None,kp_pilot,001,2024-06-02_13h06.17.553,empathy_intonation_perc,2024.1.4,None,2024-06-02 13h06.24.538503 +0200,
,,92,nasce,,,,pseudoword,0,REAL,FALSA,,,,,,,,,0,90,90,91,170.28863683299278,,,,,,,,,,,,,,170.272452041012,171.60638191600447,0,1,0.8276790000090841,None,kp_pilot,001,2024-06-02_13h06.17.553,empathy_intonation_perc,2024.1.4,None,2024-06-02 13h06.24.538503 +0200,
,,21,casual,,,,two_way_cognate,1,REAL,FALSA,,,,,,,,,0,91,91,20,171.62158912498853,,,,,,,,,,,,,,171.60677924999618,172.87324566600728,1,0,0.7590254170063417,None,kp_pilot,001,2024-06-02_13h06.17.553,empathy_intonation_perc,2024.1.4,None,2024-06-02 13h06.24.538503 +0200,
,,74,mibro,,,,pseudoword,0,REAL,FALSA,,,,,,,,,0,92,92,73,172.88859845799743,,,,,,,,,,,,,,172.8735970830021,174.03941983298864,0,1,0.6616987919842359,None,kp_pilot,001,2024-06-02_13h06.17.553,empathy_intonation_perc,2024.1.4,None,2024-06-02 13h06.24.538503 +0200,
,,38,trenza,,,,non_cognate,1,REAL,FALSA,,,,,,,,,0,93,93,37,174.0552551250148,,,,,,,,,,,,,,174.03981254101382,175.90572516599786,0,1,1.361303624988068,None,kp_pilot,001,2024-06-02_13h06.17.553,empathy_intonation_perc,2024.1.4,None,2024-06-02 13h06.24.538503 +0200,
,,4,chip,,,,three_way_cognate,1,REAL,FALSA,,,,,,,,,0,94,94,3,175.92219474999,,,,,,,,,,,,,,175.90614354101126,177.14006883298862,1,0,0.7126711669843644,None,kp_pilot,001,2024-06-02_13h06.17.553,empathy_intonation_perc,2024.1.4,None,2024-06-02 13h06.24.538503 +0200,
,,8,solar,,,,three_way_cognate,1,REAL,FALSA,,,,,,,,,0,95,95,7,177.1556967080105,,,,,,,,,,,,,,177.14046266599325,178.42346841600374,1,0,0.764580292016035,None,kp_pilot,001,2024-06-02_13h06.17.553,empathy_intonation_perc,2024.1.4,None,2024-06-02 13h06.24.538503 +0200,
