lextale_instructions.started,lextale_instructions.stopped,lextale_instructions_loop.thisRepN,lextale_instructions_loop.thisTrialN,lextale_instructions_loop.thisN,lextale_instructions_loop.thisIndex,lextale_instructions_loop.ran,instructions_text,continue_text,participant,session,date,expName,psychopyVersion,OS,frameRate,lextale_practice.started,lextale_practice.stopped,key_resp_lextale_practice.keys,key_resp_lextale_practice.corr,key_resp_lextale_practice.rt,key_resp_lextale_practice.duration,lextale_practice_feedback.started,lextale_practice_feedback.stopped,lextale_practice_trials.thisRepN,lextale_practice_trials.thisTrialN,lextale_practice_trials.thisN,lextale_practice_trials.thisIndex,lextale_practice_trials.ran,stim,word,correct_response,prac_button_real,prac_button_false,lextale_check.started,lextale_check.stopped,lextale_trial.started,lextale_trial.stopped,key_resp_lextale_trial.keys,key_resp_lextale_trial.corr,key_resp_lextale_trial.rt,key_resp_lextale_trial.duration,lextail_trials.thisRepN,lextail_trials.thisTrialN,lextail_trials.thisN,lextail_trials.thisIndex,lextail_trials.ran,type,correct_reponse,button_real,button_false
0.0027,11.1442,0,0,0,0,1,"Este es un test de vocabulario en español. 
  
  A continuación vas a ver 90 secuencias de letras que parecen 'españolas'.
  
  Solo algunas de ellas son palabras de verdad.",(presiona la barra espaciadora para continuar),Kristen,001,2024-06-07_08h49.26.393,empathy_intonation_perc,2024.1.4,Win32,59.88023952,,,,,,,,,,,,,,,,,,,,,,,,,,,,,,,,,,,
11.1446,13.1939,0,1,1,1,1,"Por favor, señala las palabras que tú conoces (aquellas que estás convencido que son palabras españolas, incluso aunque no seas capaz de dar el significado preciso).",(presiona la barra espaciadora para continuar),Kristen,001,2024-06-07_08h49.26.393,empathy_intonation_perc,2024.1.4,Win32,59.88023952,,,,,,,,,,,,,,,,,,,,,,,,,,,,,,,,,,,
13.194,14.8438,0,2,2,2,1,Pero cuidado: los errores se penalizan. Por eso no tiene sentido tratar de incrementar tu puntuación marcando como reales palabras que nunca has visto.,(presiona la barra espaciadora para continuar),Kristen,001,2024-06-07_08h49.26.393,empathy_intonation_perc,2024.1.4,Win32,59.88023952,,,,,,,,,,,,,,,,,,,,,,,,,,,,,,,,,,,
14.844,17.2773,0,3,3,3,1,"Presiona la tecla 1 si piensas que es una palabra real y la tecla 
  0 si piensas que es una palabra falsa. 
  
  Vamos a practicar un poco...",(presiona la barra espaciadora para continuar),Kristen,001,2024-06-07_08h49.26.393,empathy_intonation_perc,2024.1.4,Win32,59.88023952,,,,,,,,,,,,,,,,,,,,,,,,,,,,,,,,,,,
,,,,,,,,,Kristen,001,2024-06-07_08h49.26.393,empathy_intonation_perc,2024.1.4,Win32,59.88023952,17.2789,19.4607,1,0,1.6515,,19.4609,20.4606,0,0,0,0,1,0,depiste,0,REAL,FALSA,,,,,,,,,,,,,,,,,
,,,,,,,,,Kristen,001,2024-06-07_08h49.26.393,empathy_intonation_perc,2024.1.4,Win32,59.88023952,20.4608,24.8938,0,0,3.907,,24.8938,25.8938,0,1,1,1,1,0,sí,1,REAL,FALSA,,,,,,,,,,,,,,,,,
,,,,,,,,,Kristen,001,2024-06-07_08h49.26.393,empathy_intonation_perc,2024.1.4,Win32,59.88023952,25.894,28.8938,1,0,2.4651,,28.8938,29.8939,0,2,2,2,1,0,coné,0,REAL,FALSA,,,,,,,,,,,,,,,,,
,,,,,,,,,Kristen,001,2024-06-07_08h49.26.393,empathy_intonation_perc,2024.1.4,Win32,59.88023952,29.8941,30.8938,1,0,0.4735,,30.8938,31.8942,0,3,3,3,1,0,calpar,0,REAL,FALSA,,,,,,,,,,,,,,,,,
,,,,,,,,,Kristen,001,2024-06-07_08h49.26.393,empathy_intonation_perc,2024.1.4,Win32,59.88023952,31.8945,32.9939,0,1,0.5652,,32.9939,33.9938,0,4,4,4,1,0,joten,0,REAL,FALSA,,,,,,,,,,,,,,,,,
,,,,,,,,,Kristen,001,2024-06-07_08h49.26.393,empathy_intonation_perc,2024.1.4,Win32,59.88023952,33.9941,36.8771,1,1,2.3572,,36.8772,37.8775,0,5,5,5,1,0,sacapuntas,1,REAL,FALSA,,,,,,,,,,,,,,,,,
,,,,,,,,,Kristen,001,2024-06-07_08h49.26.393,empathy_intonation_perc,2024.1.4,Win32,59.88023952,37.878,39.9439,0,1,1.532,,39.944,40.9439,0,6,6,6,1,0,priba,0,REAL,FALSA,,,,,,,,,,,,,,,,,
,,,,,,,,,Kristen,001,2024-06-07_08h49.26.393,empathy_intonation_perc,2024.1.4,Win32,59.88023952,40.9442,42.5605,1,0,1.0874,,42.5606,43.5606,0,7,7,7,1,0,pelasula,0,REAL,FALSA,,,,,,,,,,,,,,,,,
,,,,,,,,,Kristen,001,2024-06-07_08h49.26.393,empathy_intonation_perc,2024.1.4,Win32,59.88023952,43.5608,45.5605,0,0,1.4705,,45.5605,46.5605,0,8,8,8,1,0,bien,1,REAL,FALSA,,,,,,,,,,,,,,,,,
,,,,,,,,,Kristen,001,2024-06-07_08h49.26.393,empathy_intonation_perc,2024.1.4,Win32,59.88023952,46.5608,48.0445,1,1,0.949,,48.0445,49.0438,0,9,9,9,1,0,casa,1,REAL,FALSA,,,,,,,,,,,,,,,,,
,,,,,,,,,Kristen,001,2024-06-07_08h49.26.393,empathy_intonation_perc,2024.1.4,Win32,59.88023952,49.0506,50.6771,0,1,1.0904,,50.6771,51.6772,0,10,10,10,1,0,lejo,0,REAL,FALSA,,,,,,,,,,,,,,,,,
,,,,,,,,,Kristen,001,2024-06-07_08h49.26.393,empathy_intonation_perc,2024.1.4,Win32,59.88023952,51.6774,53.4939,1,0,1.2896,,53.4939,54.4939,0,11,11,11,1,0,pretantas,0,REAL,FALSA,,,,,,,,,,,,,,,,,
,,,,,,,,,Kristen,001,2024-06-07_08h49.26.393,empathy_intonation_perc,2024.1.4,Win32,59.88023952,,,,,,,,,,,,,,,,,,,54.4942,55.8607,,,,,,,,,,,,,,,
,,,,,,,,,Kristen,001,2024-06-07_08h49.26.393,empathy_intonation_perc,2024.1.4,Win32,59.88023952,,,,,,,,,,,,,,36,viable,,,,,,55.8738,58.6607,0,1,2.275,,0,0,0,35,1,two_way_cognate,1,REAL,FALSA
,,,,,,,,,Kristen,001,2024-06-07_08h49.26.393,empathy_intonation_perc,2024.1.4,Win32,59.88023952,,,,,,,,,,,,,,121,rombar,,,,,,58.6609,60.594,1,0,1.3989,,0,1,1,120,1,pseudoword,0,REAL,FALSA
,,,,,,,,,Kristen,001,2024-06-07_08h49.26.393,empathy_intonation_perc,2024.1.4,Win32,59.88023952,,,,,,,,,,,,,,112,cituló,,,,,,60.5943,62.1606,1,0,1.0375,,0,2,2,111,1,pseudoword,0,REAL,FALSA
,,,,,,,,,Kristen,001,2024-06-07_08h49.26.393,empathy_intonation_perc,2024.1.4,Win32,59.88023952,,,,,,,,,,,,,,37,torso,,,,,,62.1608,63.1439,0,1,0.4546,,0,3,3,36,1,two_way_cognate,1,REAL,FALSA
,,,,,,,,,Kristen,001,2024-06-07_08h49.26.393,empathy_intonation_perc,2024.1.4,Win32,59.88023952,,,,,,,,,,,,,,67,llamar,,,,,,63.1441,64.7439,0,1,1.0652,,0,4,4,66,1,non_cognate,1,REAL,FALSA
,,,,,,,,,Kristen,001,2024-06-07_08h49.26.393,empathy_intonation_perc,2024.1.4,Win32,59.88023952,,,,,,,,,,,,,,38,halo,,,,,,64.7441,66.3771,0,1,1.1035,,0,5,5,37,1,two_way_cognate,1,REAL,FALSA
,,,,,,,,,Kristen,001,2024-06-07_08h49.26.393,empathy_intonation_perc,2024.1.4,Win32,59.88023952,,,,,,,,,,,,,,12,plan,,,,,,66.3774,67.3606,1,0,0.4483,,0,6,6,11,1,three_way_cognate,1,REAL,FALSA
,,,,,,,,,Kristen,001,2024-06-07_08h49.26.393,empathy_intonation_perc,2024.1.4,Win32,59.88023952,,,,,,,,,,,,,,72,rostro,,,,,,67.3609,68.9605,0,1,1.0654,,0,7,7,71,1,non_cognate,1,REAL,FALSA
,,,,,,,,,Kristen,001,2024-06-07_08h49.26.393,empathy_intonation_perc,2024.1.4,Win32,59.88023952,,,,,,,,,,,,,,127,vien,,,,,,68.9608,70.5606,0,1,1.0653,,0,8,8,126,1,pseudoword,0,REAL,FALSA
,,,,,,,,,Kristen,001,2024-06-07_08h49.26.393,empathy_intonation_perc,2024.1.4,Win32,59.88023952,,,,,,,,,,,,,,73,llevar,,,,,,70.5609,71.7273,0,1,0.6321,,0,9,9,72,1,non_cognate,1,REAL,FALSA
,,,,,,,,,Kristen,001,2024-06-07_08h49.26.393,empathy_intonation_perc,2024.1.4,Win32,59.88023952,,,,,,,,,,,,,,70,ánimo,,,,,,71.7275,73.0438,0,1,0.7844,,0,10,10,69,1,non_cognate,1,REAL,FALSA
,,,,,,,,,Kristen,001,2024-06-07_08h49.26.393,empathy_intonation_perc,2024.1.4,Win32,59.88023952,,,,,,,,,,,,,,109,hágino,,,,,,73.044,74.1606,0,1,0.5873,,0,11,11,108,1,pseudoword,0,REAL,FALSA
,,,,,,,,,Kristen,001,2024-06-07_08h49.26.393,empathy_intonation_perc,2024.1.4,Win32,59.88023952,,,,,,,,,,,,,,10,golf,,,,,,74.1608,75.4272,1,0,0.7352,,0,12,12,9,1,three_way_cognate,1,REAL,FALSA
,,,,,,,,,Kristen,001,2024-06-07_08h49.26.393,empathy_intonation_perc,2024.1.4,Win32,59.88023952,,,,,,,,,,,,,,47,color,,,,,,75.4274,76.4605,1,0,0.5011,,0,13,13,46,1,two_way_cognate,1,REAL,FALSA
,,,,,,,,,Kristen,001,2024-06-07_08h49.26.393,empathy_intonation_perc,2024.1.4,Win32,59.88023952,,,,,,,,,,,,,,44,editor,,,,,,76.4607,77.5606,1,0,0.5708,,0,14,14,43,1,two_way_cognate,1,REAL,FALSA
,,,,,,,,,Kristen,001,2024-06-07_08h49.26.393,empathy_intonation_perc,2024.1.4,Win32,59.88023952,,,,,,,,,,,,,,33,collar,,,,,,77.5609,78.7105,1,0,0.6228,,0,15,15,32,1,two_way_cognate,1,REAL,FALSA
,,,,,,,,,Kristen,001,2024-06-07_08h49.26.393,empathy_intonation_perc,2024.1.4,Win32,59.88023952,,,,,,,,,,,,,,92,flecha,,,,,,78.7107,79.8104,1,0,0.5667,,0,16,16,91,1,non_cognate,1,REAL,FALSA
,,,,,,,,,Kristen,001,2024-06-07_08h49.26.393,empathy_intonation_perc,2024.1.4,Win32,59.88023952,,,,,,,,,,,,,,31,civil,,,,,,79.8107,80.8439,1,0,0.5011,,0,17,17,30,1,two_way_cognate,1,REAL,FALSA
,,,,,,,,,Kristen,001,2024-06-07_08h49.26.393,empathy_intonation_perc,2024.1.4,Win32,59.88023952,,,,,,,,,,,,,,69,tiza,,,,,,80.8441,81.8106,1,0,0.4362,,0,18,18,68,1,non_cognate,1,REAL,FALSA
,,,,,,,,,Kristen,001,2024-06-07_08h49.26.393,empathy_intonation_perc,2024.1.4,Win32,59.88023952,,,,,,,,,,,,,,1,tumor,,,,,,81.8108,82.7273,1,0,0.3821,,0,19,19,0,1,three_way_cognate,1,REAL,FALSA
,,,,,,,,,Kristen,001,2024-06-07_08h49.26.393,empathy_intonation_perc,2024.1.4,Win32,59.88023952,,,,,,,,,,,,,,130,dubo,,,,,,82.7274,83.6105,1,0,0.349,,0,20,20,129,1,pseudoword,0,REAL,FALSA
,,,,,,,,,Kristen,001,2024-06-07_08h49.26.393,empathy_intonation_perc,2024.1.4,Win32,59.88023952,,,,,,,,,,,,,,42,rumor,,,,,,83.6108,84.5772,1,0,0.4369,,0,21,21,41,1,two_way_cognate,1,REAL,FALSA
,,,,,,,,,Kristen,001,2024-06-07_08h49.26.393,empathy_intonation_perc,2024.1.4,Win32,59.88023952,,,,,,,,,,,,,,6,albino,,,,,,84.5774,85.644,1,0,0.5345,,0,22,22,5,1,three_way_cognate,1,REAL,FALSA
,,,,,,,,,Kristen,001,2024-06-07_08h49.26.393,empathy_intonation_perc,2024.1.4,Win32,59.88023952,,,,,,,,,,,,,,59,feo,,,,,,85.6442,87.2939,0,1,1.1237,,0,23,23,58,1,non_cognate,1,REAL,FALSA
,,,,,,,,,Kristen,001,2024-06-07_08h49.26.393,empathy_intonation_perc,2024.1.4,Win32,59.88023952,,,,,,,,,,,,,,66,aleta,,,,,,87.2941,88.444,0,1,0.6152,,0,24,24,65,1,non_cognate,1,REAL,FALSA
,,,,,,,,,Kristen,001,2024-06-07_08h49.26.393,empathy_intonation_perc,2024.1.4,Win32,59.88023952,,,,,,,,,,,,,,79,suelo,,,,,,88.4442,89.4938,0,1,0.5237,,0,25,25,78,1,non_cognate,1,REAL,FALSA
,,,,,,,,,Kristen,001,2024-06-07_08h49.26.393,empathy_intonation_perc,2024.1.4,Win32,59.88023952,,,,,,,,,,,,,,129,suchas,,,,,,89.494,90.5272,0,1,0.5036,,0,26,26,128,1,pseudoword,0,REAL,FALSA
,,,,,,,,,Kristen,001,2024-06-07_08h49.26.393,empathy_intonation_perc,2024.1.4,Win32,59.88023952,,,,,,,,,,,,,,46,mortal,,,,,,90.5274,92.7605,1,0,1.7044,,0,27,27,45,1,two_way_cognate,1,REAL,FALSA
,,,,,,,,,Kristen,001,2024-06-07_08h49.26.393,empathy_intonation_perc,2024.1.4,Win32,59.88023952,,,,,,,,,,,,,,85,enorme,,,,,,92.7607,94.0771,0,1,0.7907,,0,28,28,84,1,non_cognate,1,REAL,FALSA
,,,,,,,,,Kristen,001,2024-06-07_08h49.26.393,empathy_intonation_perc,2024.1.4,Win32,59.88023952,,,,,,,,,,,,,,39,casual,,,,,,94.0774,95.4106,1,0,0.8022,,0,29,29,38,1,two_way_cognate,1,REAL,FALSA
,,,,,,,,,Kristen,001,2024-06-07_08h49.26.393,empathy_intonation_perc,2024.1.4,Win32,59.88023952,,,,,,,,,,,,,,132,nocó,,,,,,95.4108,96.4938,0,1,0.5499,,0,30,30,131,1,pseudoword,0,REAL,FALSA
,,,,,,,,,Kristen,001,2024-06-07_08h49.26.393,empathy_intonation_perc,2024.1.4,Win32,59.88023952,,,,,,,,,,,,,,2,disco,,,,,,96.4941,97.8275,1,0,0.8027,,0,31,31,1,1,three_way_cognate,1,REAL,FALSA
,,,,,,,,,Kristen,001,2024-06-07_08h49.26.393,empathy_intonation_perc,2024.1.4,Win32,59.88023952,,,,,,,,,,,,,,83,hálito,,,,,,97.8278,98.9272,0,1,0.5652,,0,32,32,82,1,non_cognate,1,REAL,FALSA
,,,,,,,,,Kristen,001,2024-06-07_08h49.26.393,empathy_intonation_perc,2024.1.4,Win32,59.88023952,,,,,,,,,,,,,,138,glural,,,,,,98.9274,100.5105,0,1,1.0487,,0,33,33,137,1,pseudoword,0,REAL,FALSA
,,,,,,,,,Kristen,001,2024-06-07_08h49.26.393,empathy_intonation_perc,2024.1.4,Win32,59.88023952,,,,,,,,,,,,,,107,plamos,,,,,,100.5108,101.7439,0,1,0.6988,,0,34,34,106,1,pseudoword,0,REAL,FALSA
,,,,,,,,,Kristen,001,2024-06-07_08h49.26.393,empathy_intonation_perc,2024.1.4,Win32,59.88023952,,,,,,,,,,,,,,17,altar,,,,,,101.7441,102.9106,1,0,0.6318,,0,35,35,16,1,three_way_cognate,1,REAL,FALSA
,,,,,,,,,Kristen,001,2024-06-07_08h49.26.393,empathy_intonation_perc,2024.1.4,Win32,59.88023952,,,,,,,,,,,,,,15,chat,,,,,,102.911,103.9438,1,0,0.5001,,0,36,36,14,1,three_way_cognate,1,REAL,FALSA
,,,,,,,,,Kristen,001,2024-06-07_08h49.26.393,empathy_intonation_perc,2024.1.4,Win32,59.88023952,,,,,,,,,,,,,,28,ardor,,,,,,103.9442,105.1939,0,1,0.7194,,0,37,37,27,1,two_way_cognate,1,REAL,FALSA
,,,,,,,,,Kristen,001,2024-06-07_08h49.26.393,empathy_intonation_perc,2024.1.4,Win32,59.88023952,,,,,,,,,,,,,,144,piria,,,,,,105.194,106.3606,0,1,0.6321,,0,38,38,143,1,pseudoword,0,REAL,FALSA
,,,,,,,,,Kristen,001,2024-06-07_08h49.26.393,empathy_intonation_perc,2024.1.4,Win32,59.88023952,,,,,,,,,,,,,,65,guerra,,,,,,106.3609,107.5939,1,0,0.6989,,0,39,39,64,1,non_cognate,1,REAL,FALSA
,,,,,,,,,Kristen,001,2024-06-07_08h49.26.393,empathy_intonation_perc,2024.1.4,Win32,59.88023952,,,,,,,,,,,,,,84,aviso,,,,,,107.5942,108.8271,0,1,0.7002,,0,40,40,83,1,non_cognate,1,REAL,FALSA
,,,,,,,,,Kristen,001,2024-06-07_08h49.26.393,empathy_intonation_perc,2024.1.4,Win32,59.88023952,,,,,,,,,,,,,,18,mafia,,,,,,108.8274,110.1105,1,0,0.7561,,0,41,41,17,1,three_way_cognate,1,REAL,FALSA
,,,,,,,,,Kristen,001,2024-06-07_08h49.26.393,empathy_intonation_perc,2024.1.4,Win32,59.88023952,,,,,,,,,,,,,,134,fruzas,,,,,,110.1107,111.2438,0,1,0.6008,,0,42,42,133,1,pseudoword,0,REAL,FALSA
,,,,,,,,,Kristen,001,2024-06-07_08h49.26.393,empathy_intonation_perc,2024.1.4,Win32,59.88023952,,,,,,,,,,,,,,56,pico,,,,,,111.2441,112.4771,0,1,0.7006,,0,43,43,55,1,non_cognate,1,REAL,FALSA
,,,,,,,,,Kristen,001,2024-06-07_08h49.26.393,empathy_intonation_perc,2024.1.4,Win32,59.88023952,,,,,,,,,,,,,,49,teñir,,,,,,112.4774,113.7273,0,1,0.7222,,0,44,44,48,1,non_cognate,1,REAL,FALSA
,,,,,,,,,Kristen,001,2024-06-07_08h49.26.393,empathy_intonation_perc,2024.1.4,Win32,59.88023952,,,,,,,,,,,,,,40,pelvis,,,,,,113.7275,115.0439,1,0,0.7923,,0,45,45,39,1,two_way_cognate,1,REAL,FALSA
,,,,,,,,,Kristen,001,2024-06-07_08h49.26.393,empathy_intonation_perc,2024.1.4,Win32,59.88023952,,,,,,,,,,,,,,124,lobe,,,,,,115.0445,116.4939,1,0,0.9164,,0,46,46,123,1,pseudoword,0,REAL,FALSA
,,,,,,,,,Kristen,001,2024-06-07_08h49.26.393,empathy_intonation_perc,2024.1.4,Win32,59.88023952,,,,,,,,,,,,,,62,pegar,,,,,,116.4941,117.6439,0,1,0.6255,,0,47,47,61,1,non_cognate,1,REAL,FALSA
,,,,,,,,,Kristen,001,2024-06-07_08h49.26.393,empathy_intonation_perc,2024.1.4,Win32,59.88023952,,,,,,,,,,,,,,50,sierra,,,,,,117.6441,119.0106,0,1,0.8321,,0,48,48,49,1,non_cognate,1,REAL,FALSA
,,,,,,,,,Kristen,001,2024-06-07_08h49.26.393,empathy_intonation_perc,2024.1.4,Win32,59.88023952,,,,,,,,,,,,,,133,tirafa,,,,,,119.0108,120.0272,1,0,0.4823,,0,49,49,132,1,pseudoword,0,REAL,FALSA
,,,,,,,,,Kristen,001,2024-06-07_08h49.26.393,empathy_intonation_perc,2024.1.4,Win32,59.88023952,,,,,,,,,,,,,,64,rizado,,,,,,120.0275,120.9605,0,1,0.4043,,0,50,50,63,1,non_cognate,1,REAL,FALSA
,,,,,,,,,Kristen,001,2024-06-07_08h49.26.393,empathy_intonation_perc,2024.1.4,Win32,59.88023952,,,,,,,,,,,,,,19,trauma,,,,,,120.9607,121.8273,0,1,0.3349,,0,51,51,18,1,three_way_cognate,1,REAL,FALSA
,,,,,,,,,Kristen,001,2024-06-07_08h49.26.393,empathy_intonation_perc,2024.1.4,Win32,59.88023952,,,,,,,,,,,,,,61,aduana,,,,,,121.8275,123.0106,0,1,0.6522,,0,52,52,60,1,non_cognate,1,REAL,FALSA
,,,,,,,,,Kristen,001,2024-06-07_08h49.26.393,empathy_intonation_perc,2024.1.4,Win32,59.88023952,,,,,,,,,,,,,,5,horror,,,,,,123.0107,124.1772,1,0,0.6366,,0,53,53,4,1,three_way_cognate,1,REAL,FALSA
,,,,,,,,,Kristen,001,2024-06-07_08h49.26.393,empathy_intonation_perc,2024.1.4,Win32,59.88023952,,,,,,,,,,,,,,118,bará,,,,,,124.1774,125.5606,0,1,0.8541,,0,54,54,117,1,pseudoword,0,REAL,FALSA
,,,,,,,,,Kristen,001,2024-06-07_08h49.26.393,empathy_intonation_perc,2024.1.4,Win32,59.88023952,,,,,,,,,,,,,,126,anicio,,,,,,125.5609,126.8774,0,1,0.783,,0,55,55,125,1,pseudoword,0,REAL,FALSA
,,,,,,,,,Kristen,001,2024-06-07_08h49.26.393,empathy_intonation_perc,2024.1.4,Win32,59.88023952,,,,,,,,,,,,,,113,difrás,,,,,,126.8776,127.9773,0,1,0.5702,,0,56,56,112,1,pseudoword,0,REAL,FALSA
,,,,,,,,,Kristen,001,2024-06-07_08h49.26.393,empathy_intonation_perc,2024.1.4,Win32,59.88023952,,,,,,,,,,,,,,9,drama,,,,,,127.9774,129.1772,1,0,0.6822,,0,57,57,8,1,three_way_cognate,1,REAL,FALSA
,,,,,,,,,Kristen,001,2024-06-07_08h49.26.393,empathy_intonation_perc,2024.1.4,Win32,59.88023952,,,,,,,,,,,,,,94,forro,,,,,,129.1774,130.2107,0,1,0.4998,,0,58,58,93,1,non_cognate,1,REAL,FALSA
,,,,,,,,,Kristen,001,2024-06-07_08h49.26.393,empathy_intonation_perc,2024.1.4,Win32,59.88023952,,,,,,,,,,,,,,82,brillo,,,,,,130.2109,131.2772,0,1,0.5343,,0,59,59,81,1,non_cognate,1,REAL,FALSA
,,,,,,,,,Kristen,001,2024-06-07_08h49.26.393,empathy_intonation_perc,2024.1.4,Win32,59.88023952,,,,,,,,,,,,,,55,maldad,,,,,,131.2775,132.3106,0,1,0.5057,,0,60,60,54,1,non_cognate,1,REAL,FALSA
,,,,,,,,,Kristen,001,2024-06-07_08h49.26.393,empathy_intonation_perc,2024.1.4,Win32,59.88023952,,,,,,,,,,,,,,86,cuenco,,,,,,132.3108,133.2941,0,1,0.4494,,0,61,61,85,1,non_cognate,1,REAL,FALSA
,,,,,,,,,Kristen,001,2024-06-07_08h49.26.393,empathy_intonation_perc,2024.1.4,Win32,59.88023952,,,,,,,,,,,,,,24,retina,,,,,,133.2944,134.2606,0,1,0.4417,,0,62,62,23,1,three_way_cognate,1,REAL,FALSA
,,,,,,,,,Kristen,001,2024-06-07_08h49.26.393,empathy_intonation_perc,2024.1.4,Win32,59.88023952,,,,,,,,,,,,,,29,clamor,,,,,,134.2609,135.5774,0,1,0.7822,,0,63,63,28,1,two_way_cognate,1,REAL,FALSA
,,,,,,,,,Kristen,001,2024-06-07_08h49.26.393,empathy_intonation_perc,2024.1.4,Win32,59.88023952,,,,,,,,,,,,,,8,portal,,,,,,135.5776,137.1608,1,0,1.0489,,0,64,64,7,1,three_way_cognate,1,REAL,FALSA
,,,,,,,,,Kristen,001,2024-06-07_08h49.26.393,empathy_intonation_perc,2024.1.4,Win32,59.88023952,,,,,,,,,,,,,,21,mango,,,,,,137.1612,138.444,1,0,0.7507,,0,65,65,20,1,three_way_cognate,1,REAL,FALSA
,,,,,,,,,Kristen,001,2024-06-07_08h49.26.393,empathy_intonation_perc,2024.1.4,Win32,59.88023952,,,,,,,,,,,,,,119,esís,,,,,,138.4442,139.6939,0,1,0.7236,,0,66,66,118,1,pseudoword,0,REAL,FALSA
,,,,,,,,,Kristen,001,2024-06-07_08h49.26.393,empathy_intonation_perc,2024.1.4,Win32,59.88023952,,,,,,,,,,,,,,120,hierno,,,,,,139.6941,141.1107,0,1,0.882,,0,67,67,119,1,pseudoword,0,REAL,FALSA
,,,,,,,,,Kristen,001,2024-06-07_08h49.26.393,empathy_intonation_perc,2024.1.4,Win32,59.88023952,,,,,,,,,,,,,,27,piano,,,,,,141.1111,142.1106,0,1,0.4652,,0,68,68,26,1,two_way_cognate,1,REAL,FALSA
,,,,,,,,,Kristen,001,2024-06-07_08h49.26.393,empathy_intonation_perc,2024.1.4,Win32,59.88023952,,,,,,,,,,,,,,90,venado,,,,,,142.111,143.1772,0,1,0.5367,,0,69,69,89,1,non_cognate,1,REAL,FALSA
,,,,,,,,,Kristen,001,2024-06-07_08h49.26.393,empathy_intonation_perc,2024.1.4,Win32,59.88023952,,,,,,,,,,,,,,20,hotel,,,,,,143.1774,144.2106,1,0,0.4989,,0,70,70,19,1,three_way_cognate,1,REAL,FALSA
,,,,,,,,,Kristen,001,2024-06-07_08h49.26.393,empathy_intonation_perc,2024.1.4,Win32,59.88023952,,,,,,,,,,,,,,97,hufón,,,,,,144.2109,145.344,0,1,0.6053,,0,71,71,96,1,pseudoword,0,REAL,FALSA
,,,,,,,,,Kristen,001,2024-06-07_08h49.26.393,empathy_intonation_perc,2024.1.4,Win32,59.88023952,,,,,,,,,,,,,,110,vacapó,,,,,,145.3443,146.5106,0,1,0.6404,,0,72,72,109,1,pseudoword,0,REAL,FALSA
,,,,,,,,,Kristen,001,2024-06-07_08h49.26.393,empathy_intonation_perc,2024.1.4,Win32,59.88023952,,,,,,,,,,,,,,105,curgué,,,,,,146.5107,148.0439,1,0,0.9989,,0,73,73,104,1,pseudoword,0,REAL,FALSA
,,,,,,,,,Kristen,001,2024-06-07_08h49.26.393,empathy_intonation_perc,2024.1.4,Win32,59.88023952,,,,,,,,,,,,,,141,sumer,,,,,,148.0442,149.0438,1,0,0.4675,,0,74,74,140,1,pseudoword,0,REAL,FALSA
,,,,,,,,,Kristen,001,2024-06-07_08h49.26.393,empathy_intonation_perc,2024.1.4,Win32,59.88023952,,,,,,,,,,,,,,51,listo,,,,,,149.0441,150.0772,1,0,0.507,,0,75,75,50,1,non_cognate,1,REAL,FALSA
,,,,,,,,,Kristen,001,2024-06-07_08h49.26.393,empathy_intonation_perc,2024.1.4,Win32,59.88023952,,,,,,,,,,,,,,87,muleta,,,,,,150.0775,151.194,0,1,0.5862,,0,76,76,86,1,non_cognate,1,REAL,FALSA
,,,,,,,,,Kristen,001,2024-06-07_08h49.26.393,empathy_intonation_perc,2024.1.4,Win32,59.88023952,,,,,,,,,,,,,,103,babes,,,,,,151.1943,152.3607,1,0,0.6375,,0,77,77,102,1,pseudoword,0,REAL,FALSA
,,,,,,,,,Kristen,001,2024-06-07_08h49.26.393,empathy_intonation_perc,2024.1.4,Win32,59.88023952,,,,,,,,,,,,,,139,furbos,,,,,,152.3609,153.6941,1,0,0.7991,,0,78,78,138,1,pseudoword,0,REAL,FALSA
,,,,,,,,,Kristen,001,2024-06-07_08h49.26.393,empathy_intonation_perc,2024.1.4,Win32,59.88023952,,,,,,,,,,,,,,34,actor,,,,,,153.6943,155.0439,1,0,0.818,,0,79,79,33,1,two_way_cognate,1,REAL,FALSA
,,,,,,,,,Kristen,001,2024-06-07_08h49.26.393,empathy_intonation_perc,2024.1.4,Win32,59.88023952,,,,,,,,,,,,,,41,pasta,,,,,,155.0442,156.094,0,1,0.5158,,0,80,80,40,1,two_way_cognate,1,REAL,FALSA
,,,,,,,,,Kristen,001,2024-06-07_08h49.26.393,empathy_intonation_perc,2024.1.4,Win32,59.88023952,,,,,,,,,,,,,,100,medón,,,,,,156.0942,157.4107,0,1,0.7819,,0,81,81,99,1,pseudoword,0,REAL,FALSA
,,,,,,,,,Kristen,001,2024-06-07_08h49.26.393,empathy_intonation_perc,2024.1.4,Win32,59.88023952,,,,,,,,,,,,,,48,pelvis,,,,,,157.411,158.3939,1,0,0.4514,,0,82,82,47,1,two_way_cognate,1,REAL,FALSA
,,,,,,,,,Kristen,001,2024-06-07_08h49.26.393,empathy_intonation_perc,2024.1.4,Win32,59.88023952,,,,,,,,,,,,,,131,fuar,,,,,,158.3942,159.6939,0,1,0.7657,,0,83,83,130,1,pseudoword,0,REAL,FALSA
,,,,,,,,,Kristen,001,2024-06-07_08h49.26.393,empathy_intonation_perc,2024.1.4,Win32,59.88023952,,,,,,,,,,,,,,81,sacar,,,,,,159.6943,161.2606,1,0,1.0415,,0,84,84,80,1,non_cognate,1,REAL,FALSA
,,,,,,,,,Kristen,001,2024-06-07_08h49.26.393,empathy_intonation_perc,2024.1.4,Win32,59.88023952,,,,,,,,,,,,,,45,total,,,,,,161.2608,163.5606,1,0,1.7709,,0,85,85,44,1,two_way_cognate,1,REAL,FALSA
,,,,,,,,,Kristen,001,2024-06-07_08h49.26.393,empathy_intonation_perc,2024.1.4,Win32,59.88023952,,,,,,,,,,,,,,102,coyo,,,,,,163.5609,164.8606,0,1,0.7669,,0,86,86,101,1,pseudoword,0,REAL,FALSA
,,,,,,,,,Kristen,001,2024-06-07_08h49.26.393,empathy_intonation_perc,2024.1.4,Win32,59.88023952,,,,,,,,,,,,,,25,vigor,,,,,,164.8609,166.144,1,0,0.7487,,0,87,87,24,1,two_way_cognate,1,REAL,FALSA
,,,,,,,,,Kristen,001,2024-06-07_08h49.26.393,empathy_intonation_perc,2024.1.4,Win32,59.88023952,,,,,,,,,,,,,,142,viseña,,,,,,166.1442,167.4608,0,1,0.7838,,0,88,88,141,1,pseudoword,0,REAL,FALSA
,,,,,,,,,Kristen,001,2024-06-07_08h49.26.393,empathy_intonation_perc,2024.1.4,Win32,59.88023952,,,,,,,,,,,,,,52,blando,,,,,,167.4613,169.3774,1,0,1.3823,,0,89,89,51,1,non_cognate,1,REAL,FALSA
,,,,,,,,,Kristen,001,2024-06-07_08h49.26.393,empathy_intonation_perc,2024.1.4,Win32,59.88023952,,,,,,,,,,,,,,106,baurá,,,,,,169.3775,170.644,0,1,0.7321,,0,90,90,105,1,pseudoword,0,REAL,FALSA
,,,,,,,,,Kristen,001,2024-06-07_08h49.26.393,empathy_intonation_perc,2024.1.4,Win32,59.88023952,,,,,,,,,,,,,,11,dogma,,,,,,170.6442,172.1441,1,0,0.9715,,0,91,91,10,1,three_way_cognate,1,REAL,FALSA
,,,,,,,,,Kristen,001,2024-06-07_08h49.26.393,empathy_intonation_perc,2024.1.4,Win32,59.88023952,,,,,,,,,,,,,,54,tapón,,,,,,172.1443,173.9443,0,1,1.2652,,0,92,92,53,1,non_cognate,1,REAL,FALSA
,,,,,,,,,Kristen,001,2024-06-07_08h49.26.393,empathy_intonation_perc,2024.1.4,Win32,59.88023952,,,,,,,,,,,,,,43,honor,,,,,,173.9447,175.1941,1,0,0.7154,,0,93,93,42,1,two_way_cognate,1,REAL,FALSA
,,,,,,,,,Kristen,001,2024-06-07_08h49.26.393,empathy_intonation_perc,2024.1.4,Win32,59.88023952,,,,,,,,,,,,,,60,siglo,,,,,,175.1946,176.8774,0,1,1.1495,,0,94,94,59,1,non_cognate,1,REAL,FALSA
,,,,,,,,,Kristen,001,2024-06-07_08h49.26.393,empathy_intonation_perc,2024.1.4,Win32,59.88023952,,,,,,,,,,,,,,53,punta,,,,,,176.8776,177.9775,1,0,0.5705,,0,95,95,52,1,non_cognate,1,REAL,FALSA
,,,,,,,,,Kristen,001,2024-06-07_08h49.26.393,empathy_intonation_perc,2024.1.4,Win32,59.88023952,,,,,,,,,,,,,,80,cuenco,,,,,,177.978,179.8273,0,1,1.3155,,0,96,96,79,1,non_cognate,1,REAL,FALSA
,,,,,,,,,Kristen,001,2024-06-07_08h49.26.393,empathy_intonation_perc,2024.1.4,Win32,59.88023952,,,,,,,,,,,,,,16,clan,,,,,,179.8277,181.144,1,0,0.7821,,0,97,97,15,1,three_way_cognate,1,REAL,FALSA
,,,,,,,,,Kristen,001,2024-06-07_08h49.26.393,empathy_intonation_perc,2024.1.4,Win32,59.88023952,,,,,,,,,,,,,,96,caro,,,,,,181.1443,182.844,0,1,1.1753,,0,98,98,95,1,non_cognate,1,REAL,FALSA
,,,,,,,,,Kristen,001,2024-06-07_08h49.26.393,empathy_intonation_perc,2024.1.4,Win32,59.88023952,,,,,,,,,,,,,,14,test,,,,,,182.8443,183.8441,1,0,0.4683,,0,99,99,13,1,three_way_cognate,1,REAL,FALSA
,,,,,,,,,Kristen,001,2024-06-07_08h49.26.393,empathy_intonation_perc,2024.1.4,Win32,59.88023952,,,,,,,,,,,,,,30,fiscal,,,,,,183.8443,185.294,1,0,0.9235,,0,100,100,29,1,two_way_cognate,1,REAL,FALSA
,,,,,,,,,Kristen,001,2024-06-07_08h49.26.393,empathy_intonation_perc,2024.1.4,Win32,59.88023952,,,,,,,,,,,,,,32,animal,,,,,,185.2941,186.3773,1,0,0.5531,,0,101,101,31,1,two_way_cognate,1,REAL,FALSA
,,,,,,,,,Kristen,001,2024-06-07_08h49.26.393,empathy_intonation_perc,2024.1.4,Win32,59.88023952,,,,,,,,,,,,,,57,regalo,,,,,,186.3775,187.8439,0,1,0.9346,,0,102,102,56,1,non_cognate,1,REAL,FALSA
,,,,,,,,,Kristen,001,2024-06-07_08h49.26.393,empathy_intonation_perc,2024.1.4,Win32,59.88023952,,,,,,,,,,,,,,117,apunan,,,,,,187.8442,189.3439,1,0,0.9721,,0,103,103,116,1,pseudoword,0,REAL,FALSA
,,,,,,,,,Kristen,001,2024-06-07_08h49.26.393,empathy_intonation_perc,2024.1.4,Win32,59.88023952,,,,,,,,,,,,,,23,porno,,,,,,189.3442,190.5439,1,0,0.6708,,0,104,104,22,1,three_way_cognate,1,REAL,FALSA
,,,,,,,,,Kristen,001,2024-06-07_08h49.26.393,empathy_intonation_perc,2024.1.4,Win32,59.88023952,,,,,,,,,,,,,,78,rendir,,,,,,190.5441,192.0774,0,1,0.9997,,0,105,105,77,1,non_cognate,1,REAL,FALSA
,,,,,,,,,Kristen,001,2024-06-07_08h49.26.393,empathy_intonation_perc,2024.1.4,Win32,59.88023952,,,,,,,,,,,,,,114,potos,,,,,,192.0777,193.2107,1,0,0.5987,,0,106,106,113,1,pseudoword,0,REAL,FALSA
,,,,,,,,,Kristen,001,2024-06-07_08h49.26.393,empathy_intonation_perc,2024.1.4,Win32,59.88023952,,,,,,,,,,,,,,136,sopleó,,,,,,193.2109,194.5773,1,0,0.8366,,0,107,107,135,1,pseudoword,0,REAL,FALSA
,,,,,,,,,Kristen,001,2024-06-07_08h49.26.393,empathy_intonation_perc,2024.1.4,Win32,59.88023952,,,,,,,,,,,,,,22,plural,,,,,,194.5776,195.7772,1,0,0.6699,,0,108,108,21,1,three_way_cognate,1,REAL,FALSA
,,,,,,,,,Kristen,001,2024-06-07_08h49.26.393,empathy_intonation_perc,2024.1.4,Win32,59.88023952,,,,,,,,,,,,,,26,enigma,,,,,,195.7775,197.1441,1,0,0.832,,0,109,109,25,1,two_way_cognate,1,REAL,FALSA
,,,,,,,,,Kristen,001,2024-06-07_08h49.26.393,empathy_intonation_perc,2024.1.4,Win32,59.88023952,,,,,,,,,,,,,,89,muñeca,,,,,,197.1444,198.3109,0,1,0.6323,,0,110,110,88,1,non_cognate,1,REAL,FALSA
,,,,,,,,,Kristen,001,2024-06-07_08h49.26.393,empathy_intonation_perc,2024.1.4,Win32,59.88023952,,,,,,,,,,,,,,7,kilo,,,,,,198.3111,199.4773,1,0,0.6339,,0,111,111,6,1,three_way_cognate,1,REAL,FALSA
,,,,,,,,,Kristen,001,2024-06-07_08h49.26.393,empathy_intonation_perc,2024.1.4,Win32,59.88023952,,,,,,,,,,,,,,143,pledú,,,,,,199.4775,200.4939,1,0,0.4902,,0,112,112,142,1,pseudoword,0,REAL,FALSA
,,,,,,,,,Kristen,001,2024-06-07_08h49.26.393,empathy_intonation_perc,2024.1.4,Win32,59.88023952,,,,,,,,,,,,,,71,torta,,,,,,200.4942,201.3775,1,0,0.3492,,0,113,113,70,1,non_cognate,1,REAL,FALSA
,,,,,,,,,Kristen,001,2024-06-07_08h49.26.393,empathy_intonation_perc,2024.1.4,Win32,59.88023952,,,,,,,,,,,,,,128,pelí,,,,,,201.3778,202.2438,1,0,0.3409,,0,114,114,127,1,pseudoword,0,REAL,FALSA
,,,,,,,,,Kristen,001,2024-06-07_08h49.26.393,empathy_intonation_perc,2024.1.4,Win32,59.88023952,,,,,,,,,,,,,,123,escare,,,,,,202.244,203.0939,1,0,0.3235,,0,115,115,122,1,pseudoword,0,REAL,FALSA
,,,,,,,,,Kristen,001,2024-06-07_08h49.26.393,empathy_intonation_perc,2024.1.4,Win32,59.88023952,,,,,,,,,,,,,,88,percha,,,,,,203.0941,203.9773,1,0,0.3535,,0,116,116,87,1,non_cognate,1,REAL,FALSA
,,,,,,,,,Kristen,001,2024-06-07_08h49.26.393,empathy_intonation_perc,2024.1.4,Win32,59.88023952,,,,,,,,,,,,,,91,equipo,,,,,,203.9775,205.2441,1,0,0.7421,,0,117,117,90,1,non_cognate,1,REAL,FALSA
,,,,,,,,,Kristen,001,2024-06-07_08h49.26.393,empathy_intonation_perc,2024.1.4,Win32,59.88023952,,,,,,,,,,,,,,93,tapa,,,,,,205.2444,206.5107,0,1,0.7396,,0,118,118,92,1,non_cognate,1,REAL,FALSA
,,,,,,,,,Kristen,001,2024-06-07_08h49.26.393,empathy_intonation_perc,2024.1.4,Win32,59.88023952,,,,,,,,,,,,,,140,vapen,,,,,,206.5109,207.5773,1,0,0.5534,,0,119,119,139,1,pseudoword,0,REAL,FALSA
,,,,,,,,,Kristen,001,2024-06-07_08h49.26.393,empathy_intonation_perc,2024.1.4,Win32,59.88023952,,,,,,,,,,,,,,104,vitra,,,,,,207.5775,208.6439,1,0,0.5424,,0,120,120,103,1,pseudoword,0,REAL,FALSA
,,,,,,,,,Kristen,001,2024-06-07_08h49.26.393,empathy_intonation_perc,2024.1.4,Win32,59.88023952,,,,,,,,,,,,,,63,hilo,,,,,,208.6441,209.4274,0,1,0.2488,,0,121,121,62,1,non_cognate,1,REAL,FALSA
,,,,,,,,,Kristen,001,2024-06-07_08h49.26.393,empathy_intonation_perc,2024.1.4,Win32,59.88023952,,,,,,,,,,,,,,3,flora,,,,,,209.4277,210.5773,0,1,0.6201,,0,122,122,2,1,three_way_cognate,1,REAL,FALSA
,,,,,,,,,Kristen,001,2024-06-07_08h49.26.393,empathy_intonation_perc,2024.1.4,Win32,59.88023952,,,,,,,,,,,,,,116,crene,,,,,,210.5775,211.6607,0,1,0.558,,0,123,123,115,1,pseudoword,0,REAL,FALSA
,,,,,,,,,Kristen,001,2024-06-07_08h49.26.393,empathy_intonation_perc,2024.1.4,Win32,59.88023952,,,,,,,,,,,,,,115,civas,,,,,,211.6608,212.644,1,0,0.4479,,0,124,124,114,1,pseudoword,0,REAL,FALSA
,,,,,,,,,Kristen,001,2024-06-07_08h49.26.393,empathy_intonation_perc,2024.1.4,Win32,59.88023952,,,,,,,,,,,,,,111,vibler,,,,,,212.6443,213.5959,1,0,0.4169,,0,125,125,110,1,pseudoword,0,REAL,FALSA
,,,,,,,,,Kristen,001,2024-06-07_08h49.26.393,empathy_intonation_perc,2024.1.4,Win32,59.88023952,,,,,,,,,,,,,,35,aurora,,,,,,213.5964,214.6274,1,0,0.4988,,0,126,126,34,1,two_way_cognate,1,REAL,FALSA
,,,,,,,,,Kristen,001,2024-06-07_08h49.26.393,empathy_intonation_perc,2024.1.4,Win32,59.88023952,,,,,,,,,,,,,,108,viarle,,,,,,214.6277,215.7607,0,1,0.6041,,0,127,127,107,1,pseudoword,0,REAL,FALSA
,,,,,,,,,Kristen,001,2024-06-07_08h49.26.393,empathy_intonation_perc,2024.1.4,Win32,59.88023952,,,,,,,,,,,,,,122,gravés,,,,,,215.761,216.7607,0,1,0.4652,,0,128,128,121,1,pseudoword,0,REAL,FALSA
,,,,,,,,,Kristen,001,2024-06-07_08h49.26.393,empathy_intonation_perc,2024.1.4,Win32,59.88023952,,,,,,,,,,,,,,76,chocar,,,,,,216.7609,217.8278,0,1,0.5362,,0,129,129,75,1,non_cognate,1,REAL,FALSA
,,,,,,,,,Kristen,001,2024-06-07_08h49.26.393,empathy_intonation_perc,2024.1.4,Win32,59.88023952,,,,,,,,,,,,,,137,unglés,,,,,,217.8284,218.8274,0,1,0.4653,,0,130,130,136,1,pseudoword,0,REAL,FALSA
,,,,,,,,,Kristen,001,2024-06-07_08h49.26.393,empathy_intonation_perc,2024.1.4,Win32,59.88023952,,,,,,,,,,,,,,101,fertes,,,,,,218.8277,219.8107,0,1,0.4491,,0,131,131,100,1,pseudoword,0,REAL,FALSA
,,,,,,,,,Kristen,001,2024-06-07_08h49.26.393,empathy_intonation_perc,2024.1.4,Win32,59.88023952,,,,,,,,,,,,,,74,ala,,,,,,219.811,220.7106,0,1,0.3727,,0,132,132,73,1,non_cognate,1,REAL,FALSA
,,,,,,,,,Kristen,001,2024-06-07_08h49.26.393,empathy_intonation_perc,2024.1.4,Win32,59.88023952,,,,,,,,,,,,,,125,ceme,,,,,,220.7108,221.5273,0,1,0.2889,,0,133,133,124,1,pseudoword,0,REAL,FALSA
,,,,,,,,,Kristen,001,2024-06-07_08h49.26.393,empathy_intonation_perc,2024.1.4,Win32,59.88023952,,,,,,,,,,,,,,98,erede,,,,,,221.5275,222.4773,0,1,0.4166,,0,134,134,97,1,pseudoword,0,REAL,FALSA
,,,,,,,,,Kristen,001,2024-06-07_08h49.26.393,empathy_intonation_perc,2024.1.4,Win32,59.88023952,,,,,,,,,,,,,,68,puñal,,,,,,222.4775,223.3607,0,1,0.3484,,0,135,135,67,1,non_cognate,1,REAL,FALSA
,,,,,,,,,Kristen,001,2024-06-07_08h49.26.393,empathy_intonation_perc,2024.1.4,Win32,59.88023952,,,,,,,,,,,,,,77,suave,,,,,,223.3611,224.294,0,1,0.4004,,0,136,136,76,1,non_cognate,1,REAL,FALSA
,,,,,,,,,Kristen,001,2024-06-07_08h49.26.393,empathy_intonation_perc,2024.1.4,Win32,59.88023952,,,,,,,,,,,,,,4,extra,,,,,,224.2942,225.2773,0,1,0.4498,,0,137,137,3,1,three_way_cognate,1,REAL,FALSA
,,,,,,,,,Kristen,001,2024-06-07_08h49.26.393,empathy_intonation_perc,2024.1.4,Win32,59.88023952,,,,,,,,,,,,,,135,macayó,,,,,,225.2776,226.2607,0,1,0.4505,,0,138,138,134,1,pseudoword,0,REAL,FALSA
,,,,,,,,,Kristen,001,2024-06-07_08h49.26.393,empathy_intonation_perc,2024.1.4,Win32,59.88023952,,,,,,,,,,,,,,75,patada,,,,,,226.2609,227.2106,0,1,0.4188,,0,139,139,74,1,non_cognate,1,REAL,FALSA
,,,,,,,,,Kristen,001,2024-06-07_08h49.26.393,empathy_intonation_perc,2024.1.4,Win32,59.88023952,,,,,,,,,,,,,,95,listo,,,,,,227.2109,228.1943,0,1,0.4529,,0,140,140,94,1,non_cognate,1,REAL,FALSA
,,,,,,,,,Kristen,001,2024-06-07_08h49.26.393,empathy_intonation_perc,2024.1.4,Win32,59.88023952,,,,,,,,,,,,,,99,mieris,,,,,,228.195,229.1273,0,1,0.4054,,0,141,141,98,1,pseudoword,0,REAL,FALSA
,,,,,,,,,Kristen,001,2024-06-07_08h49.26.393,empathy_intonation_perc,2024.1.4,Win32,59.88023952,,,,,,,,,,,,,,13,aura,,,,,,229.1276,230.194,0,1,0.5361,,0,142,142,12,1,three_way_cognate,1,REAL,FALSA
,,,,,,,,,Kristen,001,2024-06-07_08h49.26.393,empathy_intonation_perc,2024.1.4,Win32,59.88023952,,,,,,,,,,,,,,58,colcha,,,,,,230.1943,231.0774,0,1,0.3573,,0,143,143,57,1,non_cognate,1,REAL,FALSA
