lextale_instructions.started,lextale_instructions.stopped,lextale_instructions_loop.thisRepN,lextale_instructions_loop.thisTrialN,lextale_instructions_loop.thisN,lextale_instructions_loop.thisIndex,lextale_instructions_loop.ran,instructions_text,continue_text,participant,session,date,expName,psychopyVersion,OS,frameRate,lextale_practice.started,lextale_practice.stopped,key_resp_lextale_practice.keys,key_resp_lextale_practice.corr,key_resp_lextale_practice.rt,key_resp_lextale_practice.duration,lextale_practice_feedback.started,lextale_practice_feedback.stopped,lextale_practice_trials.thisRepN,lextale_practice_trials.thisTrialN,lextale_practice_trials.thisN,lextale_practice_trials.thisIndex,lextale_practice_trials.ran,stim,word,correct_response,prac_button_real,prac_button_false,lextale_check.started,lextale_check.stopped,lextale_trial.started,lextale_trial.stopped,key_resp_lextale_trial.keys,key_resp_lextale_trial.corr,key_resp_lextale_trial.rt,key_resp_lextale_trial.duration,lextail_trials.thisRepN,lextail_trials.thisTrialN,lextail_trials.thisN,lextail_trials.thisIndex,lextail_trials.ran,type,correct_reponse,button_real,button_false
0.002,29.217,0,0,0,0,1,"Este es un test de vocabulario en español. 
  
  A continuación vas a ver 90 secuencias de letras que parecen 'españolas'.
  
  Solo algunas de ellas son palabras de verdad.",(presiona la barra espaciadora para continuar),Pascal,001,2024-06-20_13h35.00.003,empathy_intonation_perc,2024.1.4,Win32,60.0240096,,,,,,,,,,,,,,,,,,,,,,,,,,,,,,,,,,,
29.218,32.949,0,1,1,1,1,"Por favor, señala las palabras que tú conoces (aquellas que estás convencido que son palabras españolas, incluso aunque no seas capaz de dar el significado preciso).",(presiona la barra espaciadora para continuar),Pascal,001,2024-06-20_13h35.00.003,empathy_intonation_perc,2024.1.4,Win32,60.0240096,,,,,,,,,,,,,,,,,,,,,,,,,,,,,,,,,,,
32.952,40.365,0,2,2,2,1,Pero cuidado: los errores se penalizan. Por eso no tiene sentido tratar de incrementar tu puntuación marcando como reales palabras que nunca has visto.,(presiona la barra espaciadora para continuar),Pascal,001,2024-06-20_13h35.00.003,empathy_intonation_perc,2024.1.4,Win32,60.0240096,,,,,,,,,,,,,,,,,,,,,,,,,,,,,,,,,,,
40.367,44.248,0,3,3,3,1,"Presiona la tecla 1 si piensas que es una palabra real y la tecla 
  0 si piensas que es una palabra falsa. 
  
  Vamos a practicar un poco...",(presiona la barra espaciadora para continuar),Pascal,001,2024-06-20_13h35.00.003,empathy_intonation_perc,2024.1.4,Win32,60.0240096,,,,,,,,,,,,,,,,,,,,,,,,,,,,,,,,,,,
,,,,,,,,,Pascal,001,2024-06-20_13h35.00.003,empathy_intonation_perc,2024.1.4,Win32,60.0240096,44.256,46.681,0,1,1.9,,46.682,47.681,0,0,0,0,1,0,depiste,0,REAL,FALSA,,,,,,,,,,,,,,,,,
,,,,,,,,,Pascal,001,2024-06-20_13h35.00.003,empathy_intonation_perc,2024.1.4,Win32,60.0240096,47.683,49.398,1,1,1.18,,49.399,50.397,0,1,1,1,1,0,sí,1,REAL,FALSA,,,,,,,,,,,,,,,,,
,,,,,,,,,Pascal,001,2024-06-20_13h35.00.003,empathy_intonation_perc,2024.1.4,Win32,60.0240096,50.399,52.381,0,1,1.447,,52.381,53.381,0,2,2,2,1,0,coné,0,REAL,FALSA,,,,,,,,,,,,,,,,,
,,,,,,,,,Pascal,001,2024-06-20_13h35.00.003,empathy_intonation_perc,2024.1.4,Win32,60.0240096,53.382,57.266,0,1,3.353,,57.266,58.263,0,3,3,3,1,0,calpar,0,REAL,FALSA,,,,,,,,,,,,,,,,,
,,,,,,,,,Pascal,001,2024-06-20_13h35.00.003,empathy_intonation_perc,2024.1.4,Win32,60.0240096,58.264,59.997,0,1,1.194,,59.997,60.997,0,4,4,4,1,0,joten,0,REAL,FALSA,,,,,,,,,,,,,,,,,
,,,,,,,,,Pascal,001,2024-06-20_13h35.00.003,empathy_intonation_perc,2024.1.4,Win32,60.0240096,60.998,62.964,1,1,1.429,,62.966,63.967,0,5,5,5,1,0,sacapuntas,1,REAL,FALSA,,,,,,,,,,,,,,,,,
,,,,,,,,,Pascal,001,2024-06-20_13h35.00.003,empathy_intonation_perc,2024.1.4,Win32,60.0240096,63.97,65.63,0,1,1.129,,65.631,66.63,0,6,6,6,1,0,priba,0,REAL,FALSA,,,,,,,,,,,,,,,,,
,,,,,,,,,Pascal,001,2024-06-20_13h35.00.003,empathy_intonation_perc,2024.1.4,Win32,60.0240096,66.632,68.447,0,1,1.28,,68.447,69.446,0,7,7,7,1,0,pelasula,0,REAL,FALSA,,,,,,,,,,,,,,,,,
,,,,,,,,,Pascal,001,2024-06-20_13h35.00.003,empathy_intonation_perc,2024.1.4,Win32,60.0240096,69.448,71.513,1,1,1.53,,71.513,72.513,0,8,8,8,1,0,bien,1,REAL,FALSA,,,,,,,,,,,,,,,,,
,,,,,,,,,Pascal,001,2024-06-20_13h35.00.003,empathy_intonation_perc,2024.1.4,Win32,60.0240096,72.514,73.729,1,1,0.687,,73.729,74.73,0,9,9,9,1,0,casa,1,REAL,FALSA,,,,,,,,,,,,,,,,,
,,,,,,,,,Pascal,001,2024-06-20_13h35.00.003,empathy_intonation_perc,2024.1.4,Win32,60.0240096,74.731,76.596,0,1,1.333,,76.596,77.597,0,10,10,10,1,0,lejo,0,REAL,FALSA,,,,,,,,,,,,,,,,,
,,,,,,,,,Pascal,001,2024-06-20_13h35.00.003,empathy_intonation_perc,2024.1.4,Win32,60.0240096,77.598,80.082,0,1,1.944,,80.082,81.08,0,11,11,11,1,0,pretantas,0,REAL,FALSA,,,,,,,,,,,,,,,,,
,,,,,,,,,Pascal,001,2024-06-20_13h35.00.003,empathy_intonation_perc,2024.1.4,Win32,60.0240096,,,,,,,,,,,,,,,,,,,81.08,84.196,,,,,,,,,,,,,,,
,,,,,,,,,Pascal,001,2024-06-20_13h35.00.003,empathy_intonation_perc,2024.1.4,Win32,60.0240096,,,,,,,,,,,,,,134,molor,,,,,,84.211,85.746,0,1,1.014,,0,0,0,133,1,pseudoword,0,REAL,FALSA
,,,,,,,,,Pascal,001,2024-06-20_13h35.00.003,empathy_intonation_perc,2024.1.4,Win32,60.0240096,,,,,,,,,,,,,,53,punta,,,,,,85.747,87.246,1,0,0.963,,0,1,1,52,1,non_cognate,1,REAL,FALSA
,,,,,,,,,Pascal,001,2024-06-20_13h35.00.003,empathy_intonation_perc,2024.1.4,Win32,60.0240096,,,,,,,,,,,,,,95,listo,,,,,,87.247,88.479,1,0,0.697,,0,2,2,94,1,non_cognate,1,REAL,FALSA
,,,,,,,,,Pascal,001,2024-06-20_13h35.00.003,empathy_intonation_perc,2024.1.4,Win32,60.0240096,,,,,,,,,,,,,,146,gió,,,,,,88.48,89.896,0,1,0.881,,0,3,3,145,1,pseudoword,0,REAL,FALSA
,,,,,,,,,Pascal,001,2024-06-20_13h35.00.003,empathy_intonation_perc,2024.1.4,Win32,60.0240096,,,,,,,,,,,,,,111,monue,,,,,,89.897,91.628,0,1,1.196,,0,4,4,110,1,pseudoword,0,REAL,FALSA
,,,,,,,,,Pascal,001,2024-06-20_13h35.00.003,empathy_intonation_perc,2024.1.4,Win32,60.0240096,,,,,,,,,,,,,,176,gripar,,,,,,91.629,95.111,0,1,2.947,,0,5,5,175,1,pseudoword,0,REAL,FALSA
,,,,,,,,,Pascal,001,2024-06-20_13h35.00.003,empathy_intonation_perc,2024.1.4,Win32,60.0240096,,,,,,,,,,,,,,97,nocita,,,,,,95.112,96.697,0,1,1.047,,0,6,6,96,1,pseudoword,0,REAL,FALSA
,,,,,,,,,Pascal,001,2024-06-20_13h35.00.003,empathy_intonation_perc,2024.1.4,Win32,60.0240096,,,,,,,,,,,,,,11,golf,,,,,,96.701,97.997,1,0,0.761,,0,7,7,10,1,three_way_cognate,1,REAL,FALSA
,,,,,,,,,Pascal,001,2024-06-20_13h35.00.003,empathy_intonation_perc,2024.1.4,Win32,60.0240096,,,,,,,,,,,,,,130,dubo,,,,,,97.999,99.512,0,1,0.98,,0,8,8,129,1,pseudoword,0,REAL,FALSA
,,,,,,,,,Pascal,001,2024-06-20_13h35.00.003,empathy_intonation_perc,2024.1.4,Win32,60.0240096,,,,,,,,,,,,,,152,prave,,,,,,99.513,101.012,0,1,0.964,,0,9,9,151,1,pseudoword,0,REAL,FALSA
,,,,,,,,,Pascal,001,2024-06-20_13h35.00.003,empathy_intonation_perc,2024.1.4,Win32,60.0240096,,,,,,,,,,,,,,5,extra,,,,,,101.013,102.261,1,0,0.714,,0,10,10,4,1,three_way_cognate,1,REAL,FALSA
,,,,,,,,,Pascal,001,2024-06-20_13h35.00.003,empathy_intonation_perc,2024.1.4,Win32,60.0240096,,,,,,,,,,,,,,33,collar,,,,,,102.262,103.828,1,0,1.03,,0,11,11,32,1,two_way_cognate,1,REAL,FALSA
,,,,,,,,,Pascal,001,2024-06-20_13h35.00.003,empathy_intonation_perc,2024.1.4,Win32,60.0240096,,,,,,,,,,,,,,117,morrá,,,,,,103.83,106.695,0,1,2.328,,0,12,12,116,1,pseudoword,0,REAL,FALSA
,,,,,,,,,Pascal,001,2024-06-20_13h35.00.003,empathy_intonation_perc,2024.1.4,Win32,60.0240096,,,,,,,,,,,,,,10,drama,,,,,,106.696,108.595,1,0,1.363,,0,13,13,9,1,three_way_cognate,1,REAL,FALSA
,,,,,,,,,Pascal,001,2024-06-20_13h35.00.003,empathy_intonation_perc,2024.1.4,Win32,60.0240096,,,,,,,,,,,,,,151,prías,,,,,,108.596,109.861,0,1,0.73,,0,14,14,150,1,pseudoword,0,REAL,FALSA
,,,,,,,,,Pascal,001,2024-06-20_13h35.00.003,empathy_intonation_perc,2024.1.4,Win32,60.0240096,,,,,,,,,,,,,,89,muñeca,,,,,,109.862,111.177,1,0,0.779,,0,15,15,88,1,non_cognate,1,REAL,FALSA
,,,,,,,,,Pascal,001,2024-06-20_13h35.00.003,empathy_intonation_perc,2024.1.4,Win32,60.0240096,,,,,,,,,,,,,,159,trcia,,,,,,111.178,112.677,0,1,0.962,,0,16,16,158,1,pseudoword,0,REAL,FALSA
,,,,,,,,,Pascal,001,2024-06-20_13h35.00.003,empathy_intonation_perc,2024.1.4,Win32,60.0240096,,,,,,,,,,,,,,115,lidena,,,,,,112.678,114.445,0,1,1.229,,0,17,17,114,1,pseudoword,0,REAL,FALSA
,,,,,,,,,Pascal,001,2024-06-20_13h35.00.003,empathy_intonation_perc,2024.1.4,Win32,60.0240096,,,,,,,,,,,,,,143,hurcos,,,,,,114.446,115.745,1,0,0.764,,0,18,18,142,1,pseudoword,0,REAL,FALSA
,,,,,,,,,Pascal,001,2024-06-20_13h35.00.003,empathy_intonation_perc,2024.1.4,Win32,60.0240096,,,,,,,,,,,,,,167,dobbo,,,,,,115.746,117.227,0,1,0.947,,0,19,19,166,1,pseudoword,0,REAL,FALSA
,,,,,,,,,Pascal,001,2024-06-20_13h35.00.003,empathy_intonation_perc,2024.1.4,Win32,60.0240096,,,,,,,,,,,,,,150,cricó,,,,,,117.227,120.094,1,0,2.346,,0,20,20,149,1,pseudoword,0,REAL,FALSA
,,,,,,,,,Pascal,001,2024-06-20_13h35.00.003,empathy_intonation_perc,2024.1.4,Win32,60.0240096,,,,,,,,,,,,,,188,amplir,,,,,,120.096,123.327,0,1,2.696,,0,21,21,187,1,pseudoword,0,REAL,FALSA
,,,,,,,,,Pascal,001,2024-06-20_13h35.00.003,empathy_intonation_perc,2024.1.4,Win32,60.0240096,,,,,,,,,,,,,,9,portal,,,,,,123.328,126.06,1,0,2.197,,0,22,22,8,1,three_way_cognate,1,REAL,FALSA
,,,,,,,,,Pascal,001,2024-06-20_13h35.00.003,empathy_intonation_perc,2024.1.4,Win32,60.0240096,,,,,,,,,,,,,,40,pelvis,,,,,,126.06,127.244,0,1,0.651,,0,23,23,39,1,two_way_cognate,1,REAL,FALSA
,,,,,,,,,Pascal,001,2024-06-20_13h35.00.003,empathy_intonation_perc,2024.1.4,Win32,60.0240096,,,,,,,,,,,,,,49,teñir,,,,,,127.245,128.861,1,0,1.081,,0,24,24,48,1,non_cognate,1,REAL,FALSA
,,,,,,,,,Pascal,001,2024-06-20_13h35.00.003,empathy_intonation_perc,2024.1.4,Win32,60.0240096,,,,,,,,,,,,,,185,aljizo,,,,,,128.861,131.227,0,1,1.831,,0,25,25,184,1,pseudoword,0,REAL,FALSA
,,,,,,,,,Pascal,001,2024-06-20_13h35.00.003,empathy_intonation_perc,2024.1.4,Win32,60.0240096,,,,,,,,,,,,,,106,diebro,,,,,,131.231,132.96,0,1,1.197,,0,26,26,105,1,pseudoword,0,REAL,FALSA
,,,,,,,,,Pascal,001,2024-06-20_13h35.00.003,empathy_intonation_perc,2024.1.4,Win32,60.0240096,,,,,,,,,,,,,,92,flecha,,,,,,132.961,137.26,1,0,3.765,,0,27,27,91,1,non_cognate,1,REAL,FALSA
,,,,,,,,,Pascal,001,2024-06-20_13h35.00.003,empathy_intonation_perc,2024.1.4,Win32,60.0240096,,,,,,,,,,,,,,35,aurora,,,,,,137.262,139.692,1,0,1.897,,0,28,28,34,1,two_way_cognate,1,REAL,FALSA
,,,,,,,,,Pascal,001,2024-06-20_13h35.00.003,empathy_intonation_perc,2024.1.4,Win32,60.0240096,,,,,,,,,,,,,,144,diroco,,,,,,139.694,141.11,0,1,0.881,,0,29,29,143,1,pseudoword,0,REAL,FALSA
,,,,,,,,,Pascal,001,2024-06-20_13h35.00.003,empathy_intonation_perc,2024.1.4,Win32,60.0240096,,,,,,,,,,,,,,65,guerra,,,,,,141.111,142.393,1,0,0.747,,0,30,30,64,1,non_cognate,1,REAL,FALSA
,,,,,,,,,Pascal,001,2024-06-20_13h35.00.003,empathy_intonation_perc,2024.1.4,Win32,60.0240096,,,,,,,,,,,,,,28,ardor,,,,,,142.397,145.21,1,0,2.282,,0,31,31,27,1,two_way_cognate,1,REAL,FALSA
,,,,,,,,,Pascal,001,2024-06-20_13h35.00.003,empathy_intonation_perc,2024.1.4,Win32,60.0240096,,,,,,,,,,,,,,1,moral,,,,,,145.211,146.392,1,0,0.647,,0,32,32,0,1,three_way_cognate,1,REAL,FALSA
,,,,,,,,,Pascal,001,2024-06-20_13h35.00.003,empathy_intonation_perc,2024.1.4,Win32,60.0240096,,,,,,,,,,,,,,183,edioso,,,,,,146.397,148.459,0,1,1.53,,0,33,33,182,1,pseudoword,0,REAL,FALSA
,,,,,,,,,Pascal,001,2024-06-20_13h35.00.003,empathy_intonation_perc,2024.1.4,Win32,60.0240096,,,,,,,,,,,,,,118,bará,,,,,,148.46,149.978,0,1,0.984,,0,34,34,117,1,pseudoword,0,REAL,FALSA
,,,,,,,,,Pascal,001,2024-06-20_13h35.00.003,empathy_intonation_perc,2024.1.4,Win32,60.0240096,,,,,,,,,,,,,,6,horror,,,,,,149.978,151.177,1,0,0.664,,0,35,35,5,1,three_way_cognate,1,REAL,FALSA
,,,,,,,,,Pascal,001,2024-06-20_13h35.00.003,empathy_intonation_perc,2024.1.4,Win32,60.0240096,,,,,,,,,,,,,,98,martir,,,,,,151.178,153.543,1,0,1.833,,0,36,36,97,1,pseudoword,0,REAL,FALSA
,,,,,,,,,Pascal,001,2024-06-20_13h35.00.003,empathy_intonation_perc,2024.1.4,Win32,60.0240096,,,,,,,,,,,,,,37,torso,,,,,,153.545,154.726,1,0,0.645,,0,37,37,36,1,two_way_cognate,1,REAL,FALSA
,,,,,,,,,Pascal,001,2024-06-20_13h35.00.003,empathy_intonation_perc,2024.1.4,Win32,60.0240096,,,,,,,,,,,,,,114,dibrea,,,,,,154.727,156.009,0,1,0.75,,0,38,38,113,1,pseudoword,0,REAL,FALSA
,,,,,,,,,Pascal,001,2024-06-20_13h35.00.003,empathy_intonation_perc,2024.1.4,Win32,60.0240096,,,,,,,,,,,,,,29,clamor,,,,,,156.01,157.192,1,0,0.649,,0,39,39,28,1,two_way_cognate,1,REAL,FALSA
,,,,,,,,,Pascal,001,2024-06-20_13h35.00.003,empathy_intonation_perc,2024.1.4,Win32,60.0240096,,,,,,,,,,,,,,179,suelet,,,,,,157.193,158.392,0,1,0.665,,0,40,40,178,1,pseudoword,0,REAL,FALSA
,,,,,,,,,Pascal,001,2024-06-20_13h35.00.003,empathy_intonation_perc,2024.1.4,Win32,60.0240096,,,,,,,,,,,,,,72,rostro,,,,,,158.392,159.659,1,0,0.731,,0,41,41,71,1,non_cognate,1,REAL,FALSA
,,,,,,,,,Pascal,001,2024-06-20_13h35.00.003,empathy_intonation_perc,2024.1.4,Win32,60.0240096,,,,,,,,,,,,,,51,listo,,,,,,159.66,160.809,1,0,0.617,,0,42,42,50,1,non_cognate,1,REAL,FALSA
,,,,,,,,,Pascal,001,2024-06-20_13h35.00.003,empathy_intonation_perc,2024.1.4,Win32,60.0240096,,,,,,,,,,,,,,74,ala,,,,,,160.809,161.86,1,0,0.519,,0,43,43,73,1,non_cognate,1,REAL,FALSA
,,,,,,,,,Pascal,001,2024-06-20_13h35.00.003,empathy_intonation_perc,2024.1.4,Win32,60.0240096,,,,,,,,,,,,,,148,gino,,,,,,161.861,164.893,0,1,2.499,,0,44,44,147,1,pseudoword,0,REAL,FALSA
,,,,,,,,,Pascal,001,2024-06-20_13h35.00.003,empathy_intonation_perc,2024.1.4,Win32,60.0240096,,,,,,,,,,,,,,88,percha,,,,,,164.897,167.842,1,0,2.419,,0,45,45,87,1,non_cognate,1,REAL,FALSA
,,,,,,,,,Pascal,001,2024-06-20_13h35.00.003,empathy_intonation_perc,2024.1.4,Win32,60.0240096,,,,,,,,,,,,,,112,samón,,,,,,167.843,169.209,0,1,0.834,,0,46,46,111,1,pseudoword,0,REAL,FALSA
,,,,,,,,,Pascal,001,2024-06-20_13h35.00.003,empathy_intonation_perc,2024.1.4,Win32,60.0240096,,,,,,,,,,,,,,192,próces,,,,,,169.209,172.307,0,1,2.561,,0,47,47,191,1,pseudoword,0,REAL,FALSA
,,,,,,,,,Pascal,001,2024-06-20_13h35.00.003,empathy_intonation_perc,2024.1.4,Win32,60.0240096,,,,,,,,,,,,,,99,bugor,,,,,,172.309,173.778,0,1,0.936,,0,48,48,98,1,pseudoword,0,REAL,FALSA
,,,,,,,,,Pascal,001,2024-06-20_13h35.00.003,empathy_intonation_perc,2024.1.4,Win32,60.0240096,,,,,,,,,,,,,,124,lobe,,,,,,173.779,174.991,0,1,0.681,,0,49,49,123,1,pseudoword,0,REAL,FALSA
,,,,,,,,,Pascal,001,2024-06-20_13h35.00.003,empathy_intonation_perc,2024.1.4,Win32,60.0240096,,,,,,,,,,,,,,105,leniz,,,,,,174.992,176.357,0,1,0.829,,0,50,50,104,1,pseudoword,0,REAL,FALSA
,,,,,,,,,Pascal,001,2024-06-20_13h35.00.003,empathy_intonation_perc,2024.1.4,Win32,60.0240096,,,,,,,,,,,,,,31,civil,,,,,,176.358,177.79,1,0,0.898,,0,51,51,30,1,two_way_cognate,1,REAL,FALSA
,,,,,,,,,Pascal,001,2024-06-20_13h35.00.003,empathy_intonation_perc,2024.1.4,Win32,60.0240096,,,,,,,,,,,,,,42,rumor,,,,,,177.791,180.907,1,0,2.582,,0,52,52,41,1,two_way_cognate,1,REAL,FALSA
,,,,,,,,,Pascal,001,2024-06-20_13h35.00.003,empathy_intonation_perc,2024.1.4,Win32,60.0240096,,,,,,,,,,,,,,71,torta,,,,,,180.908,190.156,1,0,8.713,,0,53,53,70,1,non_cognate,1,REAL,FALSA
,,,,,,,,,Pascal,001,2024-06-20_13h35.00.003,empathy_intonation_perc,2024.1.4,Win32,60.0240096,,,,,,,,,,,,,,19,mafia,,,,,,190.158,194.34,1,0,3.647,,0,54,54,18,1,three_way_cognate,1,REAL,FALSA
,,,,,,,,,Pascal,001,2024-06-20_13h35.00.003,empathy_intonation_perc,2024.1.4,Win32,60.0240096,,,,,,,,,,,,,,141,virios,,,,,,194.341,195.741,0,1,0.871,,0,55,55,140,1,pseudoword,0,REAL,FALSA
,,,,,,,,,Pascal,001,2024-06-20_13h35.00.003,empathy_intonation_perc,2024.1.4,Win32,60.0240096,,,,,,,,,,,,,,78,rendir,,,,,,195.745,196.907,1,0,0.629,,0,56,56,77,1,non_cognate,1,REAL,FALSA
,,,,,,,,,Pascal,001,2024-06-20_13h35.00.003,empathy_intonation_perc,2024.1.4,Win32,60.0240096,,,,,,,,,,,,,,178,inichó,,,,,,196.908,199.473,0,1,2.029,,0,57,57,177,1,pseudoword,0,REAL,FALSA
,,,,,,,,,Pascal,001,2024-06-20_13h35.00.003,empathy_intonation_perc,2024.1.4,Win32,60.0240096,,,,,,,,,,,,,,82,brillo,,,,,,199.474,200.806,1,0,0.795,,0,58,58,81,1,non_cognate,1,REAL,FALSA
,,,,,,,,,Pascal,001,2024-06-20_13h35.00.003,empathy_intonation_perc,2024.1.4,Win32,60.0240096,,,,,,,,,,,,,,86,cuenco,,,,,,200.807,202.289,1,0,0.945,,0,59,59,85,1,non_cognate,1,REAL,FALSA
,,,,,,,,,Pascal,001,2024-06-20_13h35.00.003,empathy_intonation_perc,2024.1.4,Win32,60.0240096,,,,,,,,,,,,,,46,mortal,,,,,,202.293,203.706,1,0,0.88,,0,60,60,45,1,two_way_cognate,1,REAL,FALSA
,,,,,,,,,Pascal,001,2024-06-20_13h35.00.003,empathy_intonation_perc,2024.1.4,Win32,60.0240096,,,,,,,,,,,,,,149,emén,,,,,,203.707,205.422,0,1,1.18,,0,61,61,148,1,pseudoword,0,REAL,FALSA
,,,,,,,,,Pascal,001,2024-06-20_13h35.00.003,empathy_intonation_perc,2024.1.4,Win32,60.0240096,,,,,,,,,,,,,,22,mango,,,,,,205.424,206.789,1,0,0.832,,0,62,62,21,1,three_way_cognate,1,REAL,FALSA
,,,,,,,,,Pascal,001,2024-06-20_13h35.00.003,empathy_intonation_perc,2024.1.4,Win32,60.0240096,,,,,,,,,,,,,,132,nocó,,,,,,206.79,208.056,0,1,0.729,,0,63,63,131,1,pseudoword,0,REAL,FALSA
,,,,,,,,,Pascal,001,2024-06-20_13h35.00.003,empathy_intonation_perc,2024.1.4,Win32,60.0240096,,,,,,,,,,,,,,16,chat,,,,,,208.057,210.357,1,0,1.768,,0,64,64,15,1,three_way_cognate,1,REAL,FALSA
,,,,,,,,,Pascal,001,2024-06-20_13h35.00.003,empathy_intonation_perc,2024.1.4,Win32,60.0240096,,,,,,,,,,,,,,47,color,,,,,,210.357,211.507,1,0,0.618,,0,65,65,46,1,two_way_cognate,1,REAL,FALSA
,,,,,,,,,Pascal,001,2024-06-20_13h35.00.003,empathy_intonation_perc,2024.1.4,Win32,60.0240096,,,,,,,,,,,,,,85,enorme,,,,,,211.508,212.756,1,0,0.713,,0,66,66,84,1,non_cognate,1,REAL,FALSA
,,,,,,,,,Pascal,001,2024-06-20_13h35.00.003,empathy_intonation_perc,2024.1.4,Win32,60.0240096,,,,,,,,,,,,,,91,equipo,,,,,,212.757,213.907,1,0,0.619,,0,67,67,90,1,non_cognate,1,REAL,FALSA
,,,,,,,,,Pascal,001,2024-06-20_13h35.00.003,empathy_intonation_perc,2024.1.4,Win32,60.0240096,,,,,,,,,,,,,,161,civas,,,,,,213.908,215.306,0,1,0.863,,0,68,68,160,1,pseudoword,0,REAL,FALSA
,,,,,,,,,Pascal,001,2024-06-20_13h35.00.003,empathy_intonation_perc,2024.1.4,Win32,60.0240096,,,,,,,,,,,,,,66,aleta,,,,,,215.307,218.889,0,1,3.047,,0,69,69,65,1,non_cognate,1,REAL,FALSA
,,,,,,,,,Pascal,001,2024-06-20_13h35.00.003,empathy_intonation_perc,2024.1.4,Win32,60.0240096,,,,,,,,,,,,,,142,parre,,,,,,218.889,220.789,0,1,1.365,,0,70,70,141,1,pseudoword,0,REAL,FALSA
,,,,,,,,,Pascal,001,2024-06-20_13h35.00.003,empathy_intonation_perc,2024.1.4,Win32,60.0240096,,,,,,,,,,,,,,122,boñaz,,,,,,220.79,222.121,0,1,0.793,,0,71,71,121,1,pseudoword,0,REAL,FALSA
,,,,,,,,,Pascal,001,2024-06-20_13h35.00.003,empathy_intonation_perc,2024.1.4,Win32,60.0240096,,,,,,,,,,,,,,116,grigir,,,,,,222.122,228.605,0,1,5.966,,0,72,72,115,1,pseudoword,0,REAL,FALSA
,,,,,,,,,Pascal,001,2024-06-20_13h35.00.003,empathy_intonation_perc,2024.1.4,Win32,60.0240096,,,,,,,,,,,,,,128,pelí,,,,,,228.608,230.337,0,1,1.197,,0,73,73,127,1,pseudoword,0,REAL,FALSA
,,,,,,,,,Pascal,001,2024-06-20_13h35.00.003,empathy_intonation_perc,2024.1.4,Win32,60.0240096,,,,,,,,,,,,,,136,hueas,,,,,,230.338,234.354,0,1,3.488,,0,74,74,135,1,pseudoword,0,REAL,FALSA
,,,,,,,,,Pascal,001,2024-06-20_13h35.00.003,empathy_intonation_perc,2024.1.4,Win32,60.0240096,,,,,,,,,,,,,,165,chote,,,,,,234.355,235.837,0,1,0.948,,0,75,75,164,1,pseudoword,0,REAL,FALSA
,,,,,,,,,Pascal,001,2024-06-20_13h35.00.003,empathy_intonation_perc,2024.1.4,Win32,60.0240096,,,,,,,,,,,,,,138,tator,,,,,,235.837,237.07,0,1,0.699,,0,76,76,137,1,pseudoword,0,REAL,FALSA
,,,,,,,,,Pascal,001,2024-06-20_13h35.00.003,empathy_intonation_perc,2024.1.4,Win32,60.0240096,,,,,,,,,,,,,,27,piano,,,,,,237.071,238.554,1,0,0.948,,0,77,77,26,1,two_way_cognate,1,REAL,FALSA
,,,,,,,,,Pascal,001,2024-06-20_13h35.00.003,empathy_intonation_perc,2024.1.4,Win32,60.0240096,,,,,,,,,,,,,,187,nomata,,,,,,238.555,240.037,0,1,0.948,,0,78,78,186,1,pseudoword,0,REAL,FALSA
,,,,,,,,,Pascal,001,2024-06-20_13h35.00.003,empathy_intonation_perc,2024.1.4,Win32,60.0240096,,,,,,,,,,,,,,20,trauma,,,,,,240.037,241.57,1,0,1,,0,79,79,19,1,three_way_cognate,1,REAL,FALSA
,,,,,,,,,Pascal,001,2024-06-20_13h35.00.003,empathy_intonation_perc,2024.1.4,Win32,60.0240096,,,,,,,,,,,,,,189,medium,,,,,,241.571,243.253,1,0,1.149,,0,80,80,188,1,pseudoword,0,REAL,FALSA
,,,,,,,,,Pascal,001,2024-06-20_13h35.00.003,empathy_intonation_perc,2024.1.4,Win32,60.0240096,,,,,,,,,,,,,,157,seled,,,,,,243.255,248.586,0,1,4.799,,0,81,81,156,1,pseudoword,0,REAL,FALSA
,,,,,,,,,Pascal,001,2024-06-20_13h35.00.003,empathy_intonation_perc,2024.1.4,Win32,60.0240096,,,,,,,,,,,,,,77,suave,,,,,,248.587,249.869,1,0,0.75,,0,82,82,76,1,non_cognate,1,REAL,FALSA
,,,,,,,,,Pascal,001,2024-06-20_13h35.00.003,empathy_intonation_perc,2024.1.4,Win32,60.0240096,,,,,,,,,,,,,,171,gotro,,,,,,249.87,251.202,0,1,0.799,,0,83,83,170,1,pseudoword,0,REAL,FALSA
,,,,,,,,,Pascal,001,2024-06-20_13h35.00.003,empathy_intonation_perc,2024.1.4,Win32,60.0240096,,,,,,,,,,,,,,135,panté,,,,,,251.204,253.736,0,1,2.002,,0,84,84,134,1,pseudoword,0,REAL,FALSA
,,,,,,,,,Pascal,001,2024-06-20_13h35.00.003,empathy_intonation_perc,2024.1.4,Win32,60.0240096,,,,,,,,,,,,,,96,caro,,,,,,253.736,255.053,1,0,0.799,,0,85,85,95,1,non_cognate,1,REAL,FALSA
,,,,,,,,,Pascal,001,2024-06-20_13h35.00.003,empathy_intonation_perc,2024.1.4,Win32,60.0240096,,,,,,,,,,,,,,7,albino,,,,,,255.053,256.819,1,0,1.234,,0,86,86,6,1,three_way_cognate,1,REAL,FALSA
,,,,,,,,,Pascal,001,2024-06-20_13h35.00.003,empathy_intonation_perc,2024.1.4,Win32,60.0240096,,,,,,,,,,,,,,109,laras,,,,,,256.82,259.086,0,1,1.732,,0,87,87,108,1,pseudoword,0,REAL,FALSA
,,,,,,,,,Pascal,001,2024-06-20_13h35.00.003,empathy_intonation_perc,2024.1.4,Win32,60.0240096,,,,,,,,,,,,,,162,cengo,,,,,,259.088,260.452,0,1,0.836,,0,88,88,161,1,pseudoword,0,REAL,FALSA
,,,,,,,,,Pascal,001,2024-06-20_13h35.00.003,empathy_intonation_perc,2024.1.4,Win32,60.0240096,,,,,,,,,,,,,,125,ceme,,,,,,260.453,261.785,0,1,0.802,,0,89,89,124,1,pseudoword,0,REAL,FALSA
,,,,,,,,,Pascal,001,2024-06-20_13h35.00.003,empathy_intonation_perc,2024.1.4,Win32,60.0240096,,,,,,,,,,,,,,8,kilo,,,,,,261.786,263.353,1,0,1.032,,0,90,90,7,1,three_way_cognate,1,REAL,FALSA
,,,,,,,,,Pascal,001,2024-06-20_13h35.00.003,empathy_intonation_perc,2024.1.4,Win32,60.0240096,,,,,,,,,,,,,,169,pitis,,,,,,263.353,264.669,0,1,0.786,,0,91,91,168,1,pseudoword,0,REAL,FALSA
,,,,,,,,,Pascal,001,2024-06-20_13h35.00.003,empathy_intonation_perc,2024.1.4,Win32,60.0240096,,,,,,,,,,,,,,43,honor,,,,,,264.67,265.886,1,0,0.682,,0,92,92,42,1,two_way_cognate,1,REAL,FALSA
,,,,,,,,,Pascal,001,2024-06-20_13h35.00.003,empathy_intonation_perc,2024.1.4,Win32,60.0240096,,,,,,,,,,,,,,127,vien,,,,,,265.886,268.418,0,1,2.02,,0,93,93,126,1,pseudoword,0,REAL,FALSA
,,,,,,,,,Pascal,001,2024-06-20_13h35.00.003,empathy_intonation_perc,2024.1.4,Win32,60.0240096,,,,,,,,,,,,,,168,cobén,,,,,,268.419,270.302,0,1,1.351,,0,94,94,167,1,pseudoword,0,REAL,FALSA
,,,,,,,,,Pascal,001,2024-06-20_13h35.00.003,empathy_intonation_perc,2024.1.4,Win32,60.0240096,,,,,,,,,,,,,,160,fomeó,,,,,,270.303,273.701,0,1,2.868,,0,95,95,159,1,pseudoword,0,REAL,FALSA
,,,,,,,,,Pascal,001,2024-06-20_13h35.00.003,empathy_intonation_perc,2024.1.4,Win32,60.0240096,,,,,,,,,,,,,,68,puñal,,,,,,273.702,275.069,1,0,0.837,,0,96,96,67,1,non_cognate,1,REAL,FALSA
,,,,,,,,,Pascal,001,2024-06-20_13h35.00.003,empathy_intonation_perc,2024.1.4,Win32,60.0240096,,,,,,,,,,,,,,81,sacar,,,,,,275.069,276.268,1,0,0.665,,0,97,97,80,1,non_cognate,1,REAL,FALSA
,,,,,,,,,Pascal,001,2024-06-20_13h35.00.003,empathy_intonation_perc,2024.1.4,Win32,60.0240096,,,,,,,,,,,,,,84,aviso,,,,,,276.269,277.418,1,0,0.614,,0,98,98,83,1,non_cognate,1,REAL,FALSA
,,,,,,,,,Pascal,001,2024-06-20_13h35.00.003,empathy_intonation_perc,2024.1.4,Win32,60.0240096,,,,,,,,,,,,,,94,forro,,,,,,277.418,279.002,0,1,1.065,,0,99,99,93,1,non_cognate,1,REAL,FALSA
,,,,,,,,,Pascal,001,2024-06-20_13h35.00.003,empathy_intonation_perc,2024.1.4,Win32,60.0240096,,,,,,,,,,,,,,58,colcha,,,,,,279.002,286.418,0,1,6.89,,0,100,100,57,1,non_cognate,1,REAL,FALSA
,,,,,,,,,Pascal,001,2024-06-20_13h35.00.003,empathy_intonation_perc,2024.1.4,Win32,60.0240096,,,,,,,,,,,,,,100,épinas,,,,,,286.419,288.101,0,1,1.148,,0,101,101,99,1,pseudoword,0,REAL,FALSA
,,,,,,,,,Pascal,001,2024-06-20_13h35.00.003,empathy_intonation_perc,2024.1.4,Win32,60.0240096,,,,,,,,,,,,,,48,pelvis,,,,,,288.102,289.451,1,0,0.815,,0,102,102,47,1,two_way_cognate,1,REAL,FALSA
,,,,,,,,,Pascal,001,2024-06-20_13h35.00.003,empathy_intonation_perc,2024.1.4,Win32,60.0240096,,,,,,,,,,,,,,137,trugo,,,,,,289.451,290.801,0,1,0.815,,0,103,103,136,1,pseudoword,0,REAL,FALSA
,,,,,,,,,Pascal,001,2024-06-20_13h35.00.003,empathy_intonation_perc,2024.1.4,Win32,60.0240096,,,,,,,,,,,,,,30,fiscal,,,,,,290.802,292.002,1,0,0.666,,0,104,104,29,1,two_way_cognate,1,REAL,FALSA
,,,,,,,,,Pascal,001,2024-06-20_13h35.00.003,empathy_intonation_perc,2024.1.4,Win32,60.0240096,,,,,,,,,,,,,,26,enigma,,,,,,292.005,293.334,1,0,0.801,,0,105,105,25,1,two_way_cognate,1,REAL,FALSA
,,,,,,,,,Pascal,001,2024-06-20_13h35.00.003,empathy_intonation_perc,2024.1.4,Win32,60.0240096,,,,,,,,,,,,,,140,chorde,,,,,,293.335,294.568,0,1,0.702,,0,106,106,139,1,pseudoword,0,REAL,FALSA
,,,,,,,,,Pascal,001,2024-06-20_13h35.00.003,empathy_intonation_perc,2024.1.4,Win32,60.0240096,,,,,,,,,,,,,,25,vigor,,,,,,294.568,295.767,1,0,0.664,,0,107,107,24,1,two_way_cognate,1,REAL,FALSA
,,,,,,,,,Pascal,001,2024-06-20_13h35.00.003,empathy_intonation_perc,2024.1.4,Win32,60.0240096,,,,,,,,,,,,,,102,coyo,,,,,,295.768,297.084,0,1,0.784,,0,108,108,101,1,pseudoword,0,REAL,FALSA
,,,,,,,,,Pascal,001,2024-06-20_13h35.00.003,empathy_intonation_perc,2024.1.4,Win32,60.0240096,,,,,,,,,,,,,,14,aura,,,,,,297.085,298.535,1,0,0.921,,0,109,109,13,1,three_way_cognate,1,REAL,FALSA
,,,,,,,,,Pascal,001,2024-06-20_13h35.00.003,empathy_intonation_perc,2024.1.4,Win32,60.0240096,,,,,,,,,,,,,,158,babrá,,,,,,298.535,299.784,0,1,0.716,,0,110,110,157,1,pseudoword,0,REAL,FALSA
,,,,,,,,,Pascal,001,2024-06-20_13h35.00.003,empathy_intonation_perc,2024.1.4,Win32,60.0240096,,,,,,,,,,,,,,126,tobre,,,,,,299.784,301.384,0,1,1.083,,0,111,111,125,1,pseudoword,0,REAL,FALSA
,,,,,,,,,Pascal,001,2024-06-20_13h35.00.003,empathy_intonation_perc,2024.1.4,Win32,60.0240096,,,,,,,,,,,,,,104,estulo,,,,,,301.385,302.867,0,1,0.947,,0,112,112,103,1,pseudoword,0,REAL,FALSA
,,,,,,,,,Pascal,001,2024-06-20_13h35.00.003,empathy_intonation_perc,2024.1.4,Win32,60.0240096,,,,,,,,,,,,,,103,vueras,,,,,,302.868,304.15,0,1,0.749,,0,113,113,102,1,pseudoword,0,REAL,FALSA
,,,,,,,,,Pascal,001,2024-06-20_13h35.00.003,empathy_intonation_perc,2024.1.4,Win32,60.0240096,,,,,,,,,,,,,,181,gravés,,,,,,304.151,305.133,0,1,0.449,,0,114,114,180,1,pseudoword,0,REAL,FALSA
,,,,,,,,,Pascal,001,2024-06-20_13h35.00.003,empathy_intonation_perc,2024.1.4,Win32,60.0240096,,,,,,,,,,,,,,133,conso,,,,,,305.135,306.367,0,1,0.698,,0,115,115,132,1,pseudoword,0,REAL,FALSA
,,,,,,,,,Pascal,001,2024-06-20_13h35.00.003,empathy_intonation_perc,2024.1.4,Win32,60.0240096,,,,,,,,,,,,,,24,retina,,,,,,306.367,307.35,0,1,0.455,,0,116,116,23,1,three_way_cognate,1,REAL,FALSA
,,,,,,,,,Pascal,001,2024-06-20_13h35.00.003,empathy_intonation_perc,2024.1.4,Win32,60.0240096,,,,,,,,,,,,,,119,esís,,,,,,307.351,308.616,0,1,0.732,,0,117,117,118,1,pseudoword,0,REAL,FALSA
,,,,,,,,,Pascal,001,2024-06-20_13h35.00.003,empathy_intonation_perc,2024.1.4,Win32,60.0240096,,,,,,,,,,,,,,155,kugis,,,,,,308.617,309.783,0,1,0.636,,0,118,118,154,1,pseudoword,0,REAL,FALSA
,,,,,,,,,Pascal,001,2024-06-20_13h35.00.003,empathy_intonation_perc,2024.1.4,Win32,60.0240096,,,,,,,,,,,,,,2,tumor,,,,,,309.783,310.866,0,1,0.572,,0,119,119,1,1,three_way_cognate,1,REAL,FALSA
,,,,,,,,,Pascal,001,2024-06-20_13h35.00.003,empathy_intonation_perc,2024.1.4,Win32,60.0240096,,,,,,,,,,,,,,69,tiza,,,,,,310.867,317.683,1,0,6.288,,0,120,120,68,1,non_cognate,1,REAL,FALSA
,,,,,,,,,Pascal,001,2024-06-20_13h35.00.003,empathy_intonation_perc,2024.1.4,Win32,60.0240096,,,,,,,,,,,,,,170,diabo,,,,,,317.684,319.066,0,1,0.847,,0,121,121,169,1,pseudoword,0,REAL,FALSA
,,,,,,,,,Pascal,001,2024-06-20_13h35.00.003,empathy_intonation_perc,2024.1.4,Win32,60.0240096,,,,,,,,,,,,,,52,blando,,,,,,319.066,320.716,1,0,1.132,,0,122,122,51,1,non_cognate,1,REAL,FALSA
,,,,,,,,,Pascal,001,2024-06-20_13h35.00.003,empathy_intonation_perc,2024.1.4,Win32,60.0240096,,,,,,,,,,,,,,107,plago,,,,,,320.716,328.533,0,1,7.283,,0,123,123,106,1,pseudoword,0,REAL,FALSA
,,,,,,,,,Pascal,001,2024-06-20_13h35.00.003,empathy_intonation_perc,2024.1.4,Win32,60.0240096,,,,,,,,,,,,,,182,desaro,,,,,,328.536,329.932,0,1,0.865,,0,124,124,181,1,pseudoword,0,REAL,FALSA
,,,,,,,,,Pascal,001,2024-06-20_13h35.00.003,empathy_intonation_perc,2024.1.4,Win32,60.0240096,,,,,,,,,,,,,,191,frasis,,,,,,329.933,331.132,0,1,0.668,,0,125,125,190,1,pseudoword,0,REAL,FALSA
,,,,,,,,,Pascal,001,2024-06-20_13h35.00.003,empathy_intonation_perc,2024.1.4,Win32,60.0240096,,,,,,,,,,,,,,154,harvé,,,,,,331.133,333.782,0,1,2.113,,0,126,126,153,1,pseudoword,0,REAL,FALSA
,,,,,,,,,Pascal,001,2024-06-20_13h35.00.003,empathy_intonation_perc,2024.1.4,Win32,60.0240096,,,,,,,,,,,,,,45,total,,,,,,333.783,335.032,1,0,0.715,,0,127,127,44,1,two_way_cognate,1,REAL,FALSA
,,,,,,,,,Pascal,001,2024-06-20_13h35.00.003,empathy_intonation_perc,2024.1.4,Win32,60.0240096,,,,,,,,,,,,,,79,suelo,,,,,,335.033,336.215,0,1,0.648,,0,128,128,78,1,non_cognate,1,REAL,FALSA
,,,,,,,,,Pascal,001,2024-06-20_13h35.00.003,empathy_intonation_perc,2024.1.4,Win32,60.0240096,,,,,,,,,,,,,,61,aduana,,,,,,336.216,338.015,1,0,1.265,,0,129,129,60,1,non_cognate,1,REAL,FALSA
,,,,,,,,,Pascal,001,2024-06-20_13h35.00.003,empathy_intonation_perc,2024.1.4,Win32,60.0240096,,,,,,,,,,,,,,50,sierra,,,,,,338.016,339.298,1,0,0.747,,0,130,130,49,1,non_cognate,1,REAL,FALSA
,,,,,,,,,Pascal,001,2024-06-20_13h35.00.003,empathy_intonation_perc,2024.1.4,Win32,60.0240096,,,,,,,,,,,,,,23,plural,,,,,,339.299,340.316,1,0,0.484,,0,131,131,22,1,three_way_cognate,1,REAL,FALSA
,,,,,,,,,Pascal,001,2024-06-20_13h35.00.003,empathy_intonation_perc,2024.1.4,Win32,60.0240096,,,,,,,,,,,,,,120,mauja,,,,,,340.316,341.632,0,1,0.783,,0,132,132,119,1,pseudoword,0,REAL,FALSA
,,,,,,,,,Pascal,001,2024-06-20_13h35.00.003,empathy_intonation_perc,2024.1.4,Win32,60.0240096,,,,,,,,,,,,,,110,densó,,,,,,341.633,348.749,0,1,6.583,,0,133,133,109,1,pseudoword,0,REAL,FALSA
,,,,,,,,,Pascal,001,2024-06-20_13h35.00.003,empathy_intonation_perc,2024.1.4,Win32,60.0240096,,,,,,,,,,,,,,113,nasce,,,,,,348.75,351.298,0,1,2.013,,0,134,134,112,1,pseudoword,0,REAL,FALSA
,,,,,,,,,Pascal,001,2024-06-20_13h35.00.003,empathy_intonation_perc,2024.1.4,Win32,60.0240096,,,,,,,,,,,,,,131,fuar,,,,,,351.298,352.681,0,1,0.866,,0,135,135,130,1,pseudoword,0,REAL,FALSA
,,,,,,,,,Pascal,001,2024-06-20_13h35.00.003,empathy_intonation_perc,2024.1.4,Win32,60.0240096,,,,,,,,,,,,,,80,cuenco,,,,,,352.681,354.115,1,0,0.916,,0,136,136,79,1,non_cognate,1,REAL,FALSA
,,,,,,,,,Pascal,001,2024-06-20_13h35.00.003,empathy_intonation_perc,2024.1.4,Win32,60.0240096,,,,,,,,,,,,,,44,editor,,,,,,354.116,355.297,1,0,0.649,,0,137,137,43,1,two_way_cognate,1,REAL,FALSA
,,,,,,,,,Pascal,001,2024-06-20_13h35.00.003,empathy_intonation_perc,2024.1.4,Win32,60.0240096,,,,,,,,,,,,,,123,arane,,,,,,355.297,356.416,0,1,0.599,,0,138,138,122,1,pseudoword,0,REAL,FALSA
,,,,,,,,,Pascal,001,2024-06-20_13h35.00.003,empathy_intonation_perc,2024.1.4,Win32,60.0240096,,,,,,,,,,,,,,156,ozoso,,,,,,356.418,357.815,0,1,0.863,,0,139,139,155,1,pseudoword,0,REAL,FALSA
,,,,,,,,,Pascal,001,2024-06-20_13h35.00.003,empathy_intonation_perc,2024.1.4,Win32,60.0240096,,,,,,,,,,,,,,4,flora,,,,,,357.815,361.381,0,1,3.036,,0,140,140,3,1,three_way_cognate,1,REAL,FALSA
,,,,,,,,,Pascal,001,2024-06-20_13h35.00.003,empathy_intonation_perc,2024.1.4,Win32,60.0240096,,,,,,,,,,,,,,129,vinzó,,,,,,361.381,364.064,0,1,2.165,,0,141,141,128,1,pseudoword,0,REAL,FALSA
,,,,,,,,,Pascal,001,2024-06-20_13h35.00.003,empathy_intonation_perc,2024.1.4,Win32,60.0240096,,,,,,,,,,,,,,57,regalo,,,,,,364.064,365.28,1,0,0.7,,0,142,142,56,1,non_cognate,1,REAL,FALSA
,,,,,,,,,Pascal,001,2024-06-20_13h35.00.003,empathy_intonation_perc,2024.1.4,Win32,60.0240096,,,,,,,,,,,,,,166,anfia,,,,,,365.281,366.747,0,1,0.936,,0,143,143,165,1,pseudoword,0,REAL,FALSA
,,,,,,,,,Pascal,001,2024-06-20_13h35.00.003,empathy_intonation_perc,2024.1.4,Win32,60.0240096,,,,,,,,,,,,,,180,pupica,,,,,,366.748,368.097,0,1,0.81,,0,144,144,179,1,pseudoword,0,REAL,FALSA
,,,,,,,,,Pascal,001,2024-06-20_13h35.00.003,empathy_intonation_perc,2024.1.4,Win32,60.0240096,,,,,,,,,,,,,,62,pegar,,,,,,368.098,369.481,1,0,0.846,,0,145,145,61,1,non_cognate,1,REAL,FALSA
,,,,,,,,,Pascal,001,2024-06-20_13h35.00.003,empathy_intonation_perc,2024.1.4,Win32,60.0240096,,,,,,,,,,,,,,83,hálito,,,,,,369.482,371.031,0,1,1.014,,0,146,146,82,1,non_cognate,1,REAL,FALSA
,,,,,,,,,Pascal,001,2024-06-20_13h35.00.003,empathy_intonation_perc,2024.1.4,Win32,60.0240096,,,,,,,,,,,,,,173,mibro,,,,,,371.032,372.181,0,1,0.615,,0,147,147,172,1,pseudoword,0,REAL,FALSA
,,,,,,,,,Pascal,001,2024-06-20_13h35.00.003,empathy_intonation_perc,2024.1.4,Win32,60.0240096,,,,,,,,,,,,,,108,jauda,,,,,,372.182,373.734,0,1,1.021,,0,148,148,107,1,pseudoword,0,REAL,FALSA
,,,,,,,,,Pascal,001,2024-06-20_13h35.00.003,empathy_intonation_perc,2024.1.4,Win32,60.0240096,,,,,,,,,,,,,,55,maldad,,,,,,373.735,375.047,1,0,0.781,,0,149,149,54,1,non_cognate,1,REAL,FALSA
,,,,,,,,,Pascal,001,2024-06-20_13h35.00.003,empathy_intonation_perc,2024.1.4,Win32,60.0240096,,,,,,,,,,,,,,121,barbs,,,,,,375.047,376.33,0,1,0.746,,0,150,150,120,1,pseudoword,0,REAL,FALSA
,,,,,,,,,Pascal,001,2024-06-20_13h35.00.003,empathy_intonation_perc,2024.1.4,Win32,60.0240096,,,,,,,,,,,,,,90,venado,,,,,,376.331,379.197,1,0,2.332,,0,151,151,89,1,non_cognate,1,REAL,FALSA
,,,,,,,,,Pascal,001,2024-06-20_13h35.00.003,empathy_intonation_perc,2024.1.4,Win32,60.0240096,,,,,,,,,,,,,,18,altar,,,,,,379.198,381.196,1,0,1.464,,0,152,152,17,1,three_way_cognate,1,REAL,FALSA
,,,,,,,,,Pascal,001,2024-06-20_13h35.00.003,empathy_intonation_perc,2024.1.4,Win32,60.0240096,,,,,,,,,,,,,,76,chocar,,,,,,381.197,382.663,1,0,0.931,,0,153,153,75,1,non_cognate,1,REAL,FALSA
,,,,,,,,,Pascal,001,2024-06-20_13h35.00.003,empathy_intonation_perc,2024.1.4,Win32,60.0240096,,,,,,,,,,,,,,184,huenos,,,,,,382.664,383.696,1,0,0.499,,0,154,154,183,1,pseudoword,0,REAL,FALSA
,,,,,,,,,Pascal,001,2024-06-20_13h35.00.003,empathy_intonation_perc,2024.1.4,Win32,60.0240096,,,,,,,,,,,,,,12,dogma,,,,,,383.697,385.53,1,0,1.298,,0,155,155,11,1,three_way_cognate,1,REAL,FALSA
,,,,,,,,,Pascal,001,2024-06-20_13h35.00.003,empathy_intonation_perc,2024.1.4,Win32,60.0240096,,,,,,,,,,,,,,87,muleta,,,,,,385.53,387.646,1,0,1.598,,0,156,156,86,1,non_cognate,1,REAL,FALSA
,,,,,,,,,Pascal,001,2024-06-20_13h35.00.003,empathy_intonation_perc,2024.1.4,Win32,60.0240096,,,,,,,,,,,,,,147,alla,,,,,,387.647,389.78,1,0,1.599,,0,157,157,146,1,pseudoword,0,REAL,FALSA
,,,,,,,,,Pascal,001,2024-06-20_13h35.00.003,empathy_intonation_perc,2024.1.4,Win32,60.0240096,,,,,,,,,,,,,,17,clan,,,,,,389.78,391.163,1,0,0.848,,0,158,158,16,1,three_way_cognate,1,REAL,FALSA
,,,,,,,,,Pascal,001,2024-06-20_13h35.00.003,empathy_intonation_perc,2024.1.4,Win32,60.0240096,,,,,,,,,,,,,,73,llevar,,,,,,391.163,392.28,1,0,0.594,,0,159,159,72,1,non_cognate,1,REAL,FALSA
,,,,,,,,,Pascal,001,2024-06-20_13h35.00.003,empathy_intonation_perc,2024.1.4,Win32,60.0240096,,,,,,,,,,,,,,139,sasos,,,,,,392.283,393.547,0,1,0.734,,0,160,160,138,1,pseudoword,0,REAL,FALSA
,,,,,,,,,Pascal,001,2024-06-20_13h35.00.003,empathy_intonation_perc,2024.1.4,Win32,60.0240096,,,,,,,,,,,,,,174,pabea,,,,,,393.548,394.896,0,1,0.816,,0,161,161,173,1,pseudoword,0,REAL,FALSA
,,,,,,,,,Pascal,001,2024-06-20_13h35.00.003,empathy_intonation_perc,2024.1.4,Win32,60.0240096,,,,,,,,,,,,,,153,golla,,,,,,394.897,396.146,0,1,0.712,,0,162,162,152,1,pseudoword,0,REAL,FALSA
,,,,,,,,,Pascal,001,2024-06-20_13h35.00.003,empathy_intonation_perc,2024.1.4,Win32,60.0240096,,,,,,,,,,,,,,13,plan,,,,,,396.147,400.596,1,0,3.914,,0,163,163,12,1,three_way_cognate,1,REAL,FALSA
,,,,,,,,,Pascal,001,2024-06-20_13h35.00.003,empathy_intonation_perc,2024.1.4,Win32,60.0240096,,,,,,,,,,,,,,34,actor,,,,,,400.598,401.846,1,0,0.713,,0,164,164,33,1,two_way_cognate,1,REAL,FALSA
,,,,,,,,,Pascal,001,2024-06-20_13h35.00.003,empathy_intonation_perc,2024.1.4,Win32,60.0240096,,,,,,,,,,,,,,75,patada,,,,,,401.847,403.329,0,1,0.947,,0,165,165,74,1,non_cognate,1,REAL,FALSA
,,,,,,,,,Pascal,001,2024-06-20_13h35.00.003,empathy_intonation_perc,2024.1.4,Win32,60.0240096,,,,,,,,,,,,,,145,rúo,,,,,,403.331,405.212,0,1,1.347,,0,166,166,144,1,pseudoword,0,REAL,FALSA
,,,,,,,,,Pascal,001,2024-06-20_13h35.00.003,empathy_intonation_perc,2024.1.4,Win32,60.0240096,,,,,,,,,,,,,,54,tapón,,,,,,405.212,406.798,1,0,1.052,,0,167,167,53,1,non_cognate,1,REAL,FALSA
,,,,,,,,,Pascal,001,2024-06-20_13h35.00.003,empathy_intonation_perc,2024.1.4,Win32,60.0240096,,,,,,,,,,,,,,70,ánimo,,,,,,406.798,407.896,1,0,0.566,,0,168,168,69,1,non_cognate,1,REAL,FALSA
,,,,,,,,,Pascal,001,2024-06-20_13h35.00.003,empathy_intonation_perc,2024.1.4,Win32,60.0240096,,,,,,,,,,,,,,39,casual,,,,,,407.896,408.946,1,0,0.514,,0,169,169,38,1,two_way_cognate,1,REAL,FALSA
,,,,,,,,,Pascal,001,2024-06-20_13h35.00.003,empathy_intonation_perc,2024.1.4,Win32,60.0240096,,,,,,,,,,,,,,163,olzan,,,,,,408.947,410.197,0,1,0.715,,0,170,170,162,1,pseudoword,0,REAL,FALSA
,,,,,,,,,Pascal,001,2024-06-20_13h35.00.003,empathy_intonation_perc,2024.1.4,Win32,60.0240096,,,,,,,,,,,,,,175,tradía,,,,,,410.198,411.378,0,1,0.648,,0,171,171,174,1,pseudoword,0,REAL,FALSA
,,,,,,,,,Pascal,001,2024-06-20_13h35.00.003,empathy_intonation_perc,2024.1.4,Win32,60.0240096,,,,,,,,,,,,,,60,siglo,,,,,,411.379,412.596,1,0,0.682,,0,172,172,59,1,non_cognate,1,REAL,FALSA
,,,,,,,,,Pascal,001,2024-06-20_13h35.00.003,empathy_intonation_perc,2024.1.4,Win32,60.0240096,,,,,,,,,,,,,,67,llamar,,,,,,412.597,414.246,1,0,1.114,,0,173,173,66,1,non_cognate,1,REAL,FALSA
,,,,,,,,,Pascal,001,2024-06-20_13h35.00.003,empathy_intonation_perc,2024.1.4,Win32,60.0240096,,,,,,,,,,,,,,41,pasta,,,,,,414.246,415.378,1,0,0.613,,0,174,174,40,1,two_way_cognate,1,REAL,FALSA
,,,,,,,,,Pascal,001,2024-06-20_13h35.00.003,empathy_intonation_perc,2024.1.4,Win32,60.0240096,,,,,,,,,,,,,,36,viable,,,,,,415.379,417.361,1,0,1.445,,0,175,175,35,1,two_way_cognate,1,REAL,FALSA
,,,,,,,,,Pascal,001,2024-06-20_13h35.00.003,empathy_intonation_perc,2024.1.4,Win32,60.0240096,,,,,,,,,,,,,,3,disco,,,,,,417.362,421.461,1,0,3.565,,0,176,176,2,1,three_way_cognate,1,REAL,FALSA
,,,,,,,,,Pascal,001,2024-06-20_13h35.00.003,empathy_intonation_perc,2024.1.4,Win32,60.0240096,,,,,,,,,,,,,,56,pico,,,,,,421.462,422.945,1,0,0.949,,0,177,177,55,1,non_cognate,1,REAL,FALSA
,,,,,,,,,Pascal,001,2024-06-20_13h35.00.003,empathy_intonation_perc,2024.1.4,Win32,60.0240096,,,,,,,,,,,,,,101,losco,,,,,,422.946,426.179,0,1,2.695,,0,178,178,100,1,pseudoword,0,REAL,FALSA
,,,,,,,,,Pascal,001,2024-06-20_13h35.00.003,empathy_intonation_perc,2024.1.4,Win32,60.0240096,,,,,,,,,,,,,,21,hotel,,,,,,426.182,427.361,1,0,0.647,,0,179,179,20,1,three_way_cognate,1,REAL,FALSA
,,,,,,,,,Pascal,001,2024-06-20_13h35.00.003,empathy_intonation_perc,2024.1.4,Win32,60.0240096,,,,,,,,,,,,,,64,rizado,,,,,,427.362,429.278,1,0,1.381,,0,180,180,63,1,non_cognate,1,REAL,FALSA
,,,,,,,,,Pascal,001,2024-06-20_13h35.00.003,empathy_intonation_perc,2024.1.4,Win32,60.0240096,,,,,,,,,,,,,,190,asumie,,,,,,429.278,430.611,0,1,0.797,,0,181,181,189,1,pseudoword,0,REAL,FALSA
,,,,,,,,,Pascal,001,2024-06-20_13h35.00.003,empathy_intonation_perc,2024.1.4,Win32,60.0240096,,,,,,,,,,,,,,15,test,,,,,,430.613,431.946,1,0,0.795,,0,182,182,14,1,three_way_cognate,1,REAL,FALSA
,,,,,,,,,Pascal,001,2024-06-20_13h35.00.003,empathy_intonation_perc,2024.1.4,Win32,60.0240096,,,,,,,,,,,,,,93,tapa,,,,,,431.947,433.677,1,0,1.194,,0,183,183,92,1,non_cognate,1,REAL,FALSA
,,,,,,,,,Pascal,001,2024-06-20_13h35.00.003,empathy_intonation_perc,2024.1.4,Win32,60.0240096,,,,,,,,,,,,,,63,hilo,,,,,,433.679,434.845,1,0,0.628,,0,184,184,62,1,non_cognate,1,REAL,FALSA
,,,,,,,,,Pascal,001,2024-06-20_13h35.00.003,empathy_intonation_perc,2024.1.4,Win32,60.0240096,,,,,,,,,,,,,,177,entodo,,,,,,434.846,436.261,0,1,0.881,,0,185,185,176,1,pseudoword,0,REAL,FALSA
,,,,,,,,,Pascal,001,2024-06-20_13h35.00.003,empathy_intonation_perc,2024.1.4,Win32,60.0240096,,,,,,,,,,,,,,32,animal,,,,,,436.262,437.411,1,0,0.615,,0,186,186,31,1,two_way_cognate,1,REAL,FALSA
,,,,,,,,,Pascal,001,2024-06-20_13h35.00.003,empathy_intonation_perc,2024.1.4,Win32,60.0240096,,,,,,,,,,,,,,59,feo,,,,,,437.412,438.664,1,0,0.721,,0,187,187,58,1,non_cognate,1,REAL,FALSA
,,,,,,,,,Pascal,001,2024-06-20_13h35.00.003,empathy_intonation_perc,2024.1.4,Win32,60.0240096,,,,,,,,,,,,,,38,halo,,,,,,438.665,440.393,1,0,1.197,,0,188,188,37,1,two_way_cognate,1,REAL,FALSA
,,,,,,,,,Pascal,001,2024-06-20_13h35.00.003,empathy_intonation_perc,2024.1.4,Win32,60.0240096,,,,,,,,,,,,,,164,tecia,,,,,,440.396,441.943,0,1,1.014,,0,189,189,163,1,pseudoword,0,REAL,FALSA
,,,,,,,,,Pascal,001,2024-06-20_13h35.00.003,empathy_intonation_perc,2024.1.4,Win32,60.0240096,,,,,,,,,,,,,,172,dogue,,,,,,441.945,443.376,0,1,0.896,,0,190,190,171,1,pseudoword,0,REAL,FALSA
,,,,,,,,,Pascal,001,2024-06-20_13h35.00.003,empathy_intonation_perc,2024.1.4,Win32,60.0240096,,,,,,,,,,,,,,186,rizate,,,,,,443.377,455.276,0,1,11.36,,0,191,191,185,1,pseudoword,0,REAL,FALSA
