lextale_instructions.started,lextale_instructions.stopped,lextale_instructions_loop.thisRepN,lextale_instructions_loop.thisTrialN,lextale_instructions_loop.thisN,lextale_instructions_loop.thisIndex,lextale_instructions_loop.ran,instructions_text,continue_text,participant,session,date,expName,psychopyVersion,OS,frameRate,lextale_practice.started,lextale_practice.stopped,key_resp_lextale_practice.keys,key_resp_lextale_practice.corr,key_resp_lextale_practice.rt,key_resp_lextale_practice.duration,lextale_practice_feedback.started,lextale_practice_feedback.stopped,lextale_practice_trials.thisRepN,lextale_practice_trials.thisTrialN,lextale_practice_trials.thisN,lextale_practice_trials.thisIndex,lextale_practice_trials.ran,stim,word,correct_response,prac_button_real,prac_button_false,lextale_check.started,lextale_check.stopped,lextale_trial.started,lextale_trial.stopped,key_resp_lextale_trial.keys,key_resp_lextale_trial.corr,key_resp_lextale_trial.rt,key_resp_lextale_trial.duration,lextail_trials.thisRepN,lextail_trials.thisTrialN,lextail_trials.thisN,lextail_trials.thisIndex,lextail_trials.ran,type,correct_reponse,button_real,button_false
0.003,1.9274,0,0,0,0,1,"Este es un test de vocabulario en español. 
  
  A continuación vas a ver 90 secuencias de letras que parecen 'españolas'.
  
  Solo algunas de ellas son palabras de verdad.",(presiona la barra espaciadora para continuar),5b8eab705206680001da3583,001,2025-05-01_18h27.31.722,empathy_intonation_perc,2024.1.4,Win32,142.8571429,,,,,,,,,,,,,,,,,,,,,,,,,,,,,,,,,,,
1.9281,4.4474,0,1,1,1,1,"Por favor, señala las palabras que tú conoces (aquellas que estás convencido que son palabras españolas, incluso aunque no seas capaz de dar el significado preciso).",(presiona la barra espaciadora para continuar),5b8eab705206680001da3583,001,2025-05-01_18h27.31.722,empathy_intonation_perc,2024.1.4,Win32,142.8571429,,,,,,,,,,,,,,,,,,,,,,,,,,,,,,,,,,,
4.4478,8.69,0,2,2,2,1,Pero cuidado: los errores se penalizan. Por eso no tiene sentido tratar de incrementar tu puntuación marcando como reales palabras que nunca has visto.,(presiona la barra espaciadora para continuar),5b8eab705206680001da3583,001,2025-05-01_18h27.31.722,empathy_intonation_perc,2024.1.4,Win32,142.8571429,,,,,,,,,,,,,,,,,,,,,,,,,,,,,,,,,,,
8.6902,12.3012,0,3,3,3,1,"Presiona la tecla 1 si piensas que es una palabra real y la tecla 
  0 si piensas que es una palabra falsa. 
  
  Vamos a practicar un poco...",(presiona la barra espaciadora para continuar),5b8eab705206680001da3583,001,2025-05-01_18h27.31.722,empathy_intonation_perc,2024.1.4,Win32,142.8571429,,,,,,,,,,,,,,,,,,,,,,,,,,,,,,,,,,,
,,,,,,,,,5b8eab705206680001da3583,001,2025-05-01_18h27.31.722,empathy_intonation_perc,2024.1.4,Win32,142.8571429,12.3026,16.3499,1,0,3.5335,,16.3501,17.3497,0,0,0,0,1,0,depiste,0,REAL,FALSA,,,,,,,,,,,,,,,,,
,,,,,,,,,5b8eab705206680001da3583,001,2025-05-01_18h27.31.722,empathy_intonation_perc,2024.1.4,Win32,142.8571429,17.35,18.5794,1,1,0.717,,18.5795,19.5789,0,1,1,1,1,0,sí,1,REAL,FALSA,,,,,,,,,,,,,,,,,
,,,,,,,,,5b8eab705206680001da3583,001,2025-05-01_18h27.31.722,empathy_intonation_perc,2024.1.4,Win32,142.8571429,19.579,21.7872,0,1,1.694,,21.7872,22.7871,0,2,2,2,1,0,coné,0,REAL,FALSA,,,,,,,,,,,,,,,,,
,,,,,,,,,5b8eab705206680001da3583,001,2025-05-01_18h27.31.722,empathy_intonation_perc,2024.1.4,Win32,142.8571429,22.7873,24.2316,0,1,0.9282,,24.2317,25.2315,0,3,3,3,1,0,calpar,0,REAL,FALSA,,,,,,,,,,,,,,,,,
,,,,,,,,,5b8eab705206680001da3583,001,2025-05-01_18h27.31.722,empathy_intonation_perc,2024.1.4,Win32,142.8571429,25.2318,26.5093,0,1,0.7654,,26.5093,27.5093,0,4,4,4,1,0,joten,0,REAL,FALSA,,,,,,,,,,,,,,,,,
,,,,,,,,,5b8eab705206680001da3583,001,2025-05-01_18h27.31.722,empathy_intonation_perc,2024.1.4,Win32,142.8571429,27.5096,28.947,0,0,0.9261,,28.947,29.9471,0,5,5,5,1,0,sacapuntas,1,REAL,FALSA,,,,,,,,,,,,,,,,,
,,,,,,,,,5b8eab705206680001da3583,001,2025-05-01_18h27.31.722,empathy_intonation_perc,2024.1.4,Win32,142.8571429,29.9476,31.5583,0,1,1.1001,,31.5583,32.5578,0,6,6,6,1,0,priba,0,REAL,FALSA,,,,,,,,,,,,,,,,,
,,,,,,,,,5b8eab705206680001da3583,001,2025-05-01_18h27.31.722,empathy_intonation_perc,2024.1.4,Win32,142.8571429,32.5581,34.5857,0,1,1.5136,,34.5857,35.5861,0,7,7,7,1,0,pelasula,0,REAL,FALSA,,,,,,,,,,,,,,,,,
,,,,,,,,,5b8eab705206680001da3583,001,2025-05-01_18h27.31.722,empathy_intonation_perc,2024.1.4,Win32,142.8571429,35.5866,37.9605,1,1,1.8606,,37.9606,38.9606,0,8,8,8,1,0,bien,1,REAL,FALSA,,,,,,,,,,,,,,,,,
,,,,,,,,,5b8eab705206680001da3583,001,2025-05-01_18h27.31.722,empathy_intonation_perc,2024.1.4,Win32,142.8571429,38.9607,40.0716,1,1,0.6012,,40.0717,41.0716,0,9,9,9,1,0,casa,1,REAL,FALSA,,,,,,,,,,,,,,,,,
,,,,,,,,,5b8eab705206680001da3583,001,2025-05-01_18h27.31.722,empathy_intonation_perc,2024.1.4,Win32,142.8571429,41.0718,42.6203,1,0,1.036,,42.6203,43.6203,0,10,10,10,1,0,lejo,0,REAL,FALSA,,,,,,,,,,,,,,,,,
,,,,,,,,,5b8eab705206680001da3583,001,2025-05-01_18h27.31.722,empathy_intonation_perc,2024.1.4,Win32,142.8571429,43.6205,45.03,0,1,0.8948,,45.03,46.0299,0,11,11,11,1,0,pretantas,0,REAL,FALSA,,,,,,,,,,,,,,,,,
,,,,,,,,,5b8eab705206680001da3583,001,2025-05-01_18h27.31.722,empathy_intonation_perc,2024.1.4,Win32,142.8571429,,,,,,,,,,,,,,,,,,,46.0301,48.4404,,,,,,,,,,,,,,,
,,,,,,,,,5b8eab705206680001da3583,001,2025-05-01_18h27.31.722,empathy_intonation_perc,2024.1.4,Win32,142.8571429,,,,,,,,,,,,,,164,tecia,,,,,,48.4489,49.794,0,1,0.8317,,0,0,0,163,1,pseudoword,0,REAL,FALSA
,,,,,,,,,5b8eab705206680001da3583,001,2025-05-01_18h27.31.722,empathy_intonation_perc,2024.1.4,Win32,142.8571429,,,,,,,,,,,,,,71,torta,,,,,,49.7942,51.2035,1,0,0.8949,,0,1,1,70,1,non_cognate,1,REAL,FALSA
,,,,,,,,,5b8eab705206680001da3583,001,2025-05-01_18h27.31.722,empathy_intonation_perc,2024.1.4,Win32,142.8571429,,,,,,,,,,,,,,36,viable,,,,,,51.2037,52.7036,1,0,0.9868,,0,2,2,35,1,two_way_cognate,1,REAL,FALSA
,,,,,,,,,5b8eab705206680001da3583,001,2025-05-01_18h27.31.722,empathy_intonation_perc,2024.1.4,Win32,142.8571429,,,,,,,,,,,,,,109,laras,,,,,,52.7039,54.1201,0,1,0.9032,,0,3,3,108,1,pseudoword,0,REAL,FALSA
,,,,,,,,,5b8eab705206680001da3583,001,2025-05-01_18h27.31.722,empathy_intonation_perc,2024.1.4,Win32,142.8571429,,,,,,,,,,,,,,27,piano,,,,,,54.1204,55.2452,1,0,0.6096,,0,4,4,26,1,two_way_cognate,1,REAL,FALSA
,,,,,,,,,5b8eab705206680001da3583,001,2025-05-01_18h27.31.722,empathy_intonation_perc,2024.1.4,Win32,142.8571429,,,,,,,,,,,,,,112,samón,,,,,,55.2454,56.6132,0,1,0.8536,,0,5,5,111,1,pseudoword,0,REAL,FALSA
,,,,,,,,,5b8eab705206680001da3583,001,2025-05-01_18h27.31.722,empathy_intonation_perc,2024.1.4,Win32,142.8571429,,,,,,,,,,,,,,168,cobén,,,,,,56.6134,57.8702,0,1,0.7422,,0,6,6,167,1,pseudoword,0,REAL,FALSA
,,,,,,,,,5b8eab705206680001da3583,001,2025-05-01_18h27.31.722,empathy_intonation_perc,2024.1.4,Win32,142.8571429,,,,,,,,,,,,,,117,morrá,,,,,,57.8705,59.0299,0,1,0.6446,,0,7,7,116,1,pseudoword,0,REAL,FALSA
,,,,,,,,,5b8eab705206680001da3583,001,2025-05-01_18h27.31.722,empathy_intonation_perc,2024.1.4,Win32,142.8571429,,,,,,,,,,,,,,141,virios,,,,,,59.0301,60.3283,0,1,0.7909,,0,8,8,140,1,pseudoword,0,REAL,FALSA
,,,,,,,,,5b8eab705206680001da3583,001,2025-05-01_18h27.31.722,empathy_intonation_perc,2024.1.4,Win32,142.8571429,,,,,,,,,,,,,,170,diabo,,,,,,60.3285,61.3841,1,0,0.5502,,0,9,9,169,1,pseudoword,0,REAL,FALSA
,,,,,,,,,5b8eab705206680001da3583,001,2025-05-01_18h27.31.722,empathy_intonation_perc,2024.1.4,Win32,142.8571429,,,,,,,,,,,,,,18,altar,,,,,,61.3842,62.4328,1,0,0.5344,,0,10,10,17,1,three_way_cognate,1,REAL,FALSA
,,,,,,,,,5b8eab705206680001da3583,001,2025-05-01_18h27.31.722,empathy_intonation_perc,2024.1.4,Win32,142.8571429,,,,,,,,,,,,,,28,ardor,,,,,,62.433,63.8075,1,0,0.8629,,0,11,11,27,1,two_way_cognate,1,REAL,FALSA
,,,,,,,,,5b8eab705206680001da3583,001,2025-05-01_18h27.31.722,empathy_intonation_perc,2024.1.4,Win32,142.8571429,,,,,,,,,,,,,,140,chorde,,,,,,63.8078,64.9742,0,1,0.655,,0,12,12,139,1,pseudoword,0,REAL,FALSA
,,,,,,,,,5b8eab705206680001da3583,001,2025-05-01_18h27.31.722,empathy_intonation_perc,2024.1.4,Win32,142.8571429,,,,,,,,,,,,,,103,vueras,,,,,,64.9744,66.3006,1,0,0.8141,,0,13,13,102,1,pseudoword,0,REAL,FALSA
,,,,,,,,,5b8eab705206680001da3583,001,2025-05-01_18h27.31.722,empathy_intonation_perc,2024.1.4,Win32,142.8571429,,,,,,,,,,,,,,75,patada,,,,,,66.3007,67.634,0,1,0.8208,,0,14,14,74,1,non_cognate,1,REAL,FALSA
,,,,,,,,,5b8eab705206680001da3583,001,2025-05-01_18h27.31.722,empathy_intonation_perc,2024.1.4,Win32,142.8571429,,,,,,,,,,,,,,62,pegar,,,,,,67.6342,69.1894,1,0,1.0426,,0,15,15,61,1,non_cognate,1,REAL,FALSA
,,,,,,,,,5b8eab705206680001da3583,001,2025-05-01_18h27.31.722,empathy_intonation_perc,2024.1.4,Win32,142.8571429,,,,,,,,,,,,,,190,asumie,,,,,,69.1896,70.4116,0,1,0.7086,,0,16,16,189,1,pseudoword,0,REAL,FALSA
,,,,,,,,,5b8eab705206680001da3583,001,2025-05-01_18h27.31.722,empathy_intonation_perc,2024.1.4,Win32,142.8571429,,,,,,,,,,,,,,167,dobbo,,,,,,70.4119,71.6338,0,1,0.7068,,0,17,17,166,1,pseudoword,0,REAL,FALSA
,,,,,,,,,5b8eab705206680001da3583,001,2025-05-01_18h27.31.722,empathy_intonation_perc,2024.1.4,Win32,142.8571429,,,,,,,,,,,,,,21,hotel,,,,,,71.634,72.7658,1,0,0.6232,,0,18,18,20,1,three_way_cognate,1,REAL,FALSA
,,,,,,,,,5b8eab705206680001da3583,001,2025-05-01_18h27.31.722,empathy_intonation_perc,2024.1.4,Win32,142.8571429,,,,,,,,,,,,,,68,puñal,,,,,,72.7661,74.2033,0,1,0.9251,,0,19,19,67,1,non_cognate,1,REAL,FALSA
,,,,,,,,,5b8eab705206680001da3583,001,2025-05-01_18h27.31.722,empathy_intonation_perc,2024.1.4,Win32,142.8571429,,,,,,,,,,,,,,132,nocó,,,,,,74.2035,75.5992,0,1,0.8806,,0,20,20,131,1,pseudoword,0,REAL,FALSA
,,,,,,,,,5b8eab705206680001da3583,001,2025-05-01_18h27.31.722,empathy_intonation_perc,2024.1.4,Win32,142.8571429,,,,,,,,,,,,,,174,pabea,,,,,,75.5994,77.634,0,1,1.5238,,0,21,21,173,1,pseudoword,0,REAL,FALSA
,,,,,,,,,5b8eab705206680001da3583,001,2025-05-01_18h27.31.722,empathy_intonation_perc,2024.1.4,Win32,142.8571429,,,,,,,,,,,,,,192,próces,,,,,,77.6342,79.1199,1,0,0.8983,,0,22,22,191,1,pseudoword,0,REAL,FALSA
,,,,,,,,,5b8eab705206680001da3583,001,2025-05-01_18h27.31.722,empathy_intonation_perc,2024.1.4,Win32,142.8571429,,,,,,,,,,,,,,90,venado,,,,,,79.1201,80.2656,0,1,0.6347,,0,23,23,89,1,non_cognate,1,REAL,FALSA
,,,,,,,,,5b8eab705206680001da3583,001,2025-05-01_18h27.31.722,empathy_intonation_perc,2024.1.4,Win32,142.8571429,,,,,,,,,,,,,,31,civil,,,,,,80.2658,81.349,1,0,0.5704,,0,24,24,30,1,two_way_cognate,1,REAL,FALSA
,,,,,,,,,5b8eab705206680001da3583,001,2025-05-01_18h27.31.722,empathy_intonation_perc,2024.1.4,Win32,142.8571429,,,,,,,,,,,,,,178,inichó,,,,,,81.3492,82.7101,0,1,0.846,,0,25,25,177,1,pseudoword,0,REAL,FALSA
,,,,,,,,,5b8eab705206680001da3583,001,2025-05-01_18h27.31.722,empathy_intonation_perc,2024.1.4,Win32,142.8571429,,,,,,,,,,,,,,32,animal,,,,,,82.7103,83.7657,1,0,0.5391,,0,26,26,31,1,two_way_cognate,1,REAL,FALSA
,,,,,,,,,5b8eab705206680001da3583,001,2025-05-01_18h27.31.722,empathy_intonation_perc,2024.1.4,Win32,142.8571429,,,,,,,,,,,,,,118,bará,,,,,,83.766,84.8768,0,1,0.5988,,0,27,27,117,1,pseudoword,0,REAL,FALSA
,,,,,,,,,5b8eab705206680001da3583,001,2025-05-01_18h27.31.722,empathy_intonation_perc,2024.1.4,Win32,142.8571429,,,,,,,,,,,,,,19,mafia,,,,,,84.877,86.0643,1,0,0.6749,,0,28,28,18,1,three_way_cognate,1,REAL,FALSA
,,,,,,,,,5b8eab705206680001da3583,001,2025-05-01_18h27.31.722,empathy_intonation_perc,2024.1.4,Win32,142.8571429,,,,,,,,,,,,,,104,estulo,,,,,,86.0644,87.3212,0,1,0.7524,,0,29,29,103,1,pseudoword,0,REAL,FALSA
,,,,,,,,,5b8eab705206680001da3583,001,2025-05-01_18h27.31.722,empathy_intonation_perc,2024.1.4,Win32,142.8571429,,,,,,,,,,,,,,10,drama,,,,,,87.3215,88.5018,1,0,0.6663,,0,30,30,9,1,three_way_cognate,1,REAL,FALSA
,,,,,,,,,5b8eab705206680001da3583,001,2025-05-01_18h27.31.722,empathy_intonation_perc,2024.1.4,Win32,142.8571429,,,,,,,,,,,,,,149,emén,,,,,,88.502,89.4949,0,1,0.4776,,0,31,31,148,1,pseudoword,0,REAL,FALSA
,,,,,,,,,5b8eab705206680001da3583,001,2025-05-01_18h27.31.722,empathy_intonation_perc,2024.1.4,Win32,142.8571429,,,,,,,,,,,,,,45,total,,,,,,89.4951,91.1201,1,0,1.1129,,0,32,32,44,1,two_way_cognate,1,REAL,FALSA
,,,,,,,,,5b8eab705206680001da3583,001,2025-05-01_18h27.31.722,empathy_intonation_perc,2024.1.4,Win32,142.8571429,,,,,,,,,,,,,,124,lobe,,,,,,91.1204,92.6684,0,1,1.0336,,0,33,33,123,1,pseudoword,0,REAL,FALSA
,,,,,,,,,5b8eab705206680001da3583,001,2025-05-01_18h27.31.722,empathy_intonation_perc,2024.1.4,Win32,142.8571429,,,,,,,,,,,,,,56,pico,,,,,,92.6688,93.724,0,1,0.5408,,0,34,34,55,1,non_cognate,1,REAL,FALSA
,,,,,,,,,5b8eab705206680001da3583,001,2025-05-01_18h27.31.722,empathy_intonation_perc,2024.1.4,Win32,142.8571429,,,,,,,,,,,,,,40,pelvis,,,,,,93.7241,94.7938,0,1,0.555,,0,35,35,39,1,two_way_cognate,1,REAL,FALSA
,,,,,,,,,5b8eab705206680001da3583,001,2025-05-01_18h27.31.722,empathy_intonation_perc,2024.1.4,Win32,142.8571429,,,,,,,,,,,,,,73,llevar,,,,,,94.7941,96.0645,1,0,0.756,,0,36,36,72,1,non_cognate,1,REAL,FALSA
,,,,,,,,,5b8eab705206680001da3583,001,2025-05-01_18h27.31.722,empathy_intonation_perc,2024.1.4,Win32,142.8571429,,,,,,,,,,,,,,9,portal,,,,,,96.0649,97.4324,1,0,0.8538,,0,37,37,8,1,three_way_cognate,1,REAL,FALSA
,,,,,,,,,5b8eab705206680001da3583,001,2025-05-01_18h27.31.722,empathy_intonation_perc,2024.1.4,Win32,142.8571429,,,,,,,,,,,,,,172,dogue,,,,,,97.4326,98.5364,0,1,0.5894,,0,38,38,171,1,pseudoword,0,REAL,FALSA
,,,,,,,,,5b8eab705206680001da3583,001,2025-05-01_18h27.31.722,empathy_intonation_perc,2024.1.4,Win32,142.8571429,,,,,,,,,,,,,,159,trcia,,,,,,98.5367,99.8628,0,1,0.8124,,0,39,39,158,1,pseudoword,0,REAL,FALSA
,,,,,,,,,5b8eab705206680001da3583,001,2025-05-01_18h27.31.722,empathy_intonation_perc,2024.1.4,Win32,142.8571429,,,,,,,,,,,,,,119,esís,,,,,,99.863,101.0086,0,1,0.6337,,0,40,40,118,1,pseudoword,0,REAL,FALSA
,,,,,,,,,5b8eab705206680001da3583,001,2025-05-01_18h27.31.722,empathy_intonation_perc,2024.1.4,Win32,142.8571429,,,,,,,,,,,,,,26,enigma,,,,,,101.0088,102.453,1,0,0.9317,,0,41,41,25,1,two_way_cognate,1,REAL,FALSA
,,,,,,,,,5b8eab705206680001da3583,001,2025-05-01_18h27.31.722,empathy_intonation_perc,2024.1.4,Win32,142.8571429,,,,,,,,,,,,,,57,regalo,,,,,,102.4533,103.6336,1,0,0.6676,,0,42,42,56,1,non_cognate,1,REAL,FALSA
,,,,,,,,,5b8eab705206680001da3583,001,2025-05-01_18h27.31.722,empathy_intonation_perc,2024.1.4,Win32,142.8571429,,,,,,,,,,,,,,89,muñeca,,,,,,103.6339,104.8212,0,1,0.6749,,0,43,43,88,1,non_cognate,1,REAL,FALSA
,,,,,,,,,5b8eab705206680001da3583,001,2025-05-01_18h27.31.722,empathy_intonation_perc,2024.1.4,Win32,142.8571429,,,,,,,,,,,,,,111,monue,,,,,,104.8213,106.1476,0,1,0.8137,,0,44,44,110,1,pseudoword,0,REAL,FALSA
,,,,,,,,,5b8eab705206680001da3583,001,2025-05-01_18h27.31.722,empathy_intonation_perc,2024.1.4,Win32,142.8571429,,,,,,,,,,,,,,5,extra,,,,,,106.1478,107.3072,1,0,0.6444,,0,45,45,4,1,three_way_cognate,1,REAL,FALSA
,,,,,,,,,5b8eab705206680001da3583,001,2025-05-01_18h27.31.722,empathy_intonation_perc,2024.1.4,Win32,142.8571429,,,,,,,,,,,,,,60,siglo,,,,,,107.3074,108.3628,0,1,0.5411,,0,46,46,59,1,non_cognate,1,REAL,FALSA
,,,,,,,,,5b8eab705206680001da3583,001,2025-05-01_18h27.31.722,empathy_intonation_perc,2024.1.4,Win32,142.8571429,,,,,,,,,,,,,,55,maldad,,,,,,108.363,109.7655,0,1,0.8867,,0,47,47,54,1,non_cognate,1,REAL,FALSA
,,,,,,,,,5b8eab705206680001da3583,001,2025-05-01_18h27.31.722,empathy_intonation_perc,2024.1.4,Win32,142.8571429,,,,,,,,,,,,,,77,suave,,,,,,109.7658,111.0097,1,0,0.7333,,0,48,48,76,1,non_cognate,1,REAL,FALSA
,,,,,,,,,5b8eab705206680001da3583,001,2025-05-01_18h27.31.722,empathy_intonation_perc,2024.1.4,Win32,142.8571429,,,,,,,,,,,,,,11,golf,,,,,,111.0101,112.1822,1,0,0.6576,,0,49,49,10,1,three_way_cognate,1,REAL,FALSA
,,,,,,,,,5b8eab705206680001da3583,001,2025-05-01_18h27.31.722,empathy_intonation_perc,2024.1.4,Win32,142.8571429,,,,,,,,,,,,,,29,clamor,,,,,,112.1824,113.3975,0,1,0.7047,,0,50,50,28,1,two_way_cognate,1,REAL,FALSA
,,,,,,,,,5b8eab705206680001da3583,001,2025-05-01_18h27.31.722,empathy_intonation_perc,2024.1.4,Win32,142.8571429,,,,,,,,,,,,,,65,guerra,,,,,,113.3977,114.5363,1,0,0.6239,,0,51,51,64,1,non_cognate,1,REAL,FALSA
,,,,,,,,,5b8eab705206680001da3583,001,2025-05-01_18h27.31.722,empathy_intonation_perc,2024.1.4,Win32,142.8571429,,,,,,,,,,,,,,105,peniz,,,,,,114.5366,115.9048,0,1,0.8575,,0,52,52,104,1,pseudoword,0,REAL,FALSA
,,,,,,,,,5b8eab705206680001da3583,001,2025-05-01_18h27.31.722,empathy_intonation_perc,2024.1.4,Win32,142.8571429,,,,,,,,,,,,,,4,flora,,,,,,115.9051,117.0505,1,0,0.632,,0,53,53,3,1,three_way_cognate,1,REAL,FALSA
,,,,,,,,,5b8eab705206680001da3583,001,2025-05-01_18h27.31.722,empathy_intonation_perc,2024.1.4,Win32,142.8571429,,,,,,,,,,,,,,46,mortal,,,,,,117.0507,118.5988,1,0,1.035,,0,54,54,45,1,two_way_cognate,1,REAL,FALSA
,,,,,,,,,5b8eab705206680001da3583,001,2025-05-01_18h27.31.722,empathy_intonation_perc,2024.1.4,Win32,142.8571429,,,,,,,,,,,,,,148,gino,,,,,,118.5989,119.6195,0,1,0.5077,,0,55,55,147,1,pseudoword,0,REAL,FALSA
,,,,,,,,,5b8eab705206680001da3583,001,2025-05-01_18h27.31.722,empathy_intonation_perc,2024.1.4,Win32,142.8571429,,,,,,,,,,,,,,38,halo,,,,,,119.6198,120.8835,1,0,0.7514,,0,56,56,37,1,two_way_cognate,1,REAL,FALSA
,,,,,,,,,5b8eab705206680001da3583,001,2025-05-01_18h27.31.722,empathy_intonation_perc,2024.1.4,Win32,142.8571429,,,,,,,,,,,,,,97,nocita,,,,,,120.8837,122.0988,0,1,0.7015,,0,57,57,96,1,pseudoword,0,REAL,FALSA
,,,,,,,,,5b8eab705206680001da3583,001,2025-05-01_18h27.31.722,empathy_intonation_perc,2024.1.4,Win32,142.8571429,,,,,,,,,,,,,,191,frasis,,,,,,122.0991,123.3632,0,1,0.7469,,0,58,58,190,1,pseudoword,0,REAL,FALSA
,,,,,,,,,5b8eab705206680001da3583,001,2025-05-01_18h27.31.722,empathy_intonation_perc,2024.1.4,Win32,142.8571429,,,,,,,,,,,,,,50,sierra,,,,,,123.3636,124.5779,1,0,0.7018,,0,59,59,49,1,non_cognate,1,REAL,FALSA
,,,,,,,,,5b8eab705206680001da3583,001,2025-05-01_18h27.31.722,empathy_intonation_perc,2024.1.4,Win32,142.8571429,,,,,,,,,,,,,,61,aduana,,,,,,124.578,125.7793,0,1,0.6913,,0,60,60,60,1,non_cognate,1,REAL,FALSA
,,,,,,,,,5b8eab705206680001da3583,001,2025-05-01_18h27.31.722,empathy_intonation_perc,2024.1.4,Win32,142.8571429,,,,,,,,,,,,,,51,listo,,,,,,125.7796,126.8625,1,0,0.5692,,0,61,61,50,1,non_cognate,1,REAL,FALSA
,,,,,,,,,5b8eab705206680001da3583,001,2025-05-01_18h27.31.722,empathy_intonation_perc,2024.1.4,Win32,142.8571429,,,,,,,,,,,,,,88,percha,,,,,,126.8627,128.0362,0,1,0.6585,,0,62,62,87,1,non_cognate,1,REAL,FALSA
,,,,,,,,,5b8eab705206680001da3583,001,2025-05-01_18h27.31.722,empathy_intonation_perc,2024.1.4,Win32,142.8571429,,,,,,,,,,,,,,151,prías,,,,,,128.0365,129.1681,0,1,0.6214,,0,63,63,150,1,pseudoword,0,REAL,FALSA
,,,,,,,,,5b8eab705206680001da3583,001,2025-05-01_18h27.31.722,empathy_intonation_perc,2024.1.4,Win32,142.8571429,,,,,,,,,,,,,,183,edioso,,,,,,129.1682,130.3696,0,1,0.6868,,0,64,64,182,1,pseudoword,0,REAL,FALSA
,,,,,,,,,5b8eab705206680001da3583,001,2025-05-01_18h27.31.722,empathy_intonation_perc,2024.1.4,Win32,142.8571429,,,,,,,,,,,,,,94,forro,,,,,,130.3698,131.4459,0,1,0.5612,,0,65,65,93,1,non_cognate,1,REAL,FALSA
,,,,,,,,,5b8eab705206680001da3583,001,2025-05-01_18h27.31.722,empathy_intonation_perc,2024.1.4,Win32,142.8571429,,,,,,,,,,,,,,128,pelí,,,,,,131.4461,132.5572,0,1,0.6007,,0,66,66,127,1,pseudoword,0,REAL,FALSA
,,,,,,,,,5b8eab705206680001da3583,001,2025-05-01_18h27.31.722,empathy_intonation_perc,2024.1.4,Win32,142.8571429,,,,,,,,,,,,,,127,vien,,,,,,132.5575,133.6546,1,0,0.5871,,0,67,67,126,1,pseudoword,0,REAL,FALSA
,,,,,,,,,5b8eab705206680001da3583,001,2025-05-01_18h27.31.722,empathy_intonation_perc,2024.1.4,Win32,142.8571429,,,,,,,,,,,,,,39,casual,,,,,,133.655,134.7583,1,0,0.5914,,0,68,68,38,1,two_way_cognate,1,REAL,FALSA
,,,,,,,,,5b8eab705206680001da3583,001,2025-05-01_18h27.31.722,empathy_intonation_perc,2024.1.4,Win32,142.8571429,,,,,,,,,,,,,,146,gió,,,,,,134.7586,135.9389,0,1,0.6675,,0,69,69,145,1,pseudoword,0,REAL,FALSA
,,,,,,,,,5b8eab705206680001da3583,001,2025-05-01_18h27.31.722,empathy_intonation_perc,2024.1.4,Win32,142.8571429,,,,,,,,,,,,,,2,tumor,,,,,,135.9391,137.0988,1,0,0.6494,,0,70,70,1,1,three_way_cognate,1,REAL,FALSA
,,,,,,,,,5b8eab705206680001da3583,001,2025-05-01_18h27.31.722,empathy_intonation_perc,2024.1.4,Win32,142.8571429,,,,,,,,,,,,,,82,brillo,,,,,,137.099,138.2864,0,1,0.6772,,0,71,71,81,1,non_cognate,1,REAL,FALSA
,,,,,,,,,5b8eab705206680001da3583,001,2025-05-01_18h27.31.722,empathy_intonation_perc,2024.1.4,Win32,142.8571429,,,,,,,,,,,,,,91,equipo,,,,,,138.2868,139.3764,1,0,0.5729,,0,72,72,90,1,non_cognate,1,REAL,FALSA
,,,,,,,,,5b8eab705206680001da3583,001,2025-05-01_18h27.31.722,empathy_intonation_perc,2024.1.4,Win32,142.8571429,,,,,,,,,,,,,,153,golla,,,,,,139.3765,140.5083,0,1,0.6198,,0,73,73,152,1,pseudoword,0,REAL,FALSA
,,,,,,,,,5b8eab705206680001da3583,001,2025-05-01_18h27.31.722,empathy_intonation_perc,2024.1.4,Win32,142.8571429,,,,,,,,,,,,,,101,losco,,,,,,140.5086,141.5846,0,1,0.5648,,0,74,74,100,1,pseudoword,0,REAL,FALSA
,,,,,,,,,5b8eab705206680001da3583,001,2025-05-01_18h27.31.722,empathy_intonation_perc,2024.1.4,Win32,142.8571429,,,,,,,,,,,,,,182,desaro,,,,,,141.5848,142.717,0,1,0.6188,,0,75,75,181,1,pseudoword,0,REAL,FALSA
,,,,,,,,,5b8eab705206680001da3583,001,2025-05-01_18h27.31.722,empathy_intonation_perc,2024.1.4,Win32,142.8571429,,,,,,,,,,,,,,163,llzan,,,,,,142.7174,143.807,0,1,0.5737,,0,76,76,162,1,pseudoword,0,REAL,FALSA
,,,,,,,,,5b8eab705206680001da3583,001,2025-05-01_18h27.31.722,empathy_intonation_perc,2024.1.4,Win32,142.8571429,,,,,,,,,,,,,,171,gotro,,,,,,143.8073,144.8903,0,1,0.5678,,0,77,77,170,1,pseudoword,0,REAL,FALSA
,,,,,,,,,5b8eab705206680001da3583,001,2025-05-01_18h27.31.722,empathy_intonation_perc,2024.1.4,Win32,142.8571429,,,,,,,,,,,,,,52,blando,,,,,,144.8904,146.0915,0,1,0.6873,,0,78,78,51,1,non_cognate,1,REAL,FALSA
,,,,,,,,,5b8eab705206680001da3583,001,2025-05-01_18h27.31.722,empathy_intonation_perc,2024.1.4,Win32,142.8571429,,,,,,,,,,,,,,95,listo,,,,,,146.0916,147.154,1,0,0.5467,,0,79,79,94,1,non_cognate,1,REAL,FALSA
,,,,,,,,,5b8eab705206680001da3583,001,2025-05-01_18h27.31.722,empathy_intonation_perc,2024.1.4,Win32,142.8571429,,,,,,,,,,,,,,78,rendir,,,,,,147.1543,148.3902,0,1,0.7243,,0,80,80,77,1,non_cognate,1,REAL,FALSA
,,,,,,,,,5b8eab705206680001da3583,001,2025-05-01_18h27.31.722,empathy_intonation_perc,2024.1.4,Win32,142.8571429,,,,,,,,,,,,,,92,flecha,,,,,,148.3905,149.5776,1,0,0.673,,0,81,81,91,1,non_cognate,1,REAL,FALSA
,,,,,,,,,5b8eab705206680001da3583,001,2025-05-01_18h27.31.722,empathy_intonation_perc,2024.1.4,Win32,142.8571429,,,,,,,,,,,,,,22,mango,,,,,,149.5779,150.6473,1,0,0.5555,,0,82,82,21,1,three_way_cognate,1,REAL,FALSA
,,,,,,,,,5b8eab705206680001da3583,001,2025-05-01_18h27.31.722,empathy_intonation_perc,2024.1.4,Win32,142.8571429,,,,,,,,,,,,,,81,sacar,,,,,,150.6476,151.8484,1,0,0.6899,,0,83,83,80,1,non_cognate,1,REAL,FALSA
,,,,,,,,,5b8eab705206680001da3583,001,2025-05-01_18h27.31.722,empathy_intonation_perc,2024.1.4,Win32,142.8571429,,,,,,,,,,,,,,157,seled,,,,,,151.8487,153.057,0,1,0.6946,,0,84,84,156,1,pseudoword,0,REAL,FALSA
,,,,,,,,,5b8eab705206680001da3583,001,2025-05-01_18h27.31.722,empathy_intonation_perc,2024.1.4,Win32,142.8571429,,,,,,,,,,,,,,184,huenos,,,,,,153.0573,154.2862,0,1,0.7173,,0,85,85,183,1,pseudoword,0,REAL,FALSA
,,,,,,,,,5b8eab705206680001da3583,001,2025-05-01_18h27.31.722,empathy_intonation_perc,2024.1.4,Win32,142.8571429,,,,,,,,,,,,,,160,fomeó,,,,,,154.2866,155.4804,0,1,0.6787,,0,86,86,159,1,pseudoword,0,REAL,FALSA
,,,,,,,,,5b8eab705206680001da3583,001,2025-05-01_18h27.31.722,empathy_intonation_perc,2024.1.4,Win32,142.8571429,,,,,,,,,,,,,,44,editor,,,,,,155.4807,156.5291,1,0,0.5375,,0,87,87,43,1,two_way_cognate,1,REAL,FALSA
,,,,,,,,,5b8eab705206680001da3583,001,2025-05-01_18h27.31.722,empathy_intonation_perc,2024.1.4,Win32,142.8571429,,,,,,,,,,,,,,42,rumor,,,,,,156.5293,157.8767,0,1,0.8315,,0,88,88,41,1,two_way_cognate,1,REAL,FALSA
,,,,,,,,,5b8eab705206680001da3583,001,2025-05-01_18h27.31.722,empathy_intonation_perc,2024.1.4,Win32,142.8571429,,,,,,,,,,,,,,64,rizado,,,,,,157.877,158.9597,0,1,0.5676,,0,89,89,63,1,non_cognate,1,REAL,FALSA
,,,,,,,,,5b8eab705206680001da3583,001,2025-05-01_18h27.31.722,empathy_intonation_perc,2024.1.4,Win32,142.8571429,,,,,,,,,,,,,,143,hurcos,,,,,,158.96,160.1192,0,1,0.6449,,0,90,90,142,1,pseudoword,0,REAL,FALSA
,,,,,,,,,5b8eab705206680001da3583,001,2025-05-01_18h27.31.722,empathy_intonation_perc,2024.1.4,Win32,142.8571429,,,,,,,,,,,,,,113,nasce,,,,,,160.1195,161.3068,0,1,0.6728,,0,91,91,112,1,pseudoword,0,REAL,FALSA
,,,,,,,,,5b8eab705206680001da3583,001,2025-05-01_18h27.31.722,empathy_intonation_perc,2024.1.4,Win32,142.8571429,,,,,,,,,,,,,,98,martir,,,,,,161.307,162.8275,0,1,1.005,,0,92,92,97,1,pseudoword,0,REAL,FALSA
,,,,,,,,,5b8eab705206680001da3583,001,2025-05-01_18h27.31.722,empathy_intonation_perc,2024.1.4,Win32,142.8571429,,,,,,,,,,,,,,99,bugor,,,,,,162.8278,164.0914,0,1,0.7516,,0,93,93,98,1,pseudoword,0,REAL,FALSA
,,,,,,,,,5b8eab705206680001da3583,001,2025-05-01_18h27.31.722,empathy_intonation_perc,2024.1.4,Win32,142.8571429,,,,,,,,,,,,,,116,grigir,,,,,,164.0916,165.3417,0,1,0.735,,0,94,94,115,1,pseudoword,0,REAL,FALSA
,,,,,,,,,5b8eab705206680001da3583,001,2025-05-01_18h27.31.722,empathy_intonation_perc,2024.1.4,Win32,142.8571429,,,,,,,,,,,,,,58,colcha,,,,,,165.342,166.5289,0,1,0.6743,,0,95,95,57,1,non_cognate,1,REAL,FALSA
,,,,,,,,,5b8eab705206680001da3583,001,2025-05-01_18h27.31.722,empathy_intonation_perc,2024.1.4,Win32,142.8571429,,,,,,,,,,,,,,129,vinzó,,,,,,166.5292,167.7442,0,1,0.7038,,0,96,96,128,1,pseudoword,0,REAL,FALSA
,,,,,,,,,5b8eab705206680001da3583,001,2025-05-01_18h27.31.722,empathy_intonation_perc,2024.1.4,Win32,142.8571429,,,,,,,,,,,,,,3,disco,,,,,,167.7444,168.8066,1,0,0.5507,,0,97,97,2,1,three_way_cognate,1,REAL,FALSA
,,,,,,,,,5b8eab705206680001da3583,001,2025-05-01_18h27.31.722,empathy_intonation_perc,2024.1.4,Win32,142.8571429,,,,,,,,,,,,,,8,kilo,,,,,,168.8068,169.8344,1,0,0.5159,,0,98,98,7,1,three_way_cognate,1,REAL,FALSA
,,,,,,,,,5b8eab705206680001da3583,001,2025-05-01_18h27.31.722,empathy_intonation_perc,2024.1.4,Win32,142.8571429,,,,,,,,,,,,,,87,muleta,,,,,,169.8347,171.0359,0,1,0.6864,,0,99,99,86,1,non_cognate,1,REAL,FALSA
,,,,,,,,,5b8eab705206680001da3583,001,2025-05-01_18h27.31.722,empathy_intonation_perc,2024.1.4,Win32,142.8571429,,,,,,,,,,,,,,177,entodo,,,,,,171.036,172.3482,1,0,0.7987,,0,100,100,176,1,pseudoword,0,REAL,FALSA
,,,,,,,,,5b8eab705206680001da3583,001,2025-05-01_18h27.31.722,empathy_intonation_perc,2024.1.4,Win32,142.8571429,,,,,,,,,,,,,,70,ánimo,,,,,,172.3484,173.5288,1,0,0.6662,,0,101,101,69,1,non_cognate,1,REAL,FALSA
,,,,,,,,,5b8eab705206680001da3583,001,2025-05-01_18h27.31.722,empathy_intonation_perc,2024.1.4,Win32,142.8571429,,,,,,,,,,,,,,189,medium,,,,,,173.5291,174.661,1,0,0.6184,,0,102,102,188,1,pseudoword,0,REAL,FALSA
,,,,,,,,,5b8eab705206680001da3583,001,2025-05-01_18h27.31.722,empathy_intonation_perc,2024.1.4,Win32,142.8571429,,,,,,,,,,,,,,110,densó,,,,,,174.6613,175.8204,1,0,0.6471,,0,103,103,109,1,pseudoword,0,REAL,FALSA
,,,,,,,,,5b8eab705206680001da3583,001,2025-05-01_18h27.31.722,empathy_intonation_perc,2024.1.4,Win32,142.8571429,,,,,,,,,,,,,,166,anfia,,,,,,175.8206,176.9455,0,1,0.6143,,0,104,104,165,1,pseudoword,0,REAL,FALSA
,,,,,,,,,5b8eab705206680001da3583,001,2025-05-01_18h27.31.722,empathy_intonation_perc,2024.1.4,Win32,142.8571429,,,,,,,,,,,,,,158,babrá,,,,,,176.9456,178.0566,0,1,0.595,,0,105,105,157,1,pseudoword,0,REAL,FALSA
,,,,,,,,,5b8eab705206680001da3583,001,2025-05-01_18h27.31.722,empathy_intonation_perc,2024.1.4,Win32,142.8571429,,,,,,,,,,,,,,67,llamar,,,,,,178.0568,179.1191,1,0,0.549,,0,106,106,66,1,non_cognate,1,REAL,FALSA
,,,,,,,,,5b8eab705206680001da3583,001,2025-05-01_18h27.31.722,empathy_intonation_perc,2024.1.4,Win32,142.8571429,,,,,,,,,,,,,,34,actor,,,,,,179.1193,180.2163,1,0,0.582,,0,107,107,33,1,two_way_cognate,1,REAL,FALSA
,,,,,,,,,5b8eab705206680001da3583,001,2025-05-01_18h27.31.722,empathy_intonation_perc,2024.1.4,Win32,142.8571429,,,,,,,,,,,,,,175,tradía,,,,,,180.2165,181.64,0,1,0.9112,,0,108,108,174,1,pseudoword,0,REAL,FALSA
,,,,,,,,,5b8eab705206680001da3583,001,2025-05-01_18h27.31.722,empathy_intonation_perc,2024.1.4,Win32,142.8571429,,,,,,,,,,,,,,30,fiscal,,,,,,181.6403,182.869,0,1,0.7133,,0,109,109,29,1,two_way_cognate,1,REAL,FALSA
,,,,,,,,,5b8eab705206680001da3583,001,2025-05-01_18h27.31.722,empathy_intonation_perc,2024.1.4,Win32,142.8571429,,,,,,,,,,,,,,135,panté,,,,,,182.8692,184.0913,0,1,0.7085,,0,110,110,134,1,pseudoword,0,REAL,FALSA
,,,,,,,,,5b8eab705206680001da3583,001,2025-05-01_18h27.31.722,empathy_intonation_perc,2024.1.4,Win32,142.8571429,,,,,,,,,,,,,,139,sasos,,,,,,184.0916,185.3273,0,1,0.721,,0,111,111,138,1,pseudoword,0,REAL,FALSA
,,,,,,,,,5b8eab705206680001da3583,001,2025-05-01_18h27.31.722,empathy_intonation_perc,2024.1.4,Win32,142.8571429,,,,,,,,,,,,,,115,lidena,,,,,,185.3275,186.515,0,1,0.6769,,0,112,112,114,1,pseudoword,0,REAL,FALSA
,,,,,,,,,5b8eab705206680001da3583,001,2025-05-01_18h27.31.722,empathy_intonation_perc,2024.1.4,Win32,142.8571429,,,,,,,,,,,,,,131,fuar,,,,,,186.5152,187.7791,0,1,0.7512,,0,113,113,130,1,pseudoword,0,REAL,FALSA
,,,,,,,,,5b8eab705206680001da3583,001,2025-05-01_18h27.31.722,empathy_intonation_perc,2024.1.4,Win32,142.8571429,,,,,,,,,,,,,,59,feo,,,,,,187.7795,188.9106,1,0,0.6193,,0,114,114,58,1,non_cognate,1,REAL,FALSA
,,,,,,,,,5b8eab705206680001da3583,001,2025-05-01_18h27.31.722,empathy_intonation_perc,2024.1.4,Win32,142.8571429,,,,,,,,,,,,,,107,plago,,,,,,188.9109,190.3064,0,1,0.8826,,0,115,115,106,1,pseudoword,0,REAL,FALSA
,,,,,,,,,5b8eab705206680001da3583,001,2025-05-01_18h27.31.722,empathy_intonation_perc,2024.1.4,Win32,142.8571429,,,,,,,,,,,,,,138,tator,,,,,,190.3067,191.4661,0,1,0.6464,,0,116,116,137,1,pseudoword,0,REAL,FALSA
,,,,,,,,,5b8eab705206680001da3583,001,2025-05-01_18h27.31.722,empathy_intonation_perc,2024.1.4,Win32,142.8571429,,,,,,,,,,,,,,142,parre,,,,,,191.4663,192.6468,0,1,0.6732,,0,117,117,141,1,pseudoword,0,REAL,FALSA
,,,,,,,,,5b8eab705206680001da3583,001,2025-05-01_18h27.31.722,empathy_intonation_perc,2024.1.4,Win32,142.8571429,,,,,,,,,,,,,,123,arane,,,,,,192.6471,193.8344,0,1,0.6724,,0,118,118,122,1,pseudoword,0,REAL,FALSA
,,,,,,,,,5b8eab705206680001da3583,001,2025-05-01_18h27.31.722,empathy_intonation_perc,2024.1.4,Win32,142.8571429,,,,,,,,,,,,,,85,enorme,,,,,,193.8346,194.9384,1,0,0.5904,,0,119,119,84,1,non_cognate,1,REAL,FALSA
,,,,,,,,,5b8eab705206680001da3583,001,2025-05-01_18h27.31.722,empathy_intonation_perc,2024.1.4,Win32,142.8571429,,,,,,,,,,,,,,130,dubo,,,,,,194.9385,196.0288,0,1,0.5773,,0,120,120,129,1,pseudoword,0,REAL,FALSA
,,,,,,,,,5b8eab705206680001da3583,001,2025-05-01_18h27.31.722,empathy_intonation_perc,2024.1.4,Win32,142.8571429,,,,,,,,,,,,,,122,boñaz,,,,,,196.0292,197.1259,0,1,0.5837,,0,121,121,121,1,pseudoword,0,REAL,FALSA
,,,,,,,,,5b8eab705206680001da3583,001,2025-05-01_18h27.31.722,empathy_intonation_perc,2024.1.4,Win32,142.8571429,,,,,,,,,,,,,,69,tiza,,,,,,197.126,198.2508,0,1,0.6103,,0,122,122,68,1,non_cognate,1,REAL,FALSA
,,,,,,,,,5b8eab705206680001da3583,001,2025-05-01_18h27.31.722,empathy_intonation_perc,2024.1.4,Win32,142.8571429,,,,,,,,,,,,,,35,aurora,,,,,,198.251,199.4249,1,0,0.6636,,0,123,123,34,1,two_way_cognate,1,REAL,FALSA
,,,,,,,,,5b8eab705206680001da3583,001,2025-05-01_18h27.31.722,empathy_intonation_perc,2024.1.4,Win32,142.8571429,,,,,,,,,,,,,,1,moral,,,,,,199.4251,200.4731,1,0,0.5335,,0,124,124,0,1,three_way_cognate,1,REAL,FALSA
,,,,,,,,,5b8eab705206680001da3583,001,2025-05-01_18h27.31.722,empathy_intonation_perc,2024.1.4,Win32,142.8571429,,,,,,,,,,,,,,72,rostro,,,,,,200.4733,201.5495,0,1,0.5649,,0,125,125,71,1,non_cognate,1,REAL,FALSA
,,,,,,,,,5b8eab705206680001da3583,001,2025-05-01_18h27.31.722,empathy_intonation_perc,2024.1.4,Win32,142.8571429,,,,,,,,,,,,,,7,albino,,,,,,201.5497,202.7508,1,0,0.69,,0,126,126,6,1,three_way_cognate,1,REAL,FALSA
,,,,,,,,,5b8eab705206680001da3583,001,2025-05-01_18h27.31.722,empathy_intonation_perc,2024.1.4,Win32,142.8571429,,,,,,,,,,,,,,137,trugo,,,,,,202.751,203.8274,0,1,0.5714,,0,127,127,136,1,pseudoword,0,REAL,FALSA
,,,,,,,,,5b8eab705206680001da3583,001,2025-05-01_18h27.31.722,empathy_intonation_perc,2024.1.4,Win32,142.8571429,,,,,,,,,,,,,,154,harvé,,,,,,203.8276,204.9662,0,1,0.6273,,0,128,128,153,1,pseudoword,0,REAL,FALSA
,,,,,,,,,5b8eab705206680001da3583,001,2025-05-01_18h27.31.722,empathy_intonation_perc,2024.1.4,Win32,142.8571429,,,,,,,,,,,,,,74,ala,,,,,,204.9663,206.2507,1,0,0.7702,,0,129,129,73,1,non_cognate,1,REAL,FALSA
,,,,,,,,,5b8eab705206680001da3583,001,2025-05-01_18h27.31.722,empathy_intonation_perc,2024.1.4,Win32,142.8571429,,,,,,,,,,,,,,176,gripar,,,,,,206.251,207.3897,1,0,0.6291,,0,130,130,175,1,pseudoword,0,REAL,FALSA
,,,,,,,,,5b8eab705206680001da3583,001,2025-05-01_18h27.31.722,empathy_intonation_perc,2024.1.4,Win32,142.8571429,,,,,,,,,,,,,,48,pelvis,,,,,,207.39,208.716,1,0,0.8093,,0,131,131,47,1,two_way_cognate,1,REAL,FALSA
,,,,,,,,,5b8eab705206680001da3583,001,2025-05-01_18h27.31.722,empathy_intonation_perc,2024.1.4,Win32,142.8571429,,,,,,,,,,,,,,185,aljizo,,,,,,208.7163,209.8271,0,1,0.596,,0,132,132,184,1,pseudoword,0,REAL,FALSA
,,,,,,,,,5b8eab705206680001da3583,001,2025-05-01_18h27.31.722,empathy_intonation_perc,2024.1.4,Win32,142.8571429,,,,,,,,,,,,,,12,dogma,,,,,,209.8274,211.1188,1,0,0.776,,0,133,133,11,1,three_way_cognate,1,REAL,FALSA
,,,,,,,,,5b8eab705206680001da3583,001,2025-05-01_18h27.31.722,empathy_intonation_perc,2024.1.4,Win32,142.8571429,,,,,,,,,,,,,,144,diroco,,,,,,211.1191,212.2021,0,1,0.5687,,0,134,134,143,1,pseudoword,0,REAL,FALSA
,,,,,,,,,5b8eab705206680001da3583,001,2025-05-01_18h27.31.722,empathy_intonation_perc,2024.1.4,Win32,142.8571429,,,,,,,,,,,,,,121,barbs,,,,,,212.2023,213.4453,0,1,0.732,,0,135,135,120,1,pseudoword,0,REAL,FALSA
,,,,,,,,,5b8eab705206680001da3583,001,2025-05-01_18h27.31.722,empathy_intonation_perc,2024.1.4,Win32,142.8571429,,,,,,,,,,,,,,136,hueas,,,,,,213.4454,214.6813,0,1,0.724,,0,136,136,135,1,pseudoword,0,REAL,FALSA
,,,,,,,,,5b8eab705206680001da3583,001,2025-05-01_18h27.31.722,empathy_intonation_perc,2024.1.4,Win32,142.8571429,,,,,,,,,,,,,,133,conso,,,,,,214.6815,215.841,0,1,0.6447,,0,137,137,132,1,pseudoword,0,REAL,FALSA
,,,,,,,,,5b8eab705206680001da3583,001,2025-05-01_18h27.31.722,empathy_intonation_perc,2024.1.4,Win32,142.8571429,,,,,,,,,,,,,,6,horror,,,,,,215.8412,216.9388,1,0,0.5816,,0,138,138,5,1,three_way_cognate,1,REAL,FALSA
,,,,,,,,,5b8eab705206680001da3583,001,2025-05-01_18h27.31.722,empathy_intonation_perc,2024.1.4,Win32,142.8571429,,,,,,,,,,,,,,33,collar,,,,,,216.9392,218.3132,1,0,0.8626,,0,139,139,32,1,two_way_cognate,1,REAL,FALSA
,,,,,,,,,5b8eab705206680001da3583,001,2025-05-01_18h27.31.722,empathy_intonation_perc,2024.1.4,Win32,142.8571429,,,,,,,,,,,,,,47,color,,,,,,218.3134,219.4944,1,0,0.667,,0,140,140,46,1,two_way_cognate,1,REAL,FALSA
,,,,,,,,,5b8eab705206680001da3583,001,2025-05-01_18h27.31.722,empathy_intonation_perc,2024.1.4,Win32,142.8571429,,,,,,,,,,,,,,180,pupica,,,,,,219.4948,220.6881,0,1,0.6774,,0,141,141,179,1,pseudoword,0,REAL,FALSA
,,,,,,,,,5b8eab705206680001da3583,001,2025-05-01_18h27.31.722,empathy_intonation_perc,2024.1.4,Win32,142.8571429,,,,,,,,,,,,,,114,dibrea,,,,,,220.6884,221.8339,0,1,0.6347,,0,142,142,113,1,pseudoword,0,REAL,FALSA
,,,,,,,,,5b8eab705206680001da3583,001,2025-05-01_18h27.31.722,empathy_intonation_perc,2024.1.4,Win32,142.8571429,,,,,,,,,,,,,,66,aleta,,,,,,221.8341,222.9798,0,1,0.6391,,0,143,143,65,1,non_cognate,1,REAL,FALSA
,,,,,,,,,5b8eab705206680001da3583,001,2025-05-01_18h27.31.722,empathy_intonation_perc,2024.1.4,Win32,142.8571429,,,,,,,,,,,,,,100,épinas,,,,,,222.9801,224.1534,0,1,0.6607,,0,144,144,99,1,pseudoword,0,REAL,FALSA
,,,,,,,,,5b8eab705206680001da3583,001,2025-05-01_18h27.31.722,empathy_intonation_perc,2024.1.4,Win32,142.8571429,,,,,,,,,,,,,,83,hálito,,,,,,224.1536,225.2644,0,1,0.6005,,0,145,145,82,1,non_cognate,1,REAL,FALSA
,,,,,,,,,5b8eab705206680001da3583,001,2025-05-01_18h27.31.722,empathy_intonation_perc,2024.1.4,Win32,142.8571429,,,,,,,,,,,,,,125,ceme,,,,,,225.2646,226.6881,0,1,0.9097,,0,146,146,124,1,pseudoword,0,REAL,FALSA
,,,,,,,,,5b8eab705206680001da3583,001,2025-05-01_18h27.31.722,empathy_intonation_perc,2024.1.4,Win32,142.8571429,,,,,,,,,,,,,,165,chote,,,,,,226.6883,227.9103,0,1,0.7075,,0,147,147,164,1,pseudoword,0,REAL,FALSA
,,,,,,,,,5b8eab705206680001da3583,001,2025-05-01_18h27.31.722,empathy_intonation_perc,2024.1.4,Win32,142.8571429,,,,,,,,,,,,,,96,caro,,,,,,227.9104,229.0978,1,0,0.6741,,0,148,148,95,1,non_cognate,1,REAL,FALSA
,,,,,,,,,5b8eab705206680001da3583,001,2025-05-01_18h27.31.722,empathy_intonation_perc,2024.1.4,Win32,142.8571429,,,,,,,,,,,,,,16,chat,,,,,,229.0979,230.2228,1,0,0.6108,,0,149,149,15,1,three_way_cognate,1,REAL,FALSA
,,,,,,,,,5b8eab705206680001da3583,001,2025-05-01_18h27.31.722,empathy_intonation_perc,2024.1.4,Win32,142.8571429,,,,,,,,,,,,,,24,retina,,,,,,230.223,231.5771,1,0,0.8405,,0,150,150,23,1,three_way_cognate,1,REAL,FALSA
,,,,,,,,,5b8eab705206680001da3583,001,2025-05-01_18h27.31.722,empathy_intonation_perc,2024.1.4,Win32,142.8571429,,,,,,,,,,,,,,15,test,,,,,,231.5773,233.0214,0,1,0.9323,,0,151,151,14,1,three_way_cognate,1,REAL,FALSA
,,,,,,,,,5b8eab705206680001da3583,001,2025-05-01_18h27.31.722,empathy_intonation_perc,2024.1.4,Win32,142.8571429,,,,,,,,,,,,,,187,nomata,,,,,,233.0217,234.1811,0,1,0.6471,,0,152,152,186,1,pseudoword,0,REAL,FALSA
,,,,,,,,,5b8eab705206680001da3583,001,2025-05-01_18h27.31.722,empathy_intonation_perc,2024.1.4,Win32,142.8571429,,,,,,,,,,,,,,37,torso,,,,,,234.1814,235.5081,0,1,0.8155,,0,153,153,36,1,two_way_cognate,1,REAL,FALSA
,,,,,,,,,5b8eab705206680001da3583,001,2025-05-01_18h27.31.722,empathy_intonation_perc,2024.1.4,Win32,142.8571429,,,,,,,,,,,,,,169,pitis,,,,,,235.5084,236.8546,0,1,0.8354,,0,154,154,168,1,pseudoword,0,REAL,FALSA
,,,,,,,,,5b8eab705206680001da3583,001,2025-05-01_18h27.31.722,empathy_intonation_perc,2024.1.4,Win32,142.8571429,,,,,,,,,,,,,,43,honor,,,,,,236.8548,238.0773,1,0,0.7107,,0,155,155,42,1,two_way_cognate,1,REAL,FALSA
,,,,,,,,,5b8eab705206680001da3583,001,2025-05-01_18h27.31.722,empathy_intonation_perc,2024.1.4,Win32,142.8571429,,,,,,,,,,,,,,155,kugis,,,,,,238.0777,239.1396,0,1,0.549,,0,156,156,154,1,pseudoword,0,REAL,FALSA
,,,,,,,,,5b8eab705206680001da3583,001,2025-05-01_18h27.31.722,empathy_intonation_perc,2024.1.4,Win32,142.8571429,,,,,,,,,,,,,,188,amplir,,,,,,239.1399,240.2366,0,1,0.5807,,0,157,157,187,1,pseudoword,0,REAL,FALSA
,,,,,,,,,5b8eab705206680001da3583,001,2025-05-01_18h27.31.722,empathy_intonation_perc,2024.1.4,Win32,142.8571429,,,,,,,,,,,,,,80,cuenco,,,,,,240.2368,241.327,0,1,0.5754,,0,158,158,79,1,non_cognate,1,REAL,FALSA
,,,,,,,,,5b8eab705206680001da3583,001,2025-05-01_18h27.31.722,empathy_intonation_perc,2024.1.4,Win32,142.8571429,,,,,,,,,,,,,,84,aviso,,,,,,241.3273,242.3616,0,1,0.5219,,0,159,159,83,1,non_cognate,1,REAL,FALSA
,,,,,,,,,5b8eab705206680001da3583,001,2025-05-01_18h27.31.722,empathy_intonation_perc,2024.1.4,Win32,142.8571429,,,,,,,,,,,,,,161,civas,,,,,,242.3619,243.5976,0,1,0.7216,,0,160,160,160,1,pseudoword,0,REAL,FALSA
,,,,,,,,,5b8eab705206680001da3583,001,2025-05-01_18h27.31.722,empathy_intonation_perc,2024.1.4,Win32,142.8571429,,,,,,,,,,,,,,76,chocar,,,,,,243.5979,244.7991,0,1,0.686,,0,161,161,75,1,non_cognate,1,REAL,FALSA
,,,,,,,,,5b8eab705206680001da3583,001,2025-05-01_18h27.31.722,empathy_intonation_perc,2024.1.4,Win32,142.8571429,,,,,,,,,,,,,,63,hilo,,,,,,244.7994,245.8824,1,0,0.5684,,0,162,162,62,1,non_cognate,1,REAL,FALSA
,,,,,,,,,5b8eab705206680001da3583,001,2025-05-01_18h27.31.722,empathy_intonation_perc,2024.1.4,Win32,142.8571429,,,,,,,,,,,,,,25,vigor,,,,,,245.8826,246.9448,1,0,0.5521,,0,163,163,24,1,two_way_cognate,1,REAL,FALSA
,,,,,,,,,5b8eab705206680001da3583,001,2025-05-01_18h27.31.722,empathy_intonation_perc,2024.1.4,Win32,142.8571429,,,,,,,,,,,,,,53,punta,,,,,,246.945,248.0839,1,0,0.6289,,0,164,164,52,1,non_cognate,1,REAL,FALSA
,,,,,,,,,5b8eab705206680001da3583,001,2025-05-01_18h27.31.722,empathy_intonation_perc,2024.1.4,Win32,142.8571429,,,,,,,,,,,,,,186,rizate,,,,,,248.0841,249.3406,0,1,0.7414,,0,165,165,185,1,pseudoword,0,REAL,FALSA
,,,,,,,,,5b8eab705206680001da3583,001,2025-05-01_18h27.31.722,empathy_intonation_perc,2024.1.4,Win32,142.8571429,,,,,,,,,,,,,,23,plural,,,,,,249.3408,250.424,1,0,0.5684,,0,166,166,22,1,three_way_cognate,1,REAL,FALSA
,,,,,,,,,5b8eab705206680001da3583,001,2025-05-01_18h27.31.722,empathy_intonation_perc,2024.1.4,Win32,142.8571429,,,,,,,,,,,,,,108,jauda,,,,,,250.4243,251.5004,0,1,0.5667,,0,167,167,107,1,pseudoword,0,REAL,FALSA
,,,,,,,,,5b8eab705206680001da3583,001,2025-05-01_18h27.31.722,empathy_intonation_perc,2024.1.4,Win32,142.8571429,,,,,,,,,,,,,,54,tapón,,,,,,251.5006,252.6045,0,1,0.5891,,0,168,168,53,1,non_cognate,1,REAL,FALSA
,,,,,,,,,5b8eab705206680001da3583,001,2025-05-01_18h27.31.722,empathy_intonation_perc,2024.1.4,Win32,142.8571429,,,,,,,,,,,,,,14,aura,,,,,,252.6048,253.7088,1,0,0.5919,,0,169,169,13,1,three_way_cognate,1,REAL,FALSA
,,,,,,,,,5b8eab705206680001da3583,001,2025-05-01_18h27.31.722,empathy_intonation_perc,2024.1.4,Win32,142.8571429,,,,,,,,,,,,,,150,cricó,,,,,,253.7091,254.7922,0,1,0.5683,,0,170,170,149,1,pseudoword,0,REAL,FALSA
,,,,,,,,,5b8eab705206680001da3583,001,2025-05-01_18h27.31.722,empathy_intonation_perc,2024.1.4,Win32,142.8571429,,,,,,,,,,,,,,120,mauja,,,,,,254.7924,255.9379,0,1,0.6302,,0,171,171,119,1,pseudoword,0,REAL,FALSA
,,,,,,,,,5b8eab705206680001da3583,001,2025-05-01_18h27.31.722,empathy_intonation_perc,2024.1.4,Win32,142.8571429,,,,,,,,,,,,,,20,trauma,,,,,,255.938,257.1184,1,0,0.6657,,0,172,172,19,1,three_way_cognate,1,REAL,FALSA
,,,,,,,,,5b8eab705206680001da3583,001,2025-05-01_18h27.31.722,empathy_intonation_perc,2024.1.4,Win32,142.8571429,,,,,,,,,,,,,,102,coyo,,,,,,257.1187,258.2574,0,1,0.6239,,0,173,173,101,1,pseudoword,0,REAL,FALSA
,,,,,,,,,5b8eab705206680001da3583,001,2025-05-01_18h27.31.722,empathy_intonation_perc,2024.1.4,Win32,142.8571429,,,,,,,,,,,,,,126,tobre,,,,,,258.2577,259.4031,0,1,0.6287,,0,174,174,125,1,pseudoword,0,REAL,FALSA
,,,,,,,,,5b8eab705206680001da3583,001,2025-05-01_18h27.31.722,empathy_intonation_perc,2024.1.4,Win32,142.8571429,,,,,,,,,,,,,,134,molor,,,,,,259.4035,260.5836,0,1,0.6672,,0,175,175,133,1,pseudoword,0,REAL,FALSA
,,,,,,,,,5b8eab705206680001da3583,001,2025-05-01_18h27.31.722,empathy_intonation_perc,2024.1.4,Win32,142.8571429,,,,,,,,,,,,,,49,teñir,,,,,,260.5838,261.7225,0,1,0.6242,,0,176,176,48,1,non_cognate,1,REAL,FALSA
,,,,,,,,,5b8eab705206680001da3583,001,2025-05-01_18h27.31.722,empathy_intonation_perc,2024.1.4,Win32,142.8571429,,,,,,,,,,,,,,181,gravés,,,,,,261.7227,262.8756,1,0,0.6397,,0,177,177,180,1,pseudoword,0,REAL,FALSA
,,,,,,,,,5b8eab705206680001da3583,001,2025-05-01_18h27.31.722,empathy_intonation_perc,2024.1.4,Win32,142.8571429,,,,,,,,,,,,,,179,suelet,,,,,,262.876,263.9377,0,1,0.5488,,0,178,178,178,1,pseudoword,0,REAL,FALSA
,,,,,,,,,5b8eab705206680001da3583,001,2025-05-01_18h27.31.722,empathy_intonation_perc,2024.1.4,Win32,142.8571429,,,,,,,,,,,,,,145,rúo,,,,,,263.938,264.9932,0,1,0.5434,,0,179,179,144,1,pseudoword,0,REAL,FALSA
,,,,,,,,,5b8eab705206680001da3583,001,2025-05-01_18h27.31.722,empathy_intonation_perc,2024.1.4,Win32,142.8571429,,,,,,,,,,,,,,152,prave,,,,,,264.9935,266.0696,0,1,0.5624,,0,180,180,151,1,pseudoword,0,REAL,FALSA
,,,,,,,,,5b8eab705206680001da3583,001,2025-05-01_18h27.31.722,empathy_intonation_perc,2024.1.4,Win32,142.8571429,,,,,,,,,,,,,,79,suelo,,,,,,266.0699,267.23,1,0,0.6492,,0,181,181,78,1,non_cognate,1,REAL,FALSA
,,,,,,,,,5b8eab705206680001da3583,001,2025-05-01_18h27.31.722,empathy_intonation_perc,2024.1.4,Win32,142.8571429,,,,,,,,,,,,,,17,clan,,,,,,267.2304,268.3266,0,1,0.5831,,0,182,182,16,1,three_way_cognate,1,REAL,FALSA
,,,,,,,,,5b8eab705206680001da3583,001,2025-05-01_18h27.31.722,empathy_intonation_perc,2024.1.4,Win32,142.8571429,,,,,,,,,,,,,,93,tapa,,,,,,268.3268,269.4515,1,0,0.6091,,0,183,183,92,1,non_cognate,1,REAL,FALSA
,,,,,,,,,5b8eab705206680001da3583,001,2025-05-01_18h27.31.722,empathy_intonation_perc,2024.1.4,Win32,142.8571429,,,,,,,,,,,,,,86,cuenco,,,,,,269.4517,270.5488,0,1,0.5824,,0,184,184,85,1,non_cognate,1,REAL,FALSA
,,,,,,,,,5b8eab705206680001da3583,001,2025-05-01_18h27.31.722,empathy_intonation_perc,2024.1.4,Win32,142.8571429,,,,,,,,,,,,,,162,cengo,,,,,,270.549,271.7988,0,1,0.7352,,0,185,185,161,1,pseudoword,0,REAL,FALSA
,,,,,,,,,5b8eab705206680001da3583,001,2025-05-01_18h27.31.722,empathy_intonation_perc,2024.1.4,Win32,142.8571429,,,,,,,,,,,,,,106,diebro,,,,,,271.799,272.9031,0,1,0.5914,,0,186,186,105,1,pseudoword,0,REAL,FALSA
,,,,,,,,,5b8eab705206680001da3583,001,2025-05-01_18h27.31.722,empathy_intonation_perc,2024.1.4,Win32,142.8571429,,,,,,,,,,,,,,147,alla,,,,,,272.9035,273.9654,1,0,0.5475,,0,187,187,146,1,pseudoword,0,REAL,FALSA
,,,,,,,,,5b8eab705206680001da3583,001,2025-05-01_18h27.31.722,empathy_intonation_perc,2024.1.4,Win32,142.8571429,,,,,,,,,,,,,,13,plan,,,,,,273.9656,275.1738,1,0,0.6942,,0,188,188,12,1,three_way_cognate,1,REAL,FALSA
,,,,,,,,,5b8eab705206680001da3583,001,2025-05-01_18h27.31.722,empathy_intonation_perc,2024.1.4,Win32,142.8571429,,,,,,,,,,,,,,173,mibro,,,,,,275.1741,276.2782,0,1,0.5917,,0,189,189,172,1,pseudoword,0,REAL,FALSA
,,,,,,,,,5b8eab705206680001da3583,001,2025-05-01_18h27.31.722,empathy_intonation_perc,2024.1.4,Win32,142.8571429,,,,,,,,,,,,,,156,ozoso,,,,,,276.2785,277.4168,1,0,0.6271,,0,190,190,155,1,pseudoword,0,REAL,FALSA
,,,,,,,,,5b8eab705206680001da3583,001,2025-05-01_18h27.31.722,empathy_intonation_perc,2024.1.4,Win32,142.8571429,,,,,,,,,,,,,,41,pasta,,,,,,277.417,278.556,1,0,0.6244,,0,191,191,40,1,two_way_cognate,1,REAL,FALSA
