lextale_instructions.started,lextale_instructions.stopped,lextale_instructions_loop.thisRepN,lextale_instructions_loop.thisTrialN,lextale_instructions_loop.thisN,lextale_instructions_loop.thisIndex,lextale_instructions_loop.ran,instructions_text,continue_text,participant,session,date,expName,psychopyVersion,OS,frameRate,lextale_practice.started,lextale_practice.stopped,key_resp_lextale_practice.keys,key_resp_lextale_practice.corr,key_resp_lextale_practice.rt,key_resp_lextale_practice.duration,lextale_practice_feedback.started,lextale_practice_feedback.stopped,lextale_practice_trials.thisRepN,lextale_practice_trials.thisTrialN,lextale_practice_trials.thisN,lextale_practice_trials.thisIndex,lextale_practice_trials.ran,stim,word,correct_response,prac_button_real,prac_button_false,lextale_check.started,lextale_check.stopped,lextale_trial.started,lextale_trial.stopped,key_resp_lextale_trial.keys,key_resp_lextale_trial.corr,key_resp_lextale_trial.rt,key_resp_lextale_trial.duration,lextail_trials.thisRepN,lextail_trials.thisTrialN,lextail_trials.thisN,lextail_trials.thisIndex,lextail_trials.ran,type,correct_reponse,button_real,button_false
0.0021,4.6101,0,0,0,0,1,"Este es un test de vocabulario en español. 
  
  A continuación vas a ver 90 secuencias de letras que parecen 'españolas'.
  
  Solo algunas de ellas son palabras de verdad.",(presiona la barra espaciadora para continuar),5c39afacf179bd0001c8756a,001,2025-04-30_10h39.46.345,empathy_intonation_perc,2024.1.4,MacIntel,121.9512195,,,,,,,,,,,,,,,,,,,,,,,,,,,,,,,,,,,
4.6105,19.3096,0,1,1,1,1,"Por favor, señala las palabras que tú conoces (aquellas que estás convencido que son palabras españolas, incluso aunque no seas capaz de dar el significado preciso).",(presiona la barra espaciadora para continuar),5c39afacf179bd0001c8756a,001,2025-04-30_10h39.46.345,empathy_intonation_perc,2024.1.4,MacIntel,121.9512195,,,,,,,,,,,,,,,,,,,,,,,,,,,,,,,,,,,
19.31,38.3513,0,2,2,2,1,Pero cuidado: los errores se penalizan. Por eso no tiene sentido tratar de incrementar tu puntuación marcando como reales palabras que nunca has visto.,(presiona la barra espaciadora para continuar),5c39afacf179bd0001c8756a,001,2025-04-30_10h39.46.345,empathy_intonation_perc,2024.1.4,MacIntel,121.9512195,,,,,,,,,,,,,,,,,,,,,,,,,,,,,,,,,,,
38.3515,48.1006,0,3,3,3,1,"Presiona la tecla 1 si piensas que es una palabra real y la tecla 
  0 si piensas que es una palabra falsa. 
  
  Vamos a practicar un poco...",(presiona la barra espaciadora para continuar),5c39afacf179bd0001c8756a,001,2025-04-30_10h39.46.345,empathy_intonation_perc,2024.1.4,MacIntel,121.9512195,,,,,,,,,,,,,,,,,,,,,,,,,,,,,,,,,,,
,,,,,,,,,5c39afacf179bd0001c8756a,001,2025-04-30_10h39.46.345,empathy_intonation_perc,2024.1.4,MacIntel,121.9512195,48.1087,51.2611,0,1,2.6249,,51.2615,52.2587,0,0,0,0,1,0,depiste,0,REAL,FALSA,,,,,,,,,,,,,,,,,
,,,,,,,,,5c39afacf179bd0001c8756a,001,2025-04-30_10h39.46.345,empathy_intonation_perc,2024.1.4,MacIntel,121.9512195,52.259,54.0171,1,1,1.2475,,54.0172,55.0178,0,1,1,1,1,0,sí,1,REAL,FALSA,,,,,,,,,,,,,,,,,
,,,,,,,,,5c39afacf179bd0001c8756a,001,2025-04-30_10h39.46.345,empathy_intonation_perc,2024.1.4,MacIntel,121.9512195,55.0181,56.7178,0,1,1.1812,,56.7178,57.7178,0,2,2,2,1,0,coné,0,REAL,FALSA,,,,,,,,,,,,,,,,,
,,,,,,,,,5c39afacf179bd0001c8756a,001,2025-04-30_10h39.46.345,empathy_intonation_perc,2024.1.4,MacIntel,121.9512195,57.7179,59.2179,1,0,0.9802,,59.2179,60.2178,0,3,3,3,1,0,calpar,0,REAL,FALSA,,,,,,,,,,,,,,,,,
,,,,,,,,,5c39afacf179bd0001c8756a,001,2025-04-30_10h39.46.345,empathy_intonation_perc,2024.1.4,MacIntel,121.9512195,60.218,61.8594,1,0,1.1259,,61.8594,62.8594,0,4,4,4,1,0,joten,0,REAL,FALSA,,,,,,,,,,,,,,,,,
,,,,,,,,,5c39afacf179bd0001c8756a,001,2025-04-30_10h39.46.345,empathy_intonation_perc,2024.1.4,MacIntel,121.9512195,62.8597,65.3754,0,0,1.999,,65.3755,66.377,0,5,5,5,1,0,sacapuntas,1,REAL,FALSA,,,,,,,,,,,,,,,,,
,,,,,,,,,5c39afacf179bd0001c8756a,001,2025-04-30_10h39.46.345,empathy_intonation_perc,2024.1.4,MacIntel,121.9512195,66.3777,69.6673,1,0,2.7709,,69.6674,70.6677,0,6,6,6,1,0,priba,0,REAL,FALSA,,,,,,,,,,,,,,,,,
,,,,,,,,,5c39afacf179bd0001c8756a,001,2025-04-30_10h39.46.345,empathy_intonation_perc,2024.1.4,MacIntel,121.9512195,70.6683,72.8679,0,1,1.6779,,72.8679,73.8677,0,7,7,7,1,0,pelasula,0,REAL,FALSA,,,,,,,,,,,,,,,,,
,,,,,,,,,5c39afacf179bd0001c8756a,001,2025-04-30_10h39.46.345,empathy_intonation_perc,2024.1.4,MacIntel,121.9512195,73.8679,75.2845,1,1,0.898,,75.2846,76.2835,0,8,8,8,1,0,bien,1,REAL,FALSA,,,,,,,,,,,,,,,,,
,,,,,,,,,5c39afacf179bd0001c8756a,001,2025-04-30_10h39.46.345,empathy_intonation_perc,2024.1.4,MacIntel,121.9512195,76.2837,77.7012,1,1,0.9043,,77.7012,78.7011,0,9,9,9,1,0,casa,1,REAL,FALSA,,,,,,,,,,,,,,,,,
,,,,,,,,,5c39afacf179bd0001c8756a,001,2025-04-30_10h39.46.345,empathy_intonation_perc,2024.1.4,MacIntel,121.9512195,78.7012,80.2105,1,0,0.9966,,80.2106,81.21,0,10,10,10,1,0,lejo,0,REAL,FALSA,,,,,,,,,,,,,,,,,
,,,,,,,,,5c39afacf179bd0001c8756a,001,2025-04-30_10h39.46.345,empathy_intonation_perc,2024.1.4,MacIntel,121.9512195,81.2106,83.0762,0,1,1.3446,,83.0763,84.0763,0,11,11,11,1,0,pretantas,0,REAL,FALSA,,,,,,,,,,,,,,,,,
,,,,,,,,,5c39afacf179bd0001c8756a,001,2025-04-30_10h39.46.345,empathy_intonation_perc,2024.1.4,MacIntel,121.9512195,,,,,,,,,,,,,,,,,,,84.0766,87.0529,,,,,,,,,,,,,,,
,,,,,,,,,5c39afacf179bd0001c8756a,001,2025-04-30_10h39.46.345,empathy_intonation_perc,2024.1.4,MacIntel,121.9512195,,,,,,,,,,,,,,20,trauma,,,,,,87.0609,90.752,1,0,3.1741,,0,0,0,19,1,three_way_cognate,1,REAL,FALSA
,,,,,,,,,5c39afacf179bd0001c8756a,001,2025-04-30_10h39.46.345,empathy_intonation_perc,2024.1.4,MacIntel,121.9512195,,,,,,,,,,,,,,67,llamar,,,,,,90.7525,92.3843,1,0,1.1123,,0,1,1,66,1,non_cognate,1,REAL,FALSA
,,,,,,,,,5c39afacf179bd0001c8756a,001,2025-04-30_10h39.46.345,empathy_intonation_perc,2024.1.4,MacIntel,121.9512195,,,,,,,,,,,,,,135,panté,,,,,,92.3845,95.3177,0,1,2.4196,,0,2,2,134,1,pseudoword,0,REAL,FALSA
,,,,,,,,,5c39afacf179bd0001c8756a,001,2025-04-30_10h39.46.345,empathy_intonation_perc,2024.1.4,MacIntel,121.9512195,,,,,,,,,,,,,,71,torta,,,,,,95.3179,97.1754,1,0,1.3371,,0,3,3,70,1,non_cognate,1,REAL,FALSA
,,,,,,,,,5c39afacf179bd0001c8756a,001,2025-04-30_10h39.46.345,empathy_intonation_perc,2024.1.4,MacIntel,121.9512195,,,,,,,,,,,,,,168,cobén,,,,,,97.176,98.8001,0,1,1.1137,,0,4,4,167,1,pseudoword,0,REAL,FALSA
,,,,,,,,,5c39afacf179bd0001c8756a,001,2025-04-30_10h39.46.345,empathy_intonation_perc,2024.1.4,MacIntel,121.9512195,,,,,,,,,,,,,,103,vueras,,,,,,98.8003,100.9305,0,1,1.6091,,0,5,5,102,1,pseudoword,0,REAL,FALSA
,,,,,,,,,5c39afacf179bd0001c8756a,001,2025-04-30_10h39.46.345,empathy_intonation_perc,2024.1.4,MacIntel,121.9512195,,,,,,,,,,,,,,2,tumor,,,,,,100.9308,102.6726,1,0,1.2254,,0,6,6,1,1,three_way_cognate,1,REAL,FALSA
,,,,,,,,,5c39afacf179bd0001c8756a,001,2025-04-30_10h39.46.345,empathy_intonation_perc,2024.1.4,MacIntel,121.9512195,,,,,,,,,,,,,,126,tobre,,,,,,102.6729,104.3549,0,1,1.1619,,0,7,7,125,1,pseudoword,0,REAL,FALSA
,,,,,,,,,5c39afacf179bd0001c8756a,001,2025-04-30_10h39.46.345,empathy_intonation_perc,2024.1.4,MacIntel,121.9512195,,,,,,,,,,,,,,101,losco,,,,,,104.355,105.9465,0,1,1.0761,,0,8,8,100,1,pseudoword,0,REAL,FALSA
,,,,,,,,,5c39afacf179bd0001c8756a,001,2025-04-30_10h39.46.345,empathy_intonation_perc,2024.1.4,MacIntel,121.9512195,,,,,,,,,,,,,,26,enigma,,,,,,105.9467,107.5141,0,1,1.0486,,0,9,9,25,1,two_way_cognate,1,REAL,FALSA
,,,,,,,,,5c39afacf179bd0001c8756a,001,2025-04-30_10h39.46.345,empathy_intonation_perc,2024.1.4,MacIntel,121.9512195,,,,,,,,,,,,,,130,dubo,,,,,,107.5147,108.6481,0,1,0.6097,,0,10,10,129,1,pseudoword,0,REAL,FALSA
,,,,,,,,,5c39afacf179bd0001c8756a,001,2025-04-30_10h39.46.345,empathy_intonation_perc,2024.1.4,MacIntel,121.9512195,,,,,,,,,,,,,,108,jauda,,,,,,108.6484,110.0967,0,1,0.9379,,0,11,11,107,1,pseudoword,0,REAL,FALSA
,,,,,,,,,5c39afacf179bd0001c8756a,001,2025-04-30_10h39.46.345,empathy_intonation_perc,2024.1.4,MacIntel,121.9512195,,,,,,,,,,,,,,106,diebro,,,,,,110.0969,111.2293,0,1,0.6241,,0,12,12,105,1,pseudoword,0,REAL,FALSA
,,,,,,,,,5c39afacf179bd0001c8756a,001,2025-04-30_10h39.46.345,empathy_intonation_perc,2024.1.4,MacIntel,121.9512195,,,,,,,,,,,,,,186,rizate,,,,,,111.2295,112.4714,0,1,0.7295,,0,13,13,185,1,pseudoword,0,REAL,FALSA
,,,,,,,,,5c39afacf179bd0001c8756a,001,2025-04-30_10h39.46.345,empathy_intonation_perc,2024.1.4,MacIntel,121.9512195,,,,,,,,,,,,,,96,caro,,,,,,112.4717,113.7637,1,0,0.7733,,0,14,14,95,1,non_cognate,1,REAL,FALSA
,,,,,,,,,5c39afacf179bd0001c8756a,001,2025-04-30_10h39.46.345,empathy_intonation_perc,2024.1.4,MacIntel,121.9512195,,,,,,,,,,,,,,175,tradía,,,,,,113.7639,115.8876,0,1,1.6044,,0,15,15,174,1,pseudoword,0,REAL,FALSA
,,,,,,,,,5c39afacf179bd0001c8756a,001,2025-04-30_10h39.46.345,empathy_intonation_perc,2024.1.4,MacIntel,121.9512195,,,,,,,,,,,,,,49,teñir,,,,,,115.8879,117.2544,0,1,0.8552,,0,16,16,48,1,non_cognate,1,REAL,FALSA
,,,,,,,,,5c39afacf179bd0001c8756a,001,2025-04-30_10h39.46.345,empathy_intonation_perc,2024.1.4,MacIntel,121.9512195,,,,,,,,,,,,,,141,virios,,,,,,117.2546,118.5972,0,1,0.8273,,0,17,17,140,1,pseudoword,0,REAL,FALSA
,,,,,,,,,5c39afacf179bd0001c8756a,001,2025-04-30_10h39.46.345,empathy_intonation_perc,2024.1.4,MacIntel,121.9512195,,,,,,,,,,,,,,19,mafia,,,,,,118.5975,119.8711,1,0,0.7534,,0,18,18,18,1,three_way_cognate,1,REAL,FALSA
,,,,,,,,,5c39afacf179bd0001c8756a,001,2025-04-30_10h39.46.345,empathy_intonation_perc,2024.1.4,MacIntel,121.9512195,,,,,,,,,,,,,,123,arane,,,,,,119.8714,121.3637,0,1,0.9748,,0,19,19,122,1,pseudoword,0,REAL,FALSA
,,,,,,,,,5c39afacf179bd0001c8756a,001,2025-04-30_10h39.46.345,empathy_intonation_perc,2024.1.4,MacIntel,121.9512195,,,,,,,,,,,,,,185,aljizo,,,,,,121.3639,122.6877,0,1,0.8054,,0,20,20,184,1,pseudoword,0,REAL,FALSA
,,,,,,,,,5c39afacf179bd0001c8756a,001,2025-04-30_10h39.46.345,empathy_intonation_perc,2024.1.4,MacIntel,121.9512195,,,,,,,,,,,,,,7,albino,,,,,,122.6881,124.6052,1,0,1.4007,,0,21,21,6,1,three_way_cognate,1,REAL,FALSA
,,,,,,,,,5c39afacf179bd0001c8756a,001,2025-04-30_10h39.46.345,empathy_intonation_perc,2024.1.4,MacIntel,121.9512195,,,,,,,,,,,,,,63,hilo,,,,,,124.6055,125.9971,0,1,0.8808,,0,22,22,62,1,non_cognate,1,REAL,FALSA
,,,,,,,,,5c39afacf179bd0001c8756a,001,2025-04-30_10h39.46.345,empathy_intonation_perc,2024.1.4,MacIntel,121.9512195,,,,,,,,,,,,,,35,aurora,,,,,,125.9975,127.7292,1,0,1.2163,,0,23,23,34,1,two_way_cognate,1,REAL,FALSA
,,,,,,,,,5c39afacf179bd0001c8756a,001,2025-04-30_10h39.46.345,empathy_intonation_perc,2024.1.4,MacIntel,121.9512195,,,,,,,,,,,,,,58,colcha,,,,,,127.7295,129.1131,0,1,0.8711,,0,24,24,57,1,non_cognate,1,REAL,FALSA
,,,,,,,,,5c39afacf179bd0001c8756a,001,2025-04-30_10h39.46.345,empathy_intonation_perc,2024.1.4,MacIntel,121.9512195,,,,,,,,,,,,,,117,morrá,,,,,,129.1134,130.2886,0,1,0.6639,,0,25,25,116,1,pseudoword,0,REAL,FALSA
,,,,,,,,,5c39afacf179bd0001c8756a,001,2025-04-30_10h39.46.345,empathy_intonation_perc,2024.1.4,MacIntel,121.9512195,,,,,,,,,,,,,,80,cuenco,,,,,,130.2889,131.7383,0,1,0.929,,0,26,26,79,1,non_cognate,1,REAL,FALSA
,,,,,,,,,5c39afacf179bd0001c8756a,001,2025-04-30_10h39.46.345,empathy_intonation_perc,2024.1.4,MacIntel,121.9512195,,,,,,,,,,,,,,36,viable,,,,,,131.7386,132.8385,0,1,0.5844,,0,27,27,35,1,two_way_cognate,1,REAL,FALSA
,,,,,,,,,5c39afacf179bd0001c8756a,001,2025-04-30_10h39.46.345,empathy_intonation_perc,2024.1.4,MacIntel,121.9512195,,,,,,,,,,,,,,133,conso,,,,,,132.8386,134.2804,0,1,0.9211,,0,28,28,132,1,pseudoword,0,REAL,FALSA
,,,,,,,,,5c39afacf179bd0001c8756a,001,2025-04-30_10h39.46.345,empathy_intonation_perc,2024.1.4,MacIntel,121.9512195,,,,,,,,,,,,,,57,regalo,,,,,,134.2807,135.4376,1,0,0.6397,,0,29,29,56,1,non_cognate,1,REAL,FALSA
,,,,,,,,,5c39afacf179bd0001c8756a,001,2025-04-30_10h39.46.345,empathy_intonation_perc,2024.1.4,MacIntel,121.9512195,,,,,,,,,,,,,,132,nocó,,,,,,135.4379,136.5713,0,1,0.6224,,0,30,30,131,1,pseudoword,0,REAL,FALSA
,,,,,,,,,5c39afacf179bd0001c8756a,001,2025-04-30_10h39.46.345,empathy_intonation_perc,2024.1.4,MacIntel,121.9512195,,,,,,,,,,,,,,176,gripar,,,,,,136.5716,138.4383,0,1,1.3439,,0,31,31,175,1,pseudoword,0,REAL,FALSA
,,,,,,,,,5c39afacf179bd0001c8756a,001,2025-04-30_10h39.46.345,empathy_intonation_perc,2024.1.4,MacIntel,121.9512195,,,,,,,,,,,,,,33,collar,,,,,,138.4384,139.7386,1,0,0.7899,,0,32,32,32,1,two_way_cognate,1,REAL,FALSA
,,,,,,,,,5c39afacf179bd0001c8756a,001,2025-04-30_10h39.46.345,empathy_intonation_perc,2024.1.4,MacIntel,121.9512195,,,,,,,,,,,,,,152,prave,,,,,,139.7389,141.096,0,1,0.8469,,0,33,33,151,1,pseudoword,0,REAL,FALSA
,,,,,,,,,5c39afacf179bd0001c8756a,001,2025-04-30_10h39.46.345,empathy_intonation_perc,2024.1.4,MacIntel,121.9512195,,,,,,,,,,,,,,38,halo,,,,,,141.0963,142.4971,0,1,0.892,,0,34,34,37,1,two_way_cognate,1,REAL,FALSA
,,,,,,,,,5c39afacf179bd0001c8756a,001,2025-04-30_10h39.46.345,empathy_intonation_perc,2024.1.4,MacIntel,121.9512195,,,,,,,,,,,,,,190,asumie,,,,,,142.4973,143.972,0,1,0.9568,,0,35,35,189,1,pseudoword,0,REAL,FALSA
,,,,,,,,,5c39afacf179bd0001c8756a,001,2025-04-30_10h39.46.345,empathy_intonation_perc,2024.1.4,MacIntel,121.9512195,,,,,,,,,,,,,,119,esís,,,,,,143.9722,145.4051,0,1,0.9097,,0,36,36,118,1,pseudoword,0,REAL,FALSA
,,,,,,,,,5c39afacf179bd0001c8756a,001,2025-04-30_10h39.46.345,empathy_intonation_perc,2024.1.4,MacIntel,121.9512195,,,,,,,,,,,,,,8,kilo,,,,,,145.4054,146.9543,1,0,1.0306,,0,37,37,7,1,three_way_cognate,1,REAL,FALSA
,,,,,,,,,5c39afacf179bd0001c8756a,001,2025-04-30_10h39.46.345,empathy_intonation_perc,2024.1.4,MacIntel,121.9512195,,,,,,,,,,,,,,5,extra,,,,,,146.9544,148.4459,1,0,0.9824,,0,38,38,4,1,three_way_cognate,1,REAL,FALSA
,,,,,,,,,5c39afacf179bd0001c8756a,001,2025-04-30_10h39.46.345,empathy_intonation_perc,2024.1.4,MacIntel,121.9512195,,,,,,,,,,,,,,78,rendir,,,,,,148.4462,149.7385,1,0,0.7806,,0,39,39,77,1,non_cognate,1,REAL,FALSA
,,,,,,,,,5c39afacf179bd0001c8756a,001,2025-04-30_10h39.46.345,empathy_intonation_perc,2024.1.4,MacIntel,121.9512195,,,,,,,,,,,,,,147,alla,,,,,,149.7386,151.33,1,0,1.0794,,0,40,40,146,1,pseudoword,0,REAL,FALSA
,,,,,,,,,5c39afacf179bd0001c8756a,001,2025-04-30_10h39.46.345,empathy_intonation_perc,2024.1.4,MacIntel,121.9512195,,,,,,,,,,,,,,9,portal,,,,,,151.3302,152.8631,1,0,1.0159,,0,41,41,8,1,three_way_cognate,1,REAL,FALSA
,,,,,,,,,5c39afacf179bd0001c8756a,001,2025-04-30_10h39.46.345,empathy_intonation_perc,2024.1.4,MacIntel,121.9512195,,,,,,,,,,,,,,21,hotel,,,,,,152.8634,153.9886,1,0,0.6142,,0,42,42,20,1,three_way_cognate,1,REAL,FALSA
,,,,,,,,,5c39afacf179bd0001c8756a,001,2025-04-30_10h39.46.345,empathy_intonation_perc,2024.1.4,MacIntel,121.9512195,,,,,,,,,,,,,,111,monue,,,,,,153.9893,155.2886,0,1,0.782,,0,43,43,110,1,pseudoword,0,REAL,FALSA
,,,,,,,,,5c39afacf179bd0001c8756a,001,2025-04-30_10h39.46.345,empathy_intonation_perc,2024.1.4,MacIntel,121.9512195,,,,,,,,,,,,,,116,grigir,,,,,,155.2888,156.8219,0,1,1.012,,0,44,44,115,1,pseudoword,0,REAL,FALSA
,,,,,,,,,5c39afacf179bd0001c8756a,001,2025-04-30_10h39.46.345,empathy_intonation_perc,2024.1.4,MacIntel,121.9512195,,,,,,,,,,,,,,104,estulo,,,,,,156.8222,158.3052,0,1,0.9642,,0,45,45,103,1,pseudoword,0,REAL,FALSA
,,,,,,,,,5c39afacf179bd0001c8756a,001,2025-04-30_10h39.46.345,empathy_intonation_perc,2024.1.4,MacIntel,121.9512195,,,,,,,,,,,,,,39,casual,,,,,,158.3056,159.5303,1,0,0.7059,,0,46,46,38,1,two_way_cognate,1,REAL,FALSA
,,,,,,,,,5c39afacf179bd0001c8756a,001,2025-04-30_10h39.46.345,empathy_intonation_perc,2024.1.4,MacIntel,121.9512195,,,,,,,,,,,,,,37,torso,,,,,,159.5306,160.9877,1,0,0.9378,,0,47,47,36,1,two_way_cognate,1,REAL,FALSA
,,,,,,,,,5c39afacf179bd0001c8756a,001,2025-04-30_10h39.46.345,empathy_intonation_perc,2024.1.4,MacIntel,121.9512195,,,,,,,,,,,,,,46,mortal,,,,,,160.9882,162.3384,1,0,0.8355,,0,48,48,45,1,two_way_cognate,1,REAL,FALSA
,,,,,,,,,5c39afacf179bd0001c8756a,001,2025-04-30_10h39.46.345,empathy_intonation_perc,2024.1.4,MacIntel,121.9512195,,,,,,,,,,,,,,56,pico,,,,,,162.3388,163.7215,1,0,0.8636,,0,49,49,55,1,non_cognate,1,REAL,FALSA
,,,,,,,,,5c39afacf179bd0001c8756a,001,2025-04-30_10h39.46.345,empathy_intonation_perc,2024.1.4,MacIntel,121.9512195,,,,,,,,,,,,,,83,hálito,,,,,,163.7218,165.0555,0,1,0.8187,,0,50,50,82,1,non_cognate,1,REAL,FALSA
,,,,,,,,,5c39afacf179bd0001c8756a,001,2025-04-30_10h39.46.345,empathy_intonation_perc,2024.1.4,MacIntel,121.9512195,,,,,,,,,,,,,,61,aduana,,,,,,165.0559,166.2885,0,1,0.7105,,0,51,51,60,1,non_cognate,1,REAL,FALSA
,,,,,,,,,5c39afacf179bd0001c8756a,001,2025-04-30_10h39.46.345,empathy_intonation_perc,2024.1.4,MacIntel,121.9512195,,,,,,,,,,,,,,129,vinzó,,,,,,166.2888,167.555,0,1,0.7507,,0,52,52,128,1,pseudoword,0,REAL,FALSA
,,,,,,,,,5c39afacf179bd0001c8756a,001,2025-04-30_10h39.46.345,empathy_intonation_perc,2024.1.4,MacIntel,121.9512195,,,,,,,,,,,,,,18,altar,,,,,,167.5552,169.2636,1,0,1.1957,,0,53,53,17,1,three_way_cognate,1,REAL,FALSA
,,,,,,,,,5c39afacf179bd0001c8756a,001,2025-04-30_10h39.46.345,empathy_intonation_perc,2024.1.4,MacIntel,121.9512195,,,,,,,,,,,,,,79,suelo,,,,,,169.2641,170.8049,1,0,1.0201,,0,54,54,78,1,non_cognate,1,REAL,FALSA
,,,,,,,,,5c39afacf179bd0001c8756a,001,2025-04-30_10h39.46.345,empathy_intonation_perc,2024.1.4,MacIntel,121.9512195,,,,,,,,,,,,,,45,total,,,,,,170.8052,171.9734,1,0,0.6529,,0,55,55,44,1,two_way_cognate,1,REAL,FALSA
,,,,,,,,,5c39afacf179bd0001c8756a,001,2025-04-30_10h39.46.345,empathy_intonation_perc,2024.1.4,MacIntel,121.9512195,,,,,,,,,,,,,,17,clan,,,,,,171.9737,173.5551,0,1,1.0599,,0,56,56,16,1,three_way_cognate,1,REAL,FALSA
,,,,,,,,,5c39afacf179bd0001c8756a,001,2025-04-30_10h39.46.345,empathy_intonation_perc,2024.1.4,MacIntel,121.9512195,,,,,,,,,,,,,,81,sacar,,,,,,173.5554,174.6042,1,0,0.5303,,0,57,57,80,1,non_cognate,1,REAL,FALSA
,,,,,,,,,5c39afacf179bd0001c8756a,001,2025-04-30_10h39.46.345,empathy_intonation_perc,2024.1.4,MacIntel,121.9512195,,,,,,,,,,,,,,102,coyo,,,,,,174.6043,175.9969,0,1,0.8807,,0,58,58,101,1,pseudoword,0,REAL,FALSA
,,,,,,,,,5c39afacf179bd0001c8756a,001,2025-04-30_10h39.46.345,empathy_intonation_perc,2024.1.4,MacIntel,121.9512195,,,,,,,,,,,,,,165,chote,,,,,,175.997,177.4385,0,1,0.9248,,0,59,59,164,1,pseudoword,0,REAL,FALSA
,,,,,,,,,5c39afacf179bd0001c8756a,001,2025-04-30_10h39.46.345,empathy_intonation_perc,2024.1.4,MacIntel,121.9512195,,,,,,,,,,,,,,140,chorde,,,,,,177.4387,178.5239,0,1,0.5683,,0,60,60,139,1,pseudoword,0,REAL,FALSA
,,,,,,,,,5c39afacf179bd0001c8756a,001,2025-04-30_10h39.46.345,empathy_intonation_perc,2024.1.4,MacIntel,121.9512195,,,,,,,,,,,,,,114,dibrea,,,,,,178.5243,179.838,0,1,0.7936,,0,61,61,113,1,pseudoword,0,REAL,FALSA
,,,,,,,,,5c39afacf179bd0001c8756a,001,2025-04-30_10h39.46.345,empathy_intonation_perc,2024.1.4,MacIntel,121.9512195,,,,,,,,,,,,,,157,seled,,,,,,179.8383,181.005,0,1,0.6585,,0,62,62,156,1,pseudoword,0,REAL,FALSA
,,,,,,,,,5c39afacf179bd0001c8756a,001,2025-04-30_10h39.46.345,empathy_intonation_perc,2024.1.4,MacIntel,121.9512195,,,,,,,,,,,,,,95,listo,,,,,,181.0052,182.3304,1,0,0.8114,,0,63,63,94,1,non_cognate,1,REAL,FALSA
,,,,,,,,,5c39afacf179bd0001c8756a,001,2025-04-30_10h39.46.345,empathy_intonation_perc,2024.1.4,MacIntel,121.9512195,,,,,,,,,,,,,,112,samón,,,,,,182.3309,183.9885,0,1,1.1369,,0,64,64,111,1,pseudoword,0,REAL,FALSA
,,,,,,,,,5c39afacf179bd0001c8756a,001,2025-04-30_10h39.46.345,empathy_intonation_perc,2024.1.4,MacIntel,121.9512195,,,,,,,,,,,,,,15,test,,,,,,183.9888,185.3559,1,0,0.845,,0,65,65,14,1,three_way_cognate,1,REAL,FALSA
,,,,,,,,,5c39afacf179bd0001c8756a,001,2025-04-30_10h39.46.345,empathy_intonation_perc,2024.1.4,MacIntel,121.9512195,,,,,,,,,,,,,,192,próces,,,,,,185.3564,186.4969,0,1,0.6185,,0,66,66,191,1,pseudoword,0,REAL,FALSA
,,,,,,,,,5c39afacf179bd0001c8756a,001,2025-04-30_10h39.46.345,empathy_intonation_perc,2024.1.4,MacIntel,121.9512195,,,,,,,,,,,,,,34,actor,,,,,,186.4973,187.7643,1,0,0.744,,0,67,67,33,1,two_way_cognate,1,REAL,FALSA
,,,,,,,,,5c39afacf179bd0001c8756a,001,2025-04-30_10h39.46.345,empathy_intonation_perc,2024.1.4,MacIntel,121.9512195,,,,,,,,,,,,,,109,laras,,,,,,187.7649,189.08,0,1,0.7932,,0,68,68,108,1,pseudoword,0,REAL,FALSA
,,,,,,,,,5c39afacf179bd0001c8756a,001,2025-04-30_10h39.46.345,empathy_intonation_perc,2024.1.4,MacIntel,121.9512195,,,,,,,,,,,,,,179,suelet,,,,,,189.0801,190.3733,0,1,0.775,,0,69,69,178,1,pseudoword,0,REAL,FALSA
,,,,,,,,,5c39afacf179bd0001c8756a,001,2025-04-30_10h39.46.345,empathy_intonation_perc,2024.1.4,MacIntel,121.9512195,,,,,,,,,,,,,,66,aleta,,,,,,190.3739,191.7042,0,1,0.8129,,0,70,70,65,1,non_cognate,1,REAL,FALSA
,,,,,,,,,5c39afacf179bd0001c8756a,001,2025-04-30_10h39.46.345,empathy_intonation_perc,2024.1.4,MacIntel,121.9512195,,,,,,,,,,,,,,12,dogma,,,,,,191.7044,193.1961,1,0,0.9809,,0,71,71,11,1,three_way_cognate,1,REAL,FALSA
,,,,,,,,,5c39afacf179bd0001c8756a,001,2025-04-30_10h39.46.345,empathy_intonation_perc,2024.1.4,MacIntel,121.9512195,,,,,,,,,,,,,,10,drama,,,,,,193.1965,194.4385,1,0,0.7319,,0,72,72,9,1,three_way_cognate,1,REAL,FALSA
,,,,,,,,,5c39afacf179bd0001c8756a,001,2025-04-30_10h39.46.345,empathy_intonation_perc,2024.1.4,MacIntel,121.9512195,,,,,,,,,,,,,,93,tapa,,,,,,194.4387,195.5967,1,0,0.6461,,0,73,73,92,1,non_cognate,1,REAL,FALSA
,,,,,,,,,5c39afacf179bd0001c8756a,001,2025-04-30_10h39.46.345,empathy_intonation_perc,2024.1.4,MacIntel,121.9512195,,,,,,,,,,,,,,136,hueas,,,,,,195.597,197.0569,0,1,0.937,,0,74,74,135,1,pseudoword,0,REAL,FALSA
,,,,,,,,,5c39afacf179bd0001c8756a,001,2025-04-30_10h39.46.345,empathy_intonation_perc,2024.1.4,MacIntel,121.9512195,,,,,,,,,,,,,,124,lobe,,,,,,197.0571,198.3551,0,1,0.7846,,0,75,75,123,1,pseudoword,0,REAL,FALSA
,,,,,,,,,5c39afacf179bd0001c8756a,001,2025-04-30_10h39.46.345,empathy_intonation_perc,2024.1.4,MacIntel,121.9512195,,,,,,,,,,,,,,52,blando,,,,,,198.3554,199.5209,0,1,0.6541,,0,76,76,51,1,non_cognate,1,REAL,FALSA
,,,,,,,,,5c39afacf179bd0001c8756a,001,2025-04-30_10h39.46.345,empathy_intonation_perc,2024.1.4,MacIntel,121.9512195,,,,,,,,,,,,,,11,golf,,,,,,199.5212,200.7876,1,0,0.7545,,0,77,77,10,1,three_way_cognate,1,REAL,FALSA
,,,,,,,,,5c39afacf179bd0001c8756a,001,2025-04-30_10h39.46.345,empathy_intonation_perc,2024.1.4,MacIntel,121.9512195,,,,,,,,,,,,,,91,equipo,,,,,,200.7879,202.0384,1,0,0.7407,,0,78,78,90,1,non_cognate,1,REAL,FALSA
,,,,,,,,,5c39afacf179bd0001c8756a,001,2025-04-30_10h39.46.345,empathy_intonation_perc,2024.1.4,MacIntel,121.9512195,,,,,,,,,,,,,,128,pelí,,,,,,202.0386,204.1723,1,0,1.6109,,0,79,79,127,1,pseudoword,0,REAL,FALSA
,,,,,,,,,5c39afacf179bd0001c8756a,001,2025-04-30_10h39.46.345,empathy_intonation_perc,2024.1.4,MacIntel,121.9512195,,,,,,,,,,,,,,127,vien,,,,,,204.1726,205.6303,0,1,0.9372,,0,80,80,126,1,pseudoword,0,REAL,FALSA
,,,,,,,,,5c39afacf179bd0001c8756a,001,2025-04-30_10h39.46.345,empathy_intonation_perc,2024.1.4,MacIntel,121.9512195,,,,,,,,,,,,,,76,chocar,,,,,,205.6306,206.8041,0,1,0.6583,,0,81,81,75,1,non_cognate,1,REAL,FALSA
,,,,,,,,,5c39afacf179bd0001c8756a,001,2025-04-30_10h39.46.345,empathy_intonation_perc,2024.1.4,MacIntel,121.9512195,,,,,,,,,,,,,,148,gino,,,,,,206.8044,207.9633,0,1,0.6446,,0,82,82,147,1,pseudoword,0,REAL,FALSA
,,,,,,,,,5c39afacf179bd0001c8756a,001,2025-04-30_10h39.46.345,empathy_intonation_perc,2024.1.4,MacIntel,121.9512195,,,,,,,,,,,,,,94,forro,,,,,,207.9639,209.0554,0,1,0.5772,,0,83,83,93,1,non_cognate,1,REAL,FALSA
,,,,,,,,,5c39afacf179bd0001c8756a,001,2025-04-30_10h39.46.345,empathy_intonation_perc,2024.1.4,MacIntel,121.9512195,,,,,,,,,,,,,,145,rúo,,,,,,209.056,210.2306,0,1,0.6547,,0,84,84,144,1,pseudoword,0,REAL,FALSA
,,,,,,,,,5c39afacf179bd0001c8756a,001,2025-04-30_10h39.46.345,empathy_intonation_perc,2024.1.4,MacIntel,121.9512195,,,,,,,,,,,,,,50,sierra,,,,,,210.2316,211.4385,1,0,0.6873,,0,85,85,49,1,non_cognate,1,REAL,FALSA
,,,,,,,,,5c39afacf179bd0001c8756a,001,2025-04-30_10h39.46.345,empathy_intonation_perc,2024.1.4,MacIntel,121.9512195,,,,,,,,,,,,,,16,chat,,,,,,211.4389,213.0888,1,0,1.1294,,0,86,86,15,1,three_way_cognate,1,REAL,FALSA
,,,,,,,,,5c39afacf179bd0001c8756a,001,2025-04-30_10h39.46.345,empathy_intonation_perc,2024.1.4,MacIntel,121.9512195,,,,,,,,,,,,,,72,rostro,,,,,,213.0891,215.1542,1,0,1.5471,,0,87,87,71,1,non_cognate,1,REAL,FALSA
,,,,,,,,,5c39afacf179bd0001c8756a,001,2025-04-30_10h39.46.345,empathy_intonation_perc,2024.1.4,MacIntel,121.9512195,,,,,,,,,,,,,,156,ozoso,,,,,,215.1545,216.4228,0,1,0.7533,,0,88,88,155,1,pseudoword,0,REAL,FALSA
,,,,,,,,,5c39afacf179bd0001c8756a,001,2025-04-30_10h39.46.345,empathy_intonation_perc,2024.1.4,MacIntel,121.9512195,,,,,,,,,,,,,,167,dobbo,,,,,,216.4235,217.5718,0,1,0.6309,,0,89,89,166,1,pseudoword,0,REAL,FALSA
,,,,,,,,,5c39afacf179bd0001c8756a,001,2025-04-30_10h39.46.345,empathy_intonation_perc,2024.1.4,MacIntel,121.9512195,,,,,,,,,,,,,,122,boñaz,,,,,,217.5721,218.6791,0,1,0.5979,,0,90,90,121,1,pseudoword,0,REAL,FALSA
,,,,,,,,,5c39afacf179bd0001c8756a,001,2025-04-30_10h39.46.345,empathy_intonation_perc,2024.1.4,MacIntel,121.9512195,,,,,,,,,,,,,,25,vigor,,,,,,218.6793,219.7551,0,1,0.5627,,0,91,91,24,1,two_way_cognate,1,REAL,FALSA
,,,,,,,,,5c39afacf179bd0001c8756a,001,2025-04-30_10h39.46.345,empathy_intonation_perc,2024.1.4,MacIntel,121.9512195,,,,,,,,,,,,,,23,plural,,,,,,219.7555,220.9888,1,0,0.7175,,0,92,92,22,1,three_way_cognate,1,REAL,FALSA
,,,,,,,,,5c39afacf179bd0001c8756a,001,2025-04-30_10h39.46.345,empathy_intonation_perc,2024.1.4,MacIntel,121.9512195,,,,,,,,,,,,,,32,animal,,,,,,220.9891,222.0876,1,0,0.5787,,0,93,93,31,1,two_way_cognate,1,REAL,FALSA
,,,,,,,,,5c39afacf179bd0001c8756a,001,2025-04-30_10h39.46.345,empathy_intonation_perc,2024.1.4,MacIntel,121.9512195,,,,,,,,,,,,,,70,ánimo,,,,,,222.0878,223.4301,1,0,0.8326,,0,94,94,69,1,non_cognate,1,REAL,FALSA
,,,,,,,,,5c39afacf179bd0001c8756a,001,2025-04-30_10h39.46.345,empathy_intonation_perc,2024.1.4,MacIntel,121.9512195,,,,,,,,,,,,,,89,muñeca,,,,,,223.4304,225.2303,1,0,1.285,,0,95,95,88,1,non_cognate,1,REAL,FALSA
,,,,,,,,,5c39afacf179bd0001c8756a,001,2025-04-30_10h39.46.345,empathy_intonation_perc,2024.1.4,MacIntel,121.9512195,,,,,,,,,,,,,,31,civil,,,,,,225.2307,226.2985,1,0,0.5423,,0,96,96,30,1,two_way_cognate,1,REAL,FALSA
,,,,,,,,,5c39afacf179bd0001c8756a,001,2025-04-30_10h39.46.345,empathy_intonation_perc,2024.1.4,MacIntel,121.9512195,,,,,,,,,,,,,,69,tiza,,,,,,226.2991,227.663,0,1,0.8518,,0,97,97,68,1,non_cognate,1,REAL,FALSA
,,,,,,,,,5c39afacf179bd0001c8756a,001,2025-04-30_10h39.46.345,empathy_intonation_perc,2024.1.4,MacIntel,121.9512195,,,,,,,,,,,,,,82,brillo,,,,,,227.6632,228.7393,0,1,0.558,,0,98,98,81,1,non_cognate,1,REAL,FALSA
,,,,,,,,,5c39afacf179bd0001c8756a,001,2025-04-30_10h39.46.345,empathy_intonation_perc,2024.1.4,MacIntel,121.9512195,,,,,,,,,,,,,,59,feo,,,,,,228.7396,229.8824,1,0,0.6284,,0,99,99,58,1,non_cognate,1,REAL,FALSA
,,,,,,,,,5c39afacf179bd0001c8756a,001,2025-04-30_10h39.46.345,empathy_intonation_perc,2024.1.4,MacIntel,121.9512195,,,,,,,,,,,,,,191,frasis,,,,,,229.8831,231.0384,0,1,0.6349,,0,100,100,190,1,pseudoword,0,REAL,FALSA
,,,,,,,,,5c39afacf179bd0001c8756a,001,2025-04-30_10h39.46.345,empathy_intonation_perc,2024.1.4,MacIntel,121.9512195,,,,,,,,,,,,,,172,dogue,,,,,,231.0387,232.2468,0,1,0.6962,,0,101,101,171,1,pseudoword,0,REAL,FALSA
,,,,,,,,,5c39afacf179bd0001c8756a,001,2025-04-30_10h39.46.345,empathy_intonation_perc,2024.1.4,MacIntel,121.9512195,,,,,,,,,,,,,,158,babrá,,,,,,232.247,233.4224,0,1,0.663,,0,102,102,157,1,pseudoword,0,REAL,FALSA
,,,,,,,,,5c39afacf179bd0001c8756a,001,2025-04-30_10h39.46.345,empathy_intonation_perc,2024.1.4,MacIntel,121.9512195,,,,,,,,,,,,,,146,gió,,,,,,233.423,234.5208,0,1,0.5809,,0,103,103,145,1,pseudoword,0,REAL,FALSA
,,,,,,,,,5c39afacf179bd0001c8756a,001,2025-04-30_10h39.46.345,empathy_intonation_perc,2024.1.4,MacIntel,121.9512195,,,,,,,,,,,,,,143,hurcos,,,,,,234.5211,235.7208,0,1,0.6902,,0,104,104,142,1,pseudoword,0,REAL,FALSA
,,,,,,,,,5c39afacf179bd0001c8756a,001,2025-04-30_10h39.46.345,empathy_intonation_perc,2024.1.4,MacIntel,121.9512195,,,,,,,,,,,,,,27,piano,,,,,,235.721,236.8958,1,0,0.6567,,0,105,105,26,1,two_way_cognate,1,REAL,FALSA
,,,,,,,,,5c39afacf179bd0001c8756a,001,2025-04-30_10h39.46.345,empathy_intonation_perc,2024.1.4,MacIntel,121.9512195,,,,,,,,,,,,,,60,siglo,,,,,,236.8961,237.9964,0,1,0.5885,,0,106,106,59,1,non_cognate,1,REAL,FALSA
,,,,,,,,,5c39afacf179bd0001c8756a,001,2025-04-30_10h39.46.345,empathy_intonation_perc,2024.1.4,MacIntel,121.9512195,,,,,,,,,,,,,,51,listo,,,,,,237.9967,239.0458,1,0,0.5296,,0,107,107,50,1,non_cognate,1,REAL,FALSA
,,,,,,,,,5c39afacf179bd0001c8756a,001,2025-04-30_10h39.46.345,empathy_intonation_perc,2024.1.4,MacIntel,121.9512195,,,,,,,,,,,,,,65,guerra,,,,,,239.0461,240.2385,1,0,0.6693,,0,108,108,64,1,non_cognate,1,REAL,FALSA
,,,,,,,,,5c39afacf179bd0001c8756a,001,2025-04-30_10h39.46.345,empathy_intonation_perc,2024.1.4,MacIntel,121.9512195,,,,,,,,,,,,,,166,anfia,,,,,,240.2388,241.4297,0,1,0.674,,0,109,109,165,1,pseudoword,0,REAL,FALSA
,,,,,,,,,5c39afacf179bd0001c8756a,001,2025-04-30_10h39.46.345,empathy_intonation_perc,2024.1.4,MacIntel,121.9512195,,,,,,,,,,,,,,138,tator,,,,,,241.43,242.6725,0,1,0.7272,,0,110,110,137,1,pseudoword,0,REAL,FALSA
,,,,,,,,,5c39afacf179bd0001c8756a,001,2025-04-30_10h39.46.345,empathy_intonation_perc,2024.1.4,MacIntel,121.9512195,,,,,,,,,,,,,,182,desaro,,,,,,242.6731,244.1468,0,1,0.951,,0,111,111,181,1,pseudoword,0,REAL,FALSA
,,,,,,,,,5c39afacf179bd0001c8756a,001,2025-04-30_10h39.46.345,empathy_intonation_perc,2024.1.4,MacIntel,121.9512195,,,,,,,,,,,,,,41,pasta,,,,,,244.1471,245.241,1,0,0.5864,,0,112,112,40,1,two_way_cognate,1,REAL,FALSA
,,,,,,,,,5c39afacf179bd0001c8756a,001,2025-04-30_10h39.46.345,empathy_intonation_perc,2024.1.4,MacIntel,121.9512195,,,,,,,,,,,,,,44,editor,,,,,,245.2415,246.3208,1,0,0.566,,0,113,113,43,1,two_way_cognate,1,REAL,FALSA
,,,,,,,,,5c39afacf179bd0001c8756a,001,2025-04-30_10h39.46.345,empathy_intonation_perc,2024.1.4,MacIntel,121.9512195,,,,,,,,,,,,,,88,percha,,,,,,246.321,247.5792,0,1,0.7462,,0,114,114,87,1,non_cognate,1,REAL,FALSA
,,,,,,,,,5c39afacf179bd0001c8756a,001,2025-04-30_10h39.46.345,empathy_intonation_perc,2024.1.4,MacIntel,121.9512195,,,,,,,,,,,,,,134,molor,,,,,,247.5794,248.7878,0,1,0.696,,0,115,115,133,1,pseudoword,0,REAL,FALSA
,,,,,,,,,5c39afacf179bd0001c8756a,001,2025-04-30_10h39.46.345,empathy_intonation_perc,2024.1.4,MacIntel,121.9512195,,,,,,,,,,,,,,154,harvé,,,,,,248.7881,250.0209,0,1,0.7219,,0,116,116,153,1,pseudoword,0,REAL,FALSA
,,,,,,,,,5c39afacf179bd0001c8756a,001,2025-04-30_10h39.46.345,empathy_intonation_perc,2024.1.4,MacIntel,121.9512195,,,,,,,,,,,,,,118,bará,,,,,,250.0211,251.2634,0,1,0.7257,,0,117,117,117,1,pseudoword,0,REAL,FALSA
,,,,,,,,,5c39afacf179bd0001c8756a,001,2025-04-30_10h39.46.345,empathy_intonation_perc,2024.1.4,MacIntel,121.9512195,,,,,,,,,,,,,,92,flecha,,,,,,251.2637,252.4042,0,1,0.6216,,0,118,118,91,1,non_cognate,1,REAL,FALSA
,,,,,,,,,5c39afacf179bd0001c8756a,001,2025-04-30_10h39.46.345,empathy_intonation_perc,2024.1.4,MacIntel,121.9512195,,,,,,,,,,,,,,24,retina,,,,,,252.4045,253.8709,1,0,0.9549,,0,119,119,23,1,three_way_cognate,1,REAL,FALSA
,,,,,,,,,5c39afacf179bd0001c8756a,001,2025-04-30_10h39.46.345,empathy_intonation_perc,2024.1.4,MacIntel,121.9512195,,,,,,,,,,,,,,174,pabea,,,,,,253.8713,255.1208,0,1,0.7331,,0,120,120,173,1,pseudoword,0,REAL,FALSA
,,,,,,,,,5c39afacf179bd0001c8756a,001,2025-04-30_10h39.46.345,empathy_intonation_perc,2024.1.4,MacIntel,121.9512195,,,,,,,,,,,,,,55,maldad,,,,,,255.1211,256.8562,0,1,1.2292,,0,121,121,54,1,non_cognate,1,REAL,FALSA
,,,,,,,,,5c39afacf179bd0001c8756a,001,2025-04-30_10h39.46.345,empathy_intonation_perc,2024.1.4,MacIntel,121.9512195,,,,,,,,,,,,,,107,plago,,,,,,256.857,259.3299,0,1,1.9537,,0,122,122,106,1,pseudoword,0,REAL,FALSA
,,,,,,,,,5c39afacf179bd0001c8756a,001,2025-04-30_10h39.46.345,empathy_intonation_perc,2024.1.4,MacIntel,121.9512195,,,,,,,,,,,,,,125,ceme,,,,,,259.3301,260.6125,0,1,0.763,,0,123,123,124,1,pseudoword,0,REAL,FALSA
,,,,,,,,,5c39afacf179bd0001c8756a,001,2025-04-30_10h39.46.345,empathy_intonation_perc,2024.1.4,MacIntel,121.9512195,,,,,,,,,,,,,,48,pelvis,,,,,,260.6128,261.9466,1,0,0.8191,,0,124,124,47,1,two_way_cognate,1,REAL,FALSA
,,,,,,,,,5c39afacf179bd0001c8756a,001,2025-04-30_10h39.46.345,empathy_intonation_perc,2024.1.4,MacIntel,121.9512195,,,,,,,,,,,,,,97,nocita,,,,,,261.9472,263.0808,0,1,0.6119,,0,125,125,96,1,pseudoword,0,REAL,FALSA
,,,,,,,,,5c39afacf179bd0001c8756a,001,2025-04-30_10h39.46.345,empathy_intonation_perc,2024.1.4,MacIntel,121.9512195,,,,,,,,,,,,,,28,ardor,,,,,,263.0813,264.156,0,1,0.5599,,0,126,126,27,1,two_way_cognate,1,REAL,FALSA
,,,,,,,,,5c39afacf179bd0001c8756a,001,2025-04-30_10h39.46.345,empathy_intonation_perc,2024.1.4,MacIntel,121.9512195,,,,,,,,,,,,,,181,gravés,,,,,,264.1563,265.2383,0,1,0.5653,,0,127,127,180,1,pseudoword,0,REAL,FALSA
,,,,,,,,,5c39afacf179bd0001c8756a,001,2025-04-30_10h39.46.345,empathy_intonation_perc,2024.1.4,MacIntel,121.9512195,,,,,,,,,,,,,,113,nasce,,,,,,265.2386,266.3877,0,1,0.639,,0,128,128,112,1,pseudoword,0,REAL,FALSA
,,,,,,,,,5c39afacf179bd0001c8756a,001,2025-04-30_10h39.46.345,empathy_intonation_perc,2024.1.4,MacIntel,121.9512195,,,,,,,,,,,,,,68,puñal,,,,,,266.3881,267.6471,0,1,0.7386,,0,129,129,67,1,non_cognate,1,REAL,FALSA
,,,,,,,,,5c39afacf179bd0001c8756a,001,2025-04-30_10h39.46.345,empathy_intonation_perc,2024.1.4,MacIntel,121.9512195,,,,,,,,,,,,,,98,martir,,,,,,267.6474,269.0791,0,1,0.9145,,0,130,130,97,1,pseudoword,0,REAL,FALSA
,,,,,,,,,5c39afacf179bd0001c8756a,001,2025-04-30_10h39.46.345,empathy_intonation_perc,2024.1.4,MacIntel,121.9512195,,,,,,,,,,,,,,6,horror,,,,,,269.0794,270.2376,1,0,0.6468,,0,131,131,5,1,three_way_cognate,1,REAL,FALSA
,,,,,,,,,5c39afacf179bd0001c8756a,001,2025-04-30_10h39.46.345,empathy_intonation_perc,2024.1.4,MacIntel,121.9512195,,,,,,,,,,,,,,187,nomata,,,,,,270.2379,271.5208,0,1,0.7619,,0,132,132,186,1,pseudoword,0,REAL,FALSA
,,,,,,,,,5c39afacf179bd0001c8756a,001,2025-04-30_10h39.46.345,empathy_intonation_perc,2024.1.4,MacIntel,121.9512195,,,,,,,,,,,,,,153,golla,,,,,,271.5209,272.5902,0,1,0.5613,,0,133,133,152,1,pseudoword,0,REAL,FALSA
,,,,,,,,,5c39afacf179bd0001c8756a,001,2025-04-30_10h39.46.345,empathy_intonation_perc,2024.1.4,MacIntel,121.9512195,,,,,,,,,,,,,,47,color,,,,,,272.5907,273.6467,1,0,0.5384,,0,134,134,46,1,two_way_cognate,1,REAL,FALSA
,,,,,,,,,5c39afacf179bd0001c8756a,001,2025-04-30_10h39.46.345,empathy_intonation_perc,2024.1.4,MacIntel,121.9512195,,,,,,,,,,,,,,86,cuenco,,,,,,273.6471,275.5709,0,1,1.4057,,0,135,135,85,1,non_cognate,1,REAL,FALSA
,,,,,,,,,5c39afacf179bd0001c8756a,001,2025-04-30_10h39.46.345,empathy_intonation_perc,2024.1.4,MacIntel,121.9512195,,,,,,,,,,,,,,151,prías,,,,,,275.5711,276.6375,0,1,0.5545,,0,136,136,150,1,pseudoword,0,REAL,FALSA
,,,,,,,,,5c39afacf179bd0001c8756a,001,2025-04-30_10h39.46.345,empathy_intonation_perc,2024.1.4,MacIntel,121.9512195,,,,,,,,,,,,,,173,mibro,,,,,,276.6378,277.7053,0,1,0.5584,,0,137,137,172,1,pseudoword,0,REAL,FALSA
,,,,,,,,,5c39afacf179bd0001c8756a,001,2025-04-30_10h39.46.345,empathy_intonation_perc,2024.1.4,MacIntel,121.9512195,,,,,,,,,,,,,,42,rumor,,,,,,277.7057,278.988,0,1,0.7676,,0,138,138,41,1,two_way_cognate,1,REAL,FALSA
,,,,,,,,,5c39afacf179bd0001c8756a,001,2025-04-30_10h39.46.345,empathy_intonation_perc,2024.1.4,MacIntel,121.9512195,,,,,,,,,,,,,,161,civas,,,,,,278.9887,280.1464,0,1,0.6393,,0,139,139,160,1,pseudoword,0,REAL,FALSA
,,,,,,,,,5c39afacf179bd0001c8756a,001,2025-04-30_10h39.46.345,empathy_intonation_perc,2024.1.4,MacIntel,121.9512195,,,,,,,,,,,,,,110,densó,,,,,,280.1467,281.2472,0,1,0.5853,,0,140,140,109,1,pseudoword,0,REAL,FALSA
,,,,,,,,,5c39afacf179bd0001c8756a,001,2025-04-30_10h39.46.345,empathy_intonation_perc,2024.1.4,MacIntel,121.9512195,,,,,,,,,,,,,,160,fomeó,,,,,,281.2479,282.3632,0,1,0.6015,,0,141,141,159,1,pseudoword,0,REAL,FALSA
,,,,,,,,,5c39afacf179bd0001c8756a,001,2025-04-30_10h39.46.345,empathy_intonation_perc,2024.1.4,MacIntel,121.9512195,,,,,,,,,,,,,,142,parre,,,,,,282.3634,283.5133,0,1,0.6303,,0,142,142,141,1,pseudoword,0,REAL,FALSA
,,,,,,,,,5c39afacf179bd0001c8756a,001,2025-04-30_10h39.46.345,empathy_intonation_perc,2024.1.4,MacIntel,121.9512195,,,,,,,,,,,,,,120,mauja,,,,,,283.5135,284.6541,0,1,0.6225,,0,143,143,119,1,pseudoword,0,REAL,FALSA
,,,,,,,,,5c39afacf179bd0001c8756a,001,2025-04-30_10h39.46.345,empathy_intonation_perc,2024.1.4,MacIntel,121.9512195,,,,,,,,,,,,,,163,llzan,,,,,,284.6544,285.8967,0,1,0.7178,,0,144,144,162,1,pseudoword,0,REAL,FALSA
,,,,,,,,,5c39afacf179bd0001c8756a,001,2025-04-30_10h39.46.345,empathy_intonation_perc,2024.1.4,MacIntel,121.9512195,,,,,,,,,,,,,,43,honor,,,,,,285.897,287.2716,0,1,0.8593,,0,145,145,42,1,two_way_cognate,1,REAL,FALSA
,,,,,,,,,5c39afacf179bd0001c8756a,001,2025-04-30_10h39.46.345,empathy_intonation_perc,2024.1.4,MacIntel,121.9512195,,,,,,,,,,,,,,64,rizado,,,,,,287.272,288.7875,0,1,0.996,,0,146,146,63,1,non_cognate,1,REAL,FALSA
,,,,,,,,,5c39afacf179bd0001c8756a,001,2025-04-30_10h39.46.345,empathy_intonation_perc,2024.1.4,MacIntel,121.9512195,,,,,,,,,,,,,,162,cengo,,,,,,288.7877,289.8627,0,1,0.5567,,0,147,147,161,1,pseudoword,0,REAL,FALSA
,,,,,,,,,5c39afacf179bd0001c8756a,001,2025-04-30_10h39.46.345,empathy_intonation_perc,2024.1.4,MacIntel,121.9512195,,,,,,,,,,,,,,164,tecia,,,,,,289.8631,290.8984,0,1,0.5185,,0,148,148,163,1,pseudoword,0,REAL,FALSA
,,,,,,,,,5c39afacf179bd0001c8756a,001,2025-04-30_10h39.46.345,empathy_intonation_perc,2024.1.4,MacIntel,121.9512195,,,,,,,,,,,,,,99,bugor,,,,,,290.8989,291.981,0,1,0.5688,,0,149,149,98,1,pseudoword,0,REAL,FALSA
,,,,,,,,,5c39afacf179bd0001c8756a,001,2025-04-30_10h39.46.345,empathy_intonation_perc,2024.1.4,MacIntel,121.9512195,,,,,,,,,,,,,,188,amplir,,,,,,291.9816,293.4467,0,1,0.9535,,0,150,150,187,1,pseudoword,0,REAL,FALSA
,,,,,,,,,5c39afacf179bd0001c8756a,001,2025-04-30_10h39.46.345,empathy_intonation_perc,2024.1.4,MacIntel,121.9512195,,,,,,,,,,,,,,169,pitis,,,,,,293.447,294.5624,0,1,0.6004,,0,151,151,168,1,pseudoword,0,REAL,FALSA
,,,,,,,,,5c39afacf179bd0001c8756a,001,2025-04-30_10h39.46.345,empathy_intonation_perc,2024.1.4,MacIntel,121.9512195,,,,,,,,,,,,,,184,huenos,,,,,,294.5627,295.755,0,1,0.6784,,0,152,152,183,1,pseudoword,0,REAL,FALSA
,,,,,,,,,5c39afacf179bd0001c8756a,001,2025-04-30_10h39.46.345,empathy_intonation_perc,2024.1.4,MacIntel,121.9512195,,,,,,,,,,,,,,22,mango,,,,,,295.7552,297.2296,1,0,0.955,,0,153,153,21,1,three_way_cognate,1,REAL,FALSA
,,,,,,,,,5c39afacf179bd0001c8756a,001,2025-04-30_10h39.46.345,empathy_intonation_perc,2024.1.4,MacIntel,121.9512195,,,,,,,,,,,,,,77,suave,,,,,,297.23,298.4458,1,0,0.6997,,0,154,154,76,1,non_cognate,1,REAL,FALSA
,,,,,,,,,5c39afacf179bd0001c8756a,001,2025-04-30_10h39.46.345,empathy_intonation_perc,2024.1.4,MacIntel,121.9512195,,,,,,,,,,,,,,13,plan,,,,,,298.4461,299.6041,1,0,0.6407,,0,155,155,12,1,three_way_cognate,1,REAL,FALSA
,,,,,,,,,5c39afacf179bd0001c8756a,001,2025-04-30_10h39.46.345,empathy_intonation_perc,2024.1.4,MacIntel,121.9512195,,,,,,,,,,,,,,170,diabo,,,,,,299.6044,300.83,0,1,0.7133,,0,156,156,169,1,pseudoword,0,REAL,FALSA
,,,,,,,,,5c39afacf179bd0001c8756a,001,2025-04-30_10h39.46.345,empathy_intonation_perc,2024.1.4,MacIntel,121.9512195,,,,,,,,,,,,,,29,clamor,,,,,,300.8303,302.1628,0,1,0.8115,,0,157,157,28,1,two_way_cognate,1,REAL,FALSA
,,,,,,,,,5c39afacf179bd0001c8756a,001,2025-04-30_10h39.46.345,empathy_intonation_perc,2024.1.4,MacIntel,121.9512195,,,,,,,,,,,,,,105,peniz,,,,,,302.1631,303.1967,0,1,0.5127,,0,158,158,104,1,pseudoword,0,REAL,FALSA
,,,,,,,,,5c39afacf179bd0001c8756a,001,2025-04-30_10h39.46.345,empathy_intonation_perc,2024.1.4,MacIntel,121.9512195,,,,,,,,,,,,,,1,moral,,,,,,303.1971,304.2223,0,1,0.5045,,0,159,159,0,1,three_way_cognate,1,REAL,FALSA
,,,,,,,,,5c39afacf179bd0001c8756a,001,2025-04-30_10h39.46.345,empathy_intonation_perc,2024.1.4,MacIntel,121.9512195,,,,,,,,,,,,,,3,disco,,,,,,304.2229,305.3049,1,0,0.5659,,0,160,160,2,1,three_way_cognate,1,REAL,FALSA
,,,,,,,,,5c39afacf179bd0001c8756a,001,2025-04-30_10h39.46.345,empathy_intonation_perc,2024.1.4,MacIntel,121.9512195,,,,,,,,,,,,,,73,llevar,,,,,,305.3051,306.3549,1,0,0.5394,,0,161,161,72,1,non_cognate,1,REAL,FALSA
,,,,,,,,,5c39afacf179bd0001c8756a,001,2025-04-30_10h39.46.345,empathy_intonation_perc,2024.1.4,MacIntel,121.9512195,,,,,,,,,,,,,,4,flora,,,,,,306.3552,307.455,1,0,0.5818,,0,162,162,3,1,three_way_cognate,1,REAL,FALSA
,,,,,,,,,5c39afacf179bd0001c8756a,001,2025-04-30_10h39.46.345,empathy_intonation_perc,2024.1.4,MacIntel,121.9512195,,,,,,,,,,,,,,84,aviso,,,,,,307.4552,308.6218,1,0,0.6472,,0,163,163,83,1,non_cognate,1,REAL,FALSA
,,,,,,,,,5c39afacf179bd0001c8756a,001,2025-04-30_10h39.46.345,empathy_intonation_perc,2024.1.4,MacIntel,121.9512195,,,,,,,,,,,,,,14,aura,,,,,,308.6225,309.804,1,0,0.6685,,0,164,164,13,1,three_way_cognate,1,REAL,FALSA
,,,,,,,,,5c39afacf179bd0001c8756a,001,2025-04-30_10h39.46.345,empathy_intonation_perc,2024.1.4,MacIntel,121.9512195,,,,,,,,,,,,,,144,diroco,,,,,,309.8042,310.9874,0,1,0.6737,,0,165,165,143,1,pseudoword,0,REAL,FALSA
,,,,,,,,,5c39afacf179bd0001c8756a,001,2025-04-30_10h39.46.345,empathy_intonation_perc,2024.1.4,MacIntel,121.9512195,,,,,,,,,,,,,,177,entodo,,,,,,310.9877,315.5799,0,1,4.082,,0,166,166,176,1,pseudoword,0,REAL,FALSA
,,,,,,,,,5c39afacf179bd0001c8756a,001,2025-04-30_10h39.46.345,empathy_intonation_perc,2024.1.4,MacIntel,121.9512195,,,,,,,,,,,,,,121,barbs,,,,,,315.5803,316.7627,0,1,0.6665,,0,167,167,120,1,pseudoword,0,REAL,FALSA
,,,,,,,,,5c39afacf179bd0001c8756a,001,2025-04-30_10h39.46.345,empathy_intonation_perc,2024.1.4,MacIntel,121.9512195,,,,,,,,,,,,,,149,emén,,,,,,316.763,317.8382,0,1,0.5541,,0,168,168,148,1,pseudoword,0,REAL,FALSA
,,,,,,,,,5c39afacf179bd0001c8756a,001,2025-04-30_10h39.46.345,empathy_intonation_perc,2024.1.4,MacIntel,121.9512195,,,,,,,,,,,,,,75,patada,,,,,,317.8384,319.2714,0,1,0.9115,,0,169,169,74,1,non_cognate,1,REAL,FALSA
,,,,,,,,,5c39afacf179bd0001c8756a,001,2025-04-30_10h39.46.345,empathy_intonation_perc,2024.1.4,MacIntel,121.9512195,,,,,,,,,,,,,,100,épinas,,,,,,319.2724,320.3891,1,0,0.5949,,0,170,170,99,1,pseudoword,0,REAL,FALSA
,,,,,,,,,5c39afacf179bd0001c8756a,001,2025-04-30_10h39.46.345,empathy_intonation_perc,2024.1.4,MacIntel,121.9512195,,,,,,,,,,,,,,85,enorme,,,,,,320.3897,321.8458,1,0,0.9414,,0,171,171,84,1,non_cognate,1,REAL,FALSA
,,,,,,,,,5c39afacf179bd0001c8756a,001,2025-04-30_10h39.46.345,empathy_intonation_perc,2024.1.4,MacIntel,121.9512195,,,,,,,,,,,,,,115,lidena,,,,,,321.8461,323.0966,0,1,0.7337,,0,172,172,114,1,pseudoword,0,REAL,FALSA
,,,,,,,,,5c39afacf179bd0001c8756a,001,2025-04-30_10h39.46.345,empathy_intonation_perc,2024.1.4,MacIntel,121.9512195,,,,,,,,,,,,,,171,gotro,,,,,,323.0968,324.2799,0,1,0.6639,,0,173,173,170,1,pseudoword,0,REAL,FALSA
,,,,,,,,,5c39afacf179bd0001c8756a,001,2025-04-30_10h39.46.345,empathy_intonation_perc,2024.1.4,MacIntel,121.9512195,,,,,,,,,,,,,,62,pegar,,,,,,324.2803,326.2228,1,0,1.4203,,0,174,174,61,1,non_cognate,1,REAL,FALSA
,,,,,,,,,5c39afacf179bd0001c8756a,001,2025-04-30_10h39.46.345,empathy_intonation_perc,2024.1.4,MacIntel,121.9512195,,,,,,,,,,,,,,137,trugo,,,,,,326.2231,327.4216,0,1,0.6806,,0,175,175,136,1,pseudoword,0,REAL,FALSA
,,,,,,,,,5c39afacf179bd0001c8756a,001,2025-04-30_10h39.46.345,empathy_intonation_perc,2024.1.4,MacIntel,121.9512195,,,,,,,,,,,,,,53,punta,,,,,,327.422,329.5794,1,0,1.6395,,0,176,176,52,1,non_cognate,1,REAL,FALSA
,,,,,,,,,5c39afacf179bd0001c8756a,001,2025-04-30_10h39.46.345,empathy_intonation_perc,2024.1.4,MacIntel,121.9512195,,,,,,,,,,,,,,30,fiscal,,,,,,329.5797,331.6382,0,1,1.5454,,0,177,177,29,1,two_way_cognate,1,REAL,FALSA
,,,,,,,,,5c39afacf179bd0001c8756a,001,2025-04-30_10h39.46.345,empathy_intonation_perc,2024.1.4,MacIntel,121.9512195,,,,,,,,,,,,,,87,muleta,,,,,,331.6383,333.1716,0,1,1.0145,,0,178,178,86,1,non_cognate,1,REAL,FALSA
,,,,,,,,,5c39afacf179bd0001c8756a,001,2025-04-30_10h39.46.345,empathy_intonation_perc,2024.1.4,MacIntel,121.9512195,,,,,,,,,,,,,,131,fuar,,,,,,333.1718,334.3383,0,1,0.6539,,0,179,179,130,1,pseudoword,0,REAL,FALSA
,,,,,,,,,5c39afacf179bd0001c8756a,001,2025-04-30_10h39.46.345,empathy_intonation_perc,2024.1.4,MacIntel,121.9512195,,,,,,,,,,,,,,150,cricó,,,,,,334.3385,335.5626,0,1,0.7068,,0,180,180,149,1,pseudoword,0,REAL,FALSA
,,,,,,,,,5c39afacf179bd0001c8756a,001,2025-04-30_10h39.46.345,empathy_intonation_perc,2024.1.4,MacIntel,121.9512195,,,,,,,,,,,,,,178,inichó,,,,,,335.5629,336.5382,0,1,0.4664,,0,181,181,177,1,pseudoword,0,REAL,FALSA
,,,,,,,,,5c39afacf179bd0001c8756a,001,2025-04-30_10h39.46.345,empathy_intonation_perc,2024.1.4,MacIntel,121.9512195,,,,,,,,,,,,,,74,ala,,,,,,336.5386,337.5789,0,1,0.5217,,0,182,182,73,1,non_cognate,1,REAL,FALSA
,,,,,,,,,5c39afacf179bd0001c8756a,001,2025-04-30_10h39.46.345,empathy_intonation_perc,2024.1.4,MacIntel,121.9512195,,,,,,,,,,,,,,180,pupica,,,,,,337.5793,338.5793,0,1,0.4806,,0,183,183,179,1,pseudoword,0,REAL,FALSA
,,,,,,,,,5c39afacf179bd0001c8756a,001,2025-04-30_10h39.46.345,empathy_intonation_perc,2024.1.4,MacIntel,121.9512195,,,,,,,,,,,,,,90,venado,,,,,,338.5797,340.3217,0,1,1.2271,,0,184,184,89,1,non_cognate,1,REAL,FALSA
,,,,,,,,,5c39afacf179bd0001c8756a,001,2025-04-30_10h39.46.345,empathy_intonation_perc,2024.1.4,MacIntel,121.9512195,,,,,,,,,,,,,,139,sasos,,,,,,340.3219,341.4383,0,1,0.5975,,0,185,185,138,1,pseudoword,0,REAL,FALSA
,,,,,,,,,5c39afacf179bd0001c8756a,001,2025-04-30_10h39.46.345,empathy_intonation_perc,2024.1.4,MacIntel,121.9512195,,,,,,,,,,,,,,155,kugis,,,,,,341.4386,343.1388,0,1,1.1783,,0,186,186,154,1,pseudoword,0,REAL,FALSA
,,,,,,,,,5c39afacf179bd0001c8756a,001,2025-04-30_10h39.46.345,empathy_intonation_perc,2024.1.4,MacIntel,121.9512195,,,,,,,,,,,,,,159,trcia,,,,,,343.1395,344.104,0,1,0.4454,,0,187,187,158,1,pseudoword,0,REAL,FALSA
,,,,,,,,,5c39afacf179bd0001c8756a,001,2025-04-30_10h39.46.345,empathy_intonation_perc,2024.1.4,MacIntel,121.9512195,,,,,,,,,,,,,,40,pelvis,,,,,,344.1043,348.9461,1,0,4.3236,,0,188,188,39,1,two_way_cognate,1,REAL,FALSA
,,,,,,,,,5c39afacf179bd0001c8756a,001,2025-04-30_10h39.46.345,empathy_intonation_perc,2024.1.4,MacIntel,121.9512195,,,,,,,,,,,,,,54,tapón,,,,,,348.9463,350.1124,0,1,0.6543,,0,189,189,53,1,non_cognate,1,REAL,FALSA
,,,,,,,,,5c39afacf179bd0001c8756a,001,2025-04-30_10h39.46.345,empathy_intonation_perc,2024.1.4,MacIntel,121.9512195,,,,,,,,,,,,,,183,edioso,,,,,,350.1126,351.4632,0,1,0.8271,,0,190,190,182,1,pseudoword,0,REAL,FALSA
,,,,,,,,,5c39afacf179bd0001c8756a,001,2025-04-30_10h39.46.345,empathy_intonation_perc,2024.1.4,MacIntel,121.9512195,,,,,,,,,,,,,,189,medium,,,,,,351.4635,353.0639,1,0,1.0843,,0,191,191,188,1,pseudoword,0,REAL,FALSA
