lextale_instructions.started,lextale_instructions.stopped,lextale_instructions_loop.thisRepN,lextale_instructions_loop.thisTrialN,lextale_instructions_loop.thisN,lextale_instructions_loop.thisIndex,lextale_instructions_loop.ran,instructions_text,continue_text,participant,session,date,expName,psychopyVersion,OS,frameRate,lextale_practice.started,lextale_practice.stopped,key_resp_lextale_practice.keys,key_resp_lextale_practice.corr,key_resp_lextale_practice.rt,key_resp_lextale_practice.duration,lextale_practice_feedback.started,lextale_practice_feedback.stopped,lextale_practice_trials.thisRepN,lextale_practice_trials.thisTrialN,lextale_practice_trials.thisN,lextale_practice_trials.thisIndex,lextale_practice_trials.ran,stim,word,correct_response,prac_button_real,prac_button_false,lextale_check.started,lextale_check.stopped,lextale_trial.started,lextale_trial.stopped,key_resp_lextale_trial.keys,key_resp_lextale_trial.corr,key_resp_lextale_trial.rt,key_resp_lextale_trial.duration,lextail_trials.thisRepN,lextail_trials.thisTrialN,lextail_trials.thisN,lextail_trials.thisIndex,lextail_trials.ran,type,correct_reponse,button_real,button_false
0.001,11.959,0,0,0,0,1,"Este es un test de vocabulario en español. 
  
  A continuación vas a ver 90 secuencias de letras que parecen 'españolas'.
  
  Solo algunas de ellas son palabras de verdad.",(presiona la barra espaciadora para continuar),5e6d2835e0de62000922c8c2,001,2025-04-30_16h56.23.268,empathy_intonation_perc,2024.1.4,Win32,59.95203837,,,,,,,,,,,,,,,,,,,,,,,,,,,,,,,,,,,
11.959,25.939,0,1,1,1,1,"Por favor, señala las palabras que tú conoces (aquellas que estás convencido que son palabras españolas, incluso aunque no seas capaz de dar el significado preciso).",(presiona la barra espaciadora para continuar),5e6d2835e0de62000922c8c2,001,2025-04-30_16h56.23.268,empathy_intonation_perc,2024.1.4,Win32,59.95203837,,,,,,,,,,,,,,,,,,,,,,,,,,,,,,,,,,,
25.939,59.637,0,2,2,2,1,Pero cuidado: los errores se penalizan. Por eso no tiene sentido tratar de incrementar tu puntuación marcando como reales palabras que nunca has visto.,(presiona la barra espaciadora para continuar),5e6d2835e0de62000922c8c2,001,2025-04-30_16h56.23.268,empathy_intonation_perc,2024.1.4,Win32,59.95203837,,,,,,,,,,,,,,,,,,,,,,,,,,,,,,,,,,,
59.638,70.719,0,3,3,3,1,"Presiona la tecla 1 si piensas que es una palabra real y la tecla 
  0 si piensas que es una palabra falsa. 
  
  Vamos a practicar un poco...",(presiona la barra espaciadora para continuar),5e6d2835e0de62000922c8c2,001,2025-04-30_16h56.23.268,empathy_intonation_perc,2024.1.4,Win32,59.95203837,,,,,,,,,,,,,,,,,,,,,,,,,,,,,,,,,,,
,,,,,,,,,5e6d2835e0de62000922c8c2,001,2025-04-30_16h56.23.268,empathy_intonation_perc,2024.1.4,Win32,59.95203837,70.723,78.786,1,0,7.52,,78.786,79.785,0,0,0,0,1,0,depiste,0,REAL,FALSA,,,,,,,,,,,,,,,,,
,,,,,,,,,5e6d2835e0de62000922c8c2,001,2025-04-30_16h56.23.268,empathy_intonation_perc,2024.1.4,Win32,59.95203837,79.786,85.152,1,1,4.842,,85.152,86.152,0,1,1,1,1,0,sí,1,REAL,FALSA,,,,,,,,,,,,,,,,,
,,,,,,,,,5e6d2835e0de62000922c8c2,001,2025-04-30_16h56.23.268,empathy_intonation_perc,2024.1.4,Win32,59.95203837,86.152,88.434,0,1,1.767,,88.434,89.434,0,2,2,2,1,0,coné,0,REAL,FALSA,,,,,,,,,,,,,,,,,
,,,,,,,,,5e6d2835e0de62000922c8c2,001,2025-04-30_16h56.23.268,empathy_intonation_perc,2024.1.4,Win32,59.95203837,89.436,91.417,1,0,1.444,,91.417,92.418,0,3,3,3,1,0,calpar,0,REAL,FALSA,,,,,,,,,,,,,,,,,
,,,,,,,,,5e6d2835e0de62000922c8c2,001,2025-04-30_16h56.23.268,empathy_intonation_perc,2024.1.4,Win32,59.95203837,92.419,94.652,0,1,1.682,,94.652,95.651,0,4,4,4,1,0,joten,0,REAL,FALSA,,,,,,,,,,,,,,,,,
,,,,,,,,,5e6d2835e0de62000922c8c2,001,2025-04-30_16h56.23.268,empathy_intonation_perc,2024.1.4,Win32,59.95203837,95.652,99.051,1,1,2.848,,99.052,100.051,0,5,5,5,1,0,sacapuntas,1,REAL,FALSA,,,,,,,,,,,,,,,,,
,,,,,,,,,5e6d2835e0de62000922c8c2,001,2025-04-30_16h56.23.268,empathy_intonation_perc,2024.1.4,Win32,59.95203837,100.053,104.567,1,0,3.978,,104.567,105.567,0,6,6,6,1,0,priba,0,REAL,FALSA,,,,,,,,,,,,,,,,,
,,,,,,,,,5e6d2835e0de62000922c8c2,001,2025-04-30_16h56.23.268,empathy_intonation_perc,2024.1.4,Win32,59.95203837,105.567,107.967,0,1,1.878,,107.967,108.966,0,7,7,7,1,0,pelasula,0,REAL,FALSA,,,,,,,,,,,,,,,,,
,,,,,,,,,5e6d2835e0de62000922c8c2,001,2025-04-30_16h56.23.268,empathy_intonation_perc,2024.1.4,Win32,59.95203837,108.967,110.517,1,1,1.018,,110.517,111.516,0,8,8,8,1,0,bien,1,REAL,FALSA,,,,,,,,,,,,,,,,,
,,,,,,,,,5e6d2835e0de62000922c8c2,001,2025-04-30_16h56.23.268,empathy_intonation_perc,2024.1.4,Win32,59.95203837,111.517,112.999,1,1,0.94,,112.999,114,0,9,9,9,1,0,casa,1,REAL,FALSA,,,,,,,,,,,,,,,,,
,,,,,,,,,5e6d2835e0de62000922c8c2,001,2025-04-30_16h56.23.268,empathy_intonation_perc,2024.1.4,Win32,59.95203837,114,115.566,1,0,1.036,,115.566,116.566,0,10,10,10,1,0,lejo,0,REAL,FALSA,,,,,,,,,,,,,,,,,
,,,,,,,,,5e6d2835e0de62000922c8c2,001,2025-04-30_16h56.23.268,empathy_intonation_perc,2024.1.4,Win32,59.95203837,116.567,122,1,0,4.888,,122,122.999,0,11,11,11,1,0,pretantas,0,REAL,FALSA,,,,,,,,,,,,,,,,,
,,,,,,,,,5e6d2835e0de62000922c8c2,001,2025-04-30_16h56.23.268,empathy_intonation_perc,2024.1.4,Win32,59.95203837,,,,,,,,,,,,,,,,,,,122.999,129.215,,,,,,,,,,,,,,,
,,,,,,,,,5e6d2835e0de62000922c8c2,001,2025-04-30_16h56.23.268,empathy_intonation_perc,2024.1.4,Win32,59.95203837,,,,,,,,,,,,,,78,rendir,,,,,,129.222,131.2,1,0,1.445,,0,0,0,77,1,non_cognate,1,REAL,FALSA
,,,,,,,,,5e6d2835e0de62000922c8c2,001,2025-04-30_16h56.23.268,empathy_intonation_perc,2024.1.4,Win32,59.95203837,,,,,,,,,,,,,,23,plural,,,,,,131.202,132.948,1,0,1.203,,0,1,1,22,1,three_way_cognate,1,REAL,FALSA
,,,,,,,,,5e6d2835e0de62000922c8c2,001,2025-04-30_16h56.23.268,empathy_intonation_perc,2024.1.4,Win32,59.95203837,,,,,,,,,,,,,,67,llamar,,,,,,132.949,134.366,1,0,0.883,,0,2,2,66,1,non_cognate,1,REAL,FALSA
,,,,,,,,,5e6d2835e0de62000922c8c2,001,2025-04-30_16h56.23.268,empathy_intonation_perc,2024.1.4,Win32,59.95203837,,,,,,,,,,,,,,57,regalo,,,,,,134.366,135.832,1,0,0.929,,0,3,3,56,1,non_cognate,1,REAL,FALSA
,,,,,,,,,5e6d2835e0de62000922c8c2,001,2025-04-30_16h56.23.268,empathy_intonation_perc,2024.1.4,Win32,59.95203837,,,,,,,,,,,,,,89,muñeca,,,,,,135.833,138.415,0,1,2.034,,0,4,4,88,1,non_cognate,1,REAL,FALSA
,,,,,,,,,5e6d2835e0de62000922c8c2,001,2025-04-30_16h56.23.268,empathy_intonation_perc,2024.1.4,Win32,59.95203837,,,,,,,,,,,,,,154,harvé,,,,,,138.415,140.181,0,1,1.25,,0,5,5,153,1,pseudoword,0,REAL,FALSA
,,,,,,,,,5e6d2835e0de62000922c8c2,001,2025-04-30_16h56.23.268,empathy_intonation_perc,2024.1.4,Win32,59.95203837,,,,,,,,,,,,,,100,épinas,,,,,,140.182,142.981,0,1,2.257,,0,6,6,99,1,pseudoword,0,REAL,FALSA
,,,,,,,,,5e6d2835e0de62000922c8c2,001,2025-04-30_16h56.23.268,empathy_intonation_perc,2024.1.4,Win32,59.95203837,,,,,,,,,,,,,,133,conso,,,,,,142.982,144.715,0,1,1.183,,0,7,7,132,1,pseudoword,0,REAL,FALSA
,,,,,,,,,5e6d2835e0de62000922c8c2,001,2025-04-30_16h56.23.268,empathy_intonation_perc,2024.1.4,Win32,59.95203837,,,,,,,,,,,,,,182,desaro,,,,,,144.716,148.464,0,1,3.2,,0,8,8,181,1,pseudoword,0,REAL,FALSA
,,,,,,,,,5e6d2835e0de62000922c8c2,001,2025-04-30_16h56.23.268,empathy_intonation_perc,2024.1.4,Win32,59.95203837,,,,,,,,,,,,,,69,tiza,,,,,,148.465,149.814,1,0,0.824,,0,9,9,68,1,non_cognate,1,REAL,FALSA
,,,,,,,,,5e6d2835e0de62000922c8c2,001,2025-04-30_16h56.23.268,empathy_intonation_perc,2024.1.4,Win32,59.95203837,,,,,,,,,,,,,,15,test,,,,,,149.815,151.514,1,0,1.159,,0,10,10,14,1,three_way_cognate,1,REAL,FALSA
,,,,,,,,,5e6d2835e0de62000922c8c2,001,2025-04-30_16h56.23.268,empathy_intonation_perc,2024.1.4,Win32,59.95203837,,,,,,,,,,,,,,120,mauja,,,,,,151.514,153.548,1,0,1.512,,0,11,11,119,1,pseudoword,0,REAL,FALSA
,,,,,,,,,5e6d2835e0de62000922c8c2,001,2025-04-30_16h56.23.268,empathy_intonation_perc,2024.1.4,Win32,59.95203837,,,,,,,,,,,,,,37,torso,,,,,,153.549,155.08,1,0,0.994,,0,12,12,36,1,two_way_cognate,1,REAL,FALSA
,,,,,,,,,5e6d2835e0de62000922c8c2,001,2025-04-30_16h56.23.268,empathy_intonation_perc,2024.1.4,Win32,59.95203837,,,,,,,,,,,,,,11,golf,,,,,,155.081,156.631,1,0,1.032,,0,13,13,10,1,three_way_cognate,1,REAL,FALSA
,,,,,,,,,5e6d2835e0de62000922c8c2,001,2025-04-30_16h56.23.268,empathy_intonation_perc,2024.1.4,Win32,59.95203837,,,,,,,,,,,,,,169,pitis,,,,,,156.631,158.38,0,1,1.23,,0,14,14,168,1,pseudoword,0,REAL,FALSA
,,,,,,,,,5e6d2835e0de62000922c8c2,001,2025-04-30_16h56.23.268,empathy_intonation_perc,2024.1.4,Win32,59.95203837,,,,,,,,,,,,,,62,pegar,,,,,,158.381,162.813,1,0,3.915,,0,15,15,61,1,non_cognate,1,REAL,FALSA
,,,,,,,,,5e6d2835e0de62000922c8c2,001,2025-04-30_16h56.23.268,empathy_intonation_perc,2024.1.4,Win32,59.95203837,,,,,,,,,,,,,,167,dobbo,,,,,,162.813,164.547,0,1,1.207,,0,16,16,166,1,pseudoword,0,REAL,FALSA
,,,,,,,,,5e6d2835e0de62000922c8c2,001,2025-04-30_16h56.23.268,empathy_intonation_perc,2024.1.4,Win32,59.95203837,,,,,,,,,,,,,,32,animal,,,,,,164.549,166.013,1,0,0.927,,0,17,17,31,1,two_way_cognate,1,REAL,FALSA
,,,,,,,,,5e6d2835e0de62000922c8c2,001,2025-04-30_16h56.23.268,empathy_intonation_perc,2024.1.4,Win32,59.95203837,,,,,,,,,,,,,,122,boñaz,,,,,,166.014,168.013,1,0,1.45,,0,18,18,121,1,pseudoword,0,REAL,FALSA
,,,,,,,,,5e6d2835e0de62000922c8c2,001,2025-04-30_16h56.23.268,empathy_intonation_perc,2024.1.4,Win32,59.95203837,,,,,,,,,,,,,,75,patada,,,,,,168.014,170.729,0,1,2.178,,0,19,19,74,1,non_cognate,1,REAL,FALSA
,,,,,,,,,5e6d2835e0de62000922c8c2,001,2025-04-30_16h56.23.268,empathy_intonation_perc,2024.1.4,Win32,59.95203837,,,,,,,,,,,,,,30,fiscal,,,,,,170.73,172.247,1,0,0.969,,0,20,20,29,1,two_way_cognate,1,REAL,FALSA
,,,,,,,,,5e6d2835e0de62000922c8c2,001,2025-04-30_16h56.23.268,empathy_intonation_perc,2024.1.4,Win32,59.95203837,,,,,,,,,,,,,,128,pelí,,,,,,172.247,174.429,1,0,1.647,,0,21,21,127,1,pseudoword,0,REAL,FALSA
,,,,,,,,,5e6d2835e0de62000922c8c2,001,2025-04-30_16h56.23.268,empathy_intonation_perc,2024.1.4,Win32,59.95203837,,,,,,,,,,,,,,171,gotro,,,,,,174.43,176.862,0,1,1.906,,0,22,22,170,1,pseudoword,0,REAL,FALSA
,,,,,,,,,5e6d2835e0de62000922c8c2,001,2025-04-30_16h56.23.268,empathy_intonation_perc,2024.1.4,Win32,59.95203837,,,,,,,,,,,,,,145,rúo,,,,,,176.863,178.795,1,0,1.389,,0,23,23,144,1,pseudoword,0,REAL,FALSA
,,,,,,,,,5e6d2835e0de62000922c8c2,001,2025-04-30_16h56.23.268,empathy_intonation_perc,2024.1.4,Win32,59.95203837,,,,,,,,,,,,,,162,cengo,,,,,,178.796,181.612,0,1,2.28,,0,24,24,161,1,pseudoword,0,REAL,FALSA
,,,,,,,,,5e6d2835e0de62000922c8c2,001,2025-04-30_16h56.23.268,empathy_intonation_perc,2024.1.4,Win32,59.95203837,,,,,,,,,,,,,,168,cobén,,,,,,181.613,184.162,1,0,2.005,,0,25,25,167,1,pseudoword,0,REAL,FALSA
,,,,,,,,,5e6d2835e0de62000922c8c2,001,2025-04-30_16h56.23.268,empathy_intonation_perc,2024.1.4,Win32,59.95203837,,,,,,,,,,,,,,141,virios,,,,,,184.163,187.311,0,1,2.623,,0,26,26,140,1,pseudoword,0,REAL,FALSA
,,,,,,,,,5e6d2835e0de62000922c8c2,001,2025-04-30_16h56.23.268,empathy_intonation_perc,2024.1.4,Win32,59.95203837,,,,,,,,,,,,,,4,flora,,,,,,187.312,188.594,1,0,0.76,,0,27,27,3,1,three_way_cognate,1,REAL,FALSA
,,,,,,,,,5e6d2835e0de62000922c8c2,001,2025-04-30_16h56.23.268,empathy_intonation_perc,2024.1.4,Win32,59.95203837,,,,,,,,,,,,,,125,ceme,,,,,,188.595,190.928,0,1,1.811,,0,28,28,124,1,pseudoword,0,REAL,FALSA
,,,,,,,,,5e6d2835e0de62000922c8c2,001,2025-04-30_16h56.23.268,empathy_intonation_perc,2024.1.4,Win32,59.95203837,,,,,,,,,,,,,,107,plago,,,,,,190.928,192.678,1,0,1.223,,0,29,29,106,1,pseudoword,0,REAL,FALSA
,,,,,,,,,5e6d2835e0de62000922c8c2,001,2025-04-30_16h56.23.268,empathy_intonation_perc,2024.1.4,Win32,59.95203837,,,,,,,,,,,,,,142,parre,,,,,,192.678,196.345,1,0,3.136,,0,30,30,141,1,pseudoword,0,REAL,FALSA
,,,,,,,,,5e6d2835e0de62000922c8c2,001,2025-04-30_16h56.23.268,empathy_intonation_perc,2024.1.4,Win32,59.95203837,,,,,,,,,,,,,,92,flecha,,,,,,196.346,197.846,1,0,0.97,,0,31,31,91,1,non_cognate,1,REAL,FALSA
,,,,,,,,,5e6d2835e0de62000922c8c2,001,2025-04-30_16h56.23.268,empathy_intonation_perc,2024.1.4,Win32,59.95203837,,,,,,,,,,,,,,27,piano,,,,,,197.848,199.061,1,0,0.679,,0,32,32,26,1,two_way_cognate,1,REAL,FALSA
,,,,,,,,,5e6d2835e0de62000922c8c2,001,2025-04-30_16h56.23.268,empathy_intonation_perc,2024.1.4,Win32,59.95203837,,,,,,,,,,,,,,45,total,,,,,,199.062,200.511,1,0,0.907,,0,33,33,44,1,two_way_cognate,1,REAL,FALSA
,,,,,,,,,5e6d2835e0de62000922c8c2,001,2025-04-30_16h56.23.268,empathy_intonation_perc,2024.1.4,Win32,59.95203837,,,,,,,,,,,,,,87,muleta,,,,,,200.511,204.494,0,1,3.472,,0,34,34,86,1,non_cognate,1,REAL,FALSA
,,,,,,,,,5e6d2835e0de62000922c8c2,001,2025-04-30_16h56.23.268,empathy_intonation_perc,2024.1.4,Win32,59.95203837,,,,,,,,,,,,,,19,mafia,,,,,,204.495,205.877,1,0,0.837,,0,35,35,18,1,three_way_cognate,1,REAL,FALSA
,,,,,,,,,5e6d2835e0de62000922c8c2,001,2025-04-30_16h56.23.268,empathy_intonation_perc,2024.1.4,Win32,59.95203837,,,,,,,,,,,,,,8,kilo,,,,,,205.878,207.178,1,0,0.763,,0,36,36,7,1,three_way_cognate,1,REAL,FALSA
,,,,,,,,,5e6d2835e0de62000922c8c2,001,2025-04-30_16h56.23.268,empathy_intonation_perc,2024.1.4,Win32,59.95203837,,,,,,,,,,,,,,113,nasce,,,,,,207.179,209.345,1,0,1.624,,0,37,37,112,1,pseudoword,0,REAL,FALSA
,,,,,,,,,5e6d2835e0de62000922c8c2,001,2025-04-30_16h56.23.268,empathy_intonation_perc,2024.1.4,Win32,59.95203837,,,,,,,,,,,,,,1,moral,,,,,,209.345,210.711,1,0,0.817,,0,38,38,0,1,three_way_cognate,1,REAL,FALSA
,,,,,,,,,5e6d2835e0de62000922c8c2,001,2025-04-30_16h56.23.268,empathy_intonation_perc,2024.1.4,Win32,59.95203837,,,,,,,,,,,,,,117,morrá,,,,,,210.711,212.927,1,0,1.685,,0,39,39,116,1,pseudoword,0,REAL,FALSA
,,,,,,,,,5e6d2835e0de62000922c8c2,001,2025-04-30_16h56.23.268,empathy_intonation_perc,2024.1.4,Win32,59.95203837,,,,,,,,,,,,,,160,fomeó,,,,,,212.928,214.51,0,1,1.041,,0,40,40,159,1,pseudoword,0,REAL,FALSA
,,,,,,,,,5e6d2835e0de62000922c8c2,001,2025-04-30_16h56.23.268,empathy_intonation_perc,2024.1.4,Win32,59.95203837,,,,,,,,,,,,,,190,asumie,,,,,,214.511,217.511,0,1,2.456,,0,41,41,189,1,pseudoword,0,REAL,FALSA
,,,,,,,,,5e6d2835e0de62000922c8c2,001,2025-04-30_16h56.23.268,empathy_intonation_perc,2024.1.4,Win32,59.95203837,,,,,,,,,,,,,,34,actor,,,,,,217.511,218.809,1,0,0.77,,0,42,42,33,1,two_way_cognate,1,REAL,FALSA
,,,,,,,,,5e6d2835e0de62000922c8c2,001,2025-04-30_16h56.23.268,empathy_intonation_perc,2024.1.4,Win32,59.95203837,,,,,,,,,,,,,,6,horror,,,,,,218.81,220.043,1,0,0.712,,0,43,43,5,1,three_way_cognate,1,REAL,FALSA
,,,,,,,,,5e6d2835e0de62000922c8c2,001,2025-04-30_16h56.23.268,empathy_intonation_perc,2024.1.4,Win32,59.95203837,,,,,,,,,,,,,,149,emén,,,,,,220.043,221.876,0,1,1.32,,0,44,44,148,1,pseudoword,0,REAL,FALSA
,,,,,,,,,5e6d2835e0de62000922c8c2,001,2025-04-30_16h56.23.268,empathy_intonation_perc,2024.1.4,Win32,59.95203837,,,,,,,,,,,,,,68,puñal,,,,,,221.876,223.41,1,0,1.01,,0,45,45,67,1,non_cognate,1,REAL,FALSA
,,,,,,,,,5e6d2835e0de62000922c8c2,001,2025-04-30_16h56.23.268,empathy_intonation_perc,2024.1.4,Win32,59.95203837,,,,,,,,,,,,,,151,prías,,,,,,223.41,225.344,1,0,1.402,,0,46,46,150,1,pseudoword,0,REAL,FALSA
,,,,,,,,,5e6d2835e0de62000922c8c2,001,2025-04-30_16h56.23.268,empathy_intonation_perc,2024.1.4,Win32,59.95203837,,,,,,,,,,,,,,55,maldad,,,,,,225.344,228.459,1,0,2.572,,0,47,47,54,1,non_cognate,1,REAL,FALSA
,,,,,,,,,5e6d2835e0de62000922c8c2,001,2025-04-30_16h56.23.268,empathy_intonation_perc,2024.1.4,Win32,59.95203837,,,,,,,,,,,,,,64,rizado,,,,,,228.46,229.91,1,0,0.911,,0,48,48,63,1,non_cognate,1,REAL,FALSA
,,,,,,,,,5e6d2835e0de62000922c8c2,001,2025-04-30_16h56.23.268,empathy_intonation_perc,2024.1.4,Win32,59.95203837,,,,,,,,,,,,,,187,nomata,,,,,,229.91,231.561,0,1,1.123,,0,49,49,186,1,pseudoword,0,REAL,FALSA
,,,,,,,,,5e6d2835e0de62000922c8c2,001,2025-04-30_16h56.23.268,empathy_intonation_perc,2024.1.4,Win32,59.95203837,,,,,,,,,,,,,,126,tobre,,,,,,231.562,233.976,0,1,1.875,,0,50,50,125,1,pseudoword,0,REAL,FALSA
,,,,,,,,,5e6d2835e0de62000922c8c2,001,2025-04-30_16h56.23.268,empathy_intonation_perc,2024.1.4,Win32,59.95203837,,,,,,,,,,,,,,49,teñir,,,,,,233.976,235.243,1,0,0.715,,0,51,51,48,1,non_cognate,1,REAL,FALSA
,,,,,,,,,5e6d2835e0de62000922c8c2,001,2025-04-30_16h56.23.268,empathy_intonation_perc,2024.1.4,Win32,59.95203837,,,,,,,,,,,,,,20,trauma,,,,,,235.243,238.426,1,0,2.655,,0,52,52,19,1,three_way_cognate,1,REAL,FALSA
,,,,,,,,,5e6d2835e0de62000922c8c2,001,2025-04-30_16h56.23.268,empathy_intonation_perc,2024.1.4,Win32,59.95203837,,,,,,,,,,,,,,159,trcia,,,,,,238.426,240.292,0,1,1.329,,0,53,53,158,1,pseudoword,0,REAL,FALSA
,,,,,,,,,5e6d2835e0de62000922c8c2,001,2025-04-30_16h56.23.268,empathy_intonation_perc,2024.1.4,Win32,59.95203837,,,,,,,,,,,,,,63,hilo,,,,,,240.292,242.741,0,1,1.916,,0,54,54,62,1,non_cognate,1,REAL,FALSA
,,,,,,,,,5e6d2835e0de62000922c8c2,001,2025-04-30_16h56.23.268,empathy_intonation_perc,2024.1.4,Win32,59.95203837,,,,,,,,,,,,,,129,vinzó,,,,,,242.742,244.358,1,0,1.083,,0,55,55,128,1,pseudoword,0,REAL,FALSA
,,,,,,,,,5e6d2835e0de62000922c8c2,001,2025-04-30_16h56.23.268,empathy_intonation_perc,2024.1.4,Win32,59.95203837,,,,,,,,,,,,,,99,bugor,,,,,,244.358,247.025,0,1,2.145,,0,56,56,98,1,pseudoword,0,REAL,FALSA
,,,,,,,,,5e6d2835e0de62000922c8c2,001,2025-04-30_16h56.23.268,empathy_intonation_perc,2024.1.4,Win32,59.95203837,,,,,,,,,,,,,,165,chote,,,,,,247.026,248.608,1,0,1.041,,0,57,57,164,1,pseudoword,0,REAL,FALSA
,,,,,,,,,5e6d2835e0de62000922c8c2,001,2025-04-30_16h56.23.268,empathy_intonation_perc,2024.1.4,Win32,59.95203837,,,,,,,,,,,,,,106,diebro,,,,,,248.608,251.325,1,0,2.193,,0,58,58,105,1,pseudoword,0,REAL,FALSA
,,,,,,,,,5e6d2835e0de62000922c8c2,001,2025-04-30_16h56.23.268,empathy_intonation_perc,2024.1.4,Win32,59.95203837,,,,,,,,,,,,,,10,drama,,,,,,251.325,252.591,1,0,0.729,,0,59,59,9,1,three_way_cognate,1,REAL,FALSA
,,,,,,,,,5e6d2835e0de62000922c8c2,001,2025-04-30_16h56.23.268,empathy_intonation_perc,2024.1.4,Win32,59.95203837,,,,,,,,,,,,,,177,entodo,,,,,,252.591,254.575,1,0,1.452,,0,60,60,176,1,pseudoword,0,REAL,FALSA
,,,,,,,,,5e6d2835e0de62000922c8c2,001,2025-04-30_16h56.23.268,empathy_intonation_perc,2024.1.4,Win32,59.95203837,,,,,,,,,,,,,,152,prave,,,,,,254.575,256.225,0,1,1.126,,0,61,61,151,1,pseudoword,0,REAL,FALSA
,,,,,,,,,5e6d2835e0de62000922c8c2,001,2025-04-30_16h56.23.268,empathy_intonation_perc,2024.1.4,Win32,59.95203837,,,,,,,,,,,,,,35,aurora,,,,,,256.225,257.541,1,0,0.782,,0,62,62,34,1,two_way_cognate,1,REAL,FALSA
,,,,,,,,,5e6d2835e0de62000922c8c2,001,2025-04-30_16h56.23.268,empathy_intonation_perc,2024.1.4,Win32,59.95203837,,,,,,,,,,,,,,18,altar,,,,,,257.541,258.707,1,0,0.643,,0,63,63,17,1,three_way_cognate,1,REAL,FALSA
,,,,,,,,,5e6d2835e0de62000922c8c2,001,2025-04-30_16h56.23.268,empathy_intonation_perc,2024.1.4,Win32,59.95203837,,,,,,,,,,,,,,25,vigor,,,,,,258.708,260.041,1,0,0.804,,0,64,64,24,1,two_way_cognate,1,REAL,FALSA
,,,,,,,,,5e6d2835e0de62000922c8c2,001,2025-04-30_16h56.23.268,empathy_intonation_perc,2024.1.4,Win32,59.95203837,,,,,,,,,,,,,,12,dogma,,,,,,260.041,261.441,1,0,0.874,,0,65,65,11,1,three_way_cognate,1,REAL,FALSA
,,,,,,,,,5e6d2835e0de62000922c8c2,001,2025-04-30_16h56.23.268,empathy_intonation_perc,2024.1.4,Win32,59.95203837,,,,,,,,,,,,,,138,tator,,,,,,261.441,263.241,0,1,1.28,,0,66,66,137,1,pseudoword,0,REAL,FALSA
,,,,,,,,,5e6d2835e0de62000922c8c2,001,2025-04-30_16h56.23.268,empathy_intonation_perc,2024.1.4,Win32,59.95203837,,,,,,,,,,,,,,143,hurcos,,,,,,263.241,264.908,0,1,1.118,,0,67,67,142,1,pseudoword,0,REAL,FALSA
,,,,,,,,,5e6d2835e0de62000922c8c2,001,2025-04-30_16h56.23.268,empathy_intonation_perc,2024.1.4,Win32,59.95203837,,,,,,,,,,,,,,102,coyo,,,,,,264.91,266.29,1,0,0.845,,0,68,68,101,1,pseudoword,0,REAL,FALSA
,,,,,,,,,5e6d2835e0de62000922c8c2,001,2025-04-30_16h56.23.268,empathy_intonation_perc,2024.1.4,Win32,59.95203837,,,,,,,,,,,,,,22,mango,,,,,,266.29,267.574,1,0,0.758,,0,69,69,21,1,three_way_cognate,1,REAL,FALSA
,,,,,,,,,5e6d2835e0de62000922c8c2,001,2025-04-30_16h56.23.268,empathy_intonation_perc,2024.1.4,Win32,59.95203837,,,,,,,,,,,,,,172,dogue,,,,,,267.575,272.19,0,1,4.078,,0,70,70,171,1,pseudoword,0,REAL,FALSA
,,,,,,,,,5e6d2835e0de62000922c8c2,001,2025-04-30_16h56.23.268,empathy_intonation_perc,2024.1.4,Win32,59.95203837,,,,,,,,,,,,,,94,forro,,,,,,272.191,273.689,1,0,0.972,,0,71,71,93,1,non_cognate,1,REAL,FALSA
,,,,,,,,,5e6d2835e0de62000922c8c2,001,2025-04-30_16h56.23.268,empathy_intonation_perc,2024.1.4,Win32,59.95203837,,,,,,,,,,,,,,119,esís,,,,,,273.69,275.906,0,1,1.694,,0,72,72,118,1,pseudoword,0,REAL,FALSA
,,,,,,,,,5e6d2835e0de62000922c8c2,001,2025-04-30_16h56.23.268,empathy_intonation_perc,2024.1.4,Win32,59.95203837,,,,,,,,,,,,,,147,alla,,,,,,275.907,277.34,1,0,0.881,,0,73,73,146,1,pseudoword,0,REAL,FALSA
,,,,,,,,,5e6d2835e0de62000922c8c2,001,2025-04-30_16h56.23.268,empathy_intonation_perc,2024.1.4,Win32,59.95203837,,,,,,,,,,,,,,95,listo,,,,,,277.341,278.773,1,0,0.884,,0,74,74,94,1,non_cognate,1,REAL,FALSA
,,,,,,,,,5e6d2835e0de62000922c8c2,001,2025-04-30_16h56.23.268,empathy_intonation_perc,2024.1.4,Win32,59.95203837,,,,,,,,,,,,,,163,llzan,,,,,,278.773,281.24,0,1,1.939,,0,75,75,162,1,pseudoword,0,REAL,FALSA
,,,,,,,,,5e6d2835e0de62000922c8c2,001,2025-04-30_16h56.23.268,empathy_intonation_perc,2024.1.4,Win32,59.95203837,,,,,,,,,,,,,,170,diabo,,,,,,281.24,283.79,0,1,2.016,,0,76,76,169,1,pseudoword,0,REAL,FALSA
,,,,,,,,,5e6d2835e0de62000922c8c2,001,2025-04-30_16h56.23.268,empathy_intonation_perc,2024.1.4,Win32,59.95203837,,,,,,,,,,,,,,51,listo,,,,,,283.79,285.022,1,0,0.697,,0,77,77,50,1,non_cognate,1,REAL,FALSA
,,,,,,,,,5e6d2835e0de62000922c8c2,001,2025-04-30_16h56.23.268,empathy_intonation_perc,2024.1.4,Win32,59.95203837,,,,,,,,,,,,,,38,halo,,,,,,285.022,287.24,1,0,1.686,,0,78,78,37,1,two_way_cognate,1,REAL,FALSA
,,,,,,,,,5e6d2835e0de62000922c8c2,001,2025-04-30_16h56.23.268,empathy_intonation_perc,2024.1.4,Win32,59.95203837,,,,,,,,,,,,,,127,vien,,,,,,287.24,288.506,1,0,0.714,,0,79,79,126,1,pseudoword,0,REAL,FALSA
,,,,,,,,,5e6d2835e0de62000922c8c2,001,2025-04-30_16h56.23.268,empathy_intonation_perc,2024.1.4,Win32,59.95203837,,,,,,,,,,,,,,85,enorme,,,,,,288.506,289.906,1,0,0.862,,0,80,80,84,1,non_cognate,1,REAL,FALSA
,,,,,,,,,5e6d2835e0de62000922c8c2,001,2025-04-30_16h56.23.268,empathy_intonation_perc,2024.1.4,Win32,59.95203837,,,,,,,,,,,,,,110,densó,,,,,,289.906,291.972,0,1,1.53,,0,81,81,109,1,pseudoword,0,REAL,FALSA
,,,,,,,,,5e6d2835e0de62000922c8c2,001,2025-04-30_16h56.23.268,empathy_intonation_perc,2024.1.4,Win32,59.95203837,,,,,,,,,,,,,,116,grigir,,,,,,291.972,294.439,0,1,1.934,,0,82,82,115,1,pseudoword,0,REAL,FALSA
,,,,,,,,,5e6d2835e0de62000922c8c2,001,2025-04-30_16h56.23.268,empathy_intonation_perc,2024.1.4,Win32,59.95203837,,,,,,,,,,,,,,52,blando,,,,,,294.439,296.539,1,0,1.573,,0,83,83,51,1,non_cognate,1,REAL,FALSA
,,,,,,,,,5e6d2835e0de62000922c8c2,001,2025-04-30_16h56.23.268,empathy_intonation_perc,2024.1.4,Win32,59.95203837,,,,,,,,,,,,,,97,nocita,,,,,,296.539,299.489,0,1,2.426,,0,84,84,96,1,pseudoword,0,REAL,FALSA
,,,,,,,,,5e6d2835e0de62000922c8c2,001,2025-04-30_16h56.23.268,empathy_intonation_perc,2024.1.4,Win32,59.95203837,,,,,,,,,,,,,,58,colcha,,,,,,299.491,300.738,1,0,0.7,,0,85,85,57,1,non_cognate,1,REAL,FALSA
,,,,,,,,,5e6d2835e0de62000922c8c2,001,2025-04-30_16h56.23.268,empathy_intonation_perc,2024.1.4,Win32,59.95203837,,,,,,,,,,,,,,65,guerra,,,,,,300.738,302.038,1,0,0.787,,0,86,86,64,1,non_cognate,1,REAL,FALSA
,,,,,,,,,5e6d2835e0de62000922c8c2,001,2025-04-30_16h56.23.268,empathy_intonation_perc,2024.1.4,Win32,59.95203837,,,,,,,,,,,,,,14,aura,,,,,,302.038,303.188,1,0,0.636,,0,87,87,13,1,three_way_cognate,1,REAL,FALSA
,,,,,,,,,5e6d2835e0de62000922c8c2,001,2025-04-30_16h56.23.268,empathy_intonation_perc,2024.1.4,Win32,59.95203837,,,,,,,,,,,,,,178,inichó,,,,,,303.188,307.371,0,1,3.65,,0,88,88,177,1,pseudoword,0,REAL,FALSA
,,,,,,,,,5e6d2835e0de62000922c8c2,001,2025-04-30_16h56.23.268,empathy_intonation_perc,2024.1.4,Win32,59.95203837,,,,,,,,,,,,,,74,ala,,,,,,307.371,308.721,1,0,0.818,,0,89,89,73,1,non_cognate,1,REAL,FALSA
,,,,,,,,,5e6d2835e0de62000922c8c2,001,2025-04-30_16h56.23.268,empathy_intonation_perc,2024.1.4,Win32,59.95203837,,,,,,,,,,,,,,24,retina,,,,,,308.721,310.071,1,0,0.824,,0,90,90,23,1,three_way_cognate,1,REAL,FALSA
,,,,,,,,,5e6d2835e0de62000922c8c2,001,2025-04-30_16h56.23.268,empathy_intonation_perc,2024.1.4,Win32,59.95203837,,,,,,,,,,,,,,79,suelo,,,,,,310.071,311.354,1,0,0.763,,0,91,91,78,1,non_cognate,1,REAL,FALSA
,,,,,,,,,5e6d2835e0de62000922c8c2,001,2025-04-30_16h56.23.268,empathy_intonation_perc,2024.1.4,Win32,59.95203837,,,,,,,,,,,,,,91,equipo,,,,,,311.355,314.287,1,0,2.391,,0,92,92,90,1,non_cognate,1,REAL,FALSA
,,,,,,,,,5e6d2835e0de62000922c8c2,001,2025-04-30_16h56.23.268,empathy_intonation_perc,2024.1.4,Win32,59.95203837,,,,,,,,,,,,,,21,hotel,,,,,,314.287,315.838,1,0,1.024,,0,93,93,20,1,three_way_cognate,1,REAL,FALSA
,,,,,,,,,5e6d2835e0de62000922c8c2,001,2025-04-30_16h56.23.268,empathy_intonation_perc,2024.1.4,Win32,59.95203837,,,,,,,,,,,,,,47,color,,,,,,315.838,317.421,1,0,1.037,,0,94,94,46,1,two_way_cognate,1,REAL,FALSA
,,,,,,,,,5e6d2835e0de62000922c8c2,001,2025-04-30_16h56.23.268,empathy_intonation_perc,2024.1.4,Win32,59.95203837,,,,,,,,,,,,,,29,clamor,,,,,,317.421,319.071,1,0,1.116,,0,95,95,28,1,two_way_cognate,1,REAL,FALSA
,,,,,,,,,5e6d2835e0de62000922c8c2,001,2025-04-30_16h56.23.268,empathy_intonation_perc,2024.1.4,Win32,59.95203837,,,,,,,,,,,,,,184,huenos,,,,,,319.072,322.888,0,1,3.266,,0,96,96,183,1,pseudoword,0,REAL,FALSA
,,,,,,,,,5e6d2835e0de62000922c8c2,001,2025-04-30_16h56.23.268,empathy_intonation_perc,2024.1.4,Win32,59.95203837,,,,,,,,,,,,,,135,panté,,,,,,322.888,326.02,0,1,2.584,,0,97,97,134,1,pseudoword,0,REAL,FALSA
,,,,,,,,,5e6d2835e0de62000922c8c2,001,2025-04-30_16h56.23.268,empathy_intonation_perc,2024.1.4,Win32,59.95203837,,,,,,,,,,,,,,104,estulo,,,,,,326.021,328.371,1,0,1.809,,0,98,98,103,1,pseudoword,0,REAL,FALSA
,,,,,,,,,5e6d2835e0de62000922c8c2,001,2025-04-30_16h56.23.268,empathy_intonation_perc,2024.1.4,Win32,59.95203837,,,,,,,,,,,,,,13,plan,,,,,,328.371,329.686,1,0,0.781,,0,99,99,12,1,three_way_cognate,1,REAL,FALSA
,,,,,,,,,5e6d2835e0de62000922c8c2,001,2025-04-30_16h56.23.268,empathy_intonation_perc,2024.1.4,Win32,59.95203837,,,,,,,,,,,,,,60,siglo,,,,,,329.687,330.87,1,0,0.656,,0,100,100,59,1,non_cognate,1,REAL,FALSA
,,,,,,,,,5e6d2835e0de62000922c8c2,001,2025-04-30_16h56.23.268,empathy_intonation_perc,2024.1.4,Win32,59.95203837,,,,,,,,,,,,,,130,dubo,,,,,,330.871,332.638,0,1,1.223,,0,101,101,129,1,pseudoword,0,REAL,FALSA
,,,,,,,,,5e6d2835e0de62000922c8c2,001,2025-04-30_16h56.23.268,empathy_intonation_perc,2024.1.4,Win32,59.95203837,,,,,,,,,,,,,,5,extra,,,,,,332.639,333.869,1,0,0.696,,0,102,102,4,1,three_way_cognate,1,REAL,FALSA
,,,,,,,,,5e6d2835e0de62000922c8c2,001,2025-04-30_16h56.23.268,empathy_intonation_perc,2024.1.4,Win32,59.95203837,,,,,,,,,,,,,,179,suelet,,,,,,333.87,335.636,0,1,1.218,,0,103,103,178,1,pseudoword,0,REAL,FALSA
,,,,,,,,,5e6d2835e0de62000922c8c2,001,2025-04-30_16h56.23.268,empathy_intonation_perc,2024.1.4,Win32,59.95203837,,,,,,,,,,,,,,136,hueas,,,,,,335.636,337.72,0,1,1.555,,0,104,104,135,1,pseudoword,0,REAL,FALSA
,,,,,,,,,5e6d2835e0de62000922c8c2,001,2025-04-30_16h56.23.268,empathy_intonation_perc,2024.1.4,Win32,59.95203837,,,,,,,,,,,,,,28,ardor,,,,,,337.721,339.086,1,0,0.824,,0,105,105,27,1,two_way_cognate,1,REAL,FALSA
,,,,,,,,,5e6d2835e0de62000922c8c2,001,2025-04-30_16h56.23.268,empathy_intonation_perc,2024.1.4,Win32,59.95203837,,,,,,,,,,,,,,26,enigma,,,,,,339.087,340.402,1,0,0.767,,0,106,106,25,1,two_way_cognate,1,REAL,FALSA
,,,,,,,,,5e6d2835e0de62000922c8c2,001,2025-04-30_16h56.23.268,empathy_intonation_perc,2024.1.4,Win32,59.95203837,,,,,,,,,,,,,,43,honor,,,,,,340.403,341.769,1,0,0.843,,0,107,107,42,1,two_way_cognate,1,REAL,FALSA
,,,,,,,,,5e6d2835e0de62000922c8c2,001,2025-04-30_16h56.23.268,empathy_intonation_perc,2024.1.4,Win32,59.95203837,,,,,,,,,,,,,,56,pico,,,,,,341.769,343.635,1,0,1.347,,0,108,108,55,1,non_cognate,1,REAL,FALSA
,,,,,,,,,5e6d2835e0de62000922c8c2,001,2025-04-30_16h56.23.268,empathy_intonation_perc,2024.1.4,Win32,59.95203837,,,,,,,,,,,,,,93,tapa,,,,,,343.636,345.052,1,0,0.896,,0,109,109,92,1,non_cognate,1,REAL,FALSA
,,,,,,,,,5e6d2835e0de62000922c8c2,001,2025-04-30_16h56.23.268,empathy_intonation_perc,2024.1.4,Win32,59.95203837,,,,,,,,,,,,,,176,gripar,,,,,,345.053,346.552,0,1,0.948,,0,110,110,175,1,pseudoword,0,REAL,FALSA
,,,,,,,,,5e6d2835e0de62000922c8c2,001,2025-04-30_16h56.23.268,empathy_intonation_perc,2024.1.4,Win32,59.95203837,,,,,,,,,,,,,,132,nocó,,,,,,346.553,349.402,0,1,2.318,,0,111,111,131,1,pseudoword,0,REAL,FALSA
,,,,,,,,,5e6d2835e0de62000922c8c2,001,2025-04-30_16h56.23.268,empathy_intonation_perc,2024.1.4,Win32,59.95203837,,,,,,,,,,,,,,76,chocar,,,,,,349.403,351.368,0,1,1.431,,0,112,112,75,1,non_cognate,1,REAL,FALSA
,,,,,,,,,5e6d2835e0de62000922c8c2,001,2025-04-30_16h56.23.268,empathy_intonation_perc,2024.1.4,Win32,59.95203837,,,,,,,,,,,,,,174,pabea,,,,,,351.369,353.169,0,1,1.273,,0,113,113,173,1,pseudoword,0,REAL,FALSA
,,,,,,,,,5e6d2835e0de62000922c8c2,001,2025-04-30_16h56.23.268,empathy_intonation_perc,2024.1.4,Win32,59.95203837,,,,,,,,,,,,,,134,molor,,,,,,353.169,354.385,1,0,0.686,,0,114,114,133,1,pseudoword,0,REAL,FALSA
,,,,,,,,,5e6d2835e0de62000922c8c2,001,2025-04-30_16h56.23.268,empathy_intonation_perc,2024.1.4,Win32,59.95203837,,,,,,,,,,,,,,7,albino,,,,,,354.386,355.685,1,0,0.75,,0,115,115,6,1,three_way_cognate,1,REAL,FALSA
,,,,,,,,,5e6d2835e0de62000922c8c2,001,2025-04-30_16h56.23.268,empathy_intonation_perc,2024.1.4,Win32,59.95203837,,,,,,,,,,,,,,118,bará,,,,,,355.685,357.968,1,0,1.756,,0,116,116,117,1,pseudoword,0,REAL,FALSA
,,,,,,,,,5e6d2835e0de62000922c8c2,001,2025-04-30_16h56.23.268,empathy_intonation_perc,2024.1.4,Win32,59.95203837,,,,,,,,,,,,,,80,cuenco,,,,,,357.968,359.784,1,0,1.292,,0,117,117,79,1,non_cognate,1,REAL,FALSA
,,,,,,,,,5e6d2835e0de62000922c8c2,001,2025-04-30_16h56.23.268,empathy_intonation_perc,2024.1.4,Win32,59.95203837,,,,,,,,,,,,,,71,torta,,,,,,359.785,361.318,1,0,1,,0,118,118,70,1,non_cognate,1,REAL,FALSA
,,,,,,,,,5e6d2835e0de62000922c8c2,001,2025-04-30_16h56.23.268,empathy_intonation_perc,2024.1.4,Win32,59.95203837,,,,,,,,,,,,,,121,barbs,,,,,,361.318,362.935,0,1,1.092,,0,119,119,120,1,pseudoword,0,REAL,FALSA
,,,,,,,,,5e6d2835e0de62000922c8c2,001,2025-04-30_16h56.23.268,empathy_intonation_perc,2024.1.4,Win32,59.95203837,,,,,,,,,,,,,,39,casual,,,,,,362.935,364.484,1,0,1.005,,0,120,120,38,1,two_way_cognate,1,REAL,FALSA
,,,,,,,,,5e6d2835e0de62000922c8c2,001,2025-04-30_16h56.23.268,empathy_intonation_perc,2024.1.4,Win32,59.95203837,,,,,,,,,,,,,,173,mibro,,,,,,364.485,366.118,0,1,1.104,,0,121,121,172,1,pseudoword,0,REAL,FALSA
,,,,,,,,,5e6d2835e0de62000922c8c2,001,2025-04-30_16h56.23.268,empathy_intonation_perc,2024.1.4,Win32,59.95203837,,,,,,,,,,,,,,16,chat,,,,,,366.12,367.818,1,0,1.163,,0,122,122,15,1,three_way_cognate,1,REAL,FALSA
,,,,,,,,,5e6d2835e0de62000922c8c2,001,2025-04-30_16h56.23.268,empathy_intonation_perc,2024.1.4,Win32,59.95203837,,,,,,,,,,,,,,131,fuar,,,,,,367.819,371.35,0,1,2.997,,0,123,123,130,1,pseudoword,0,REAL,FALSA
,,,,,,,,,5e6d2835e0de62000922c8c2,001,2025-04-30_16h56.23.268,empathy_intonation_perc,2024.1.4,Win32,59.95203837,,,,,,,,,,,,,,48,pelvis,,,,,,371.351,373.234,1,0,1.347,,0,124,124,47,1,two_way_cognate,1,REAL,FALSA
,,,,,,,,,5e6d2835e0de62000922c8c2,001,2025-04-30_16h56.23.268,empathy_intonation_perc,2024.1.4,Win32,59.95203837,,,,,,,,,,,,,,77,suave,,,,,,373.235,374.934,1,0,1.156,,0,125,125,76,1,non_cognate,1,REAL,FALSA
,,,,,,,,,5e6d2835e0de62000922c8c2,001,2025-04-30_16h56.23.268,empathy_intonation_perc,2024.1.4,Win32,59.95203837,,,,,,,,,,,,,,124,lobe,,,,,,374.935,376.483,0,1,1.008,,0,126,126,123,1,pseudoword,0,REAL,FALSA
,,,,,,,,,5e6d2835e0de62000922c8c2,001,2025-04-30_16h56.23.268,empathy_intonation_perc,2024.1.4,Win32,59.95203837,,,,,,,,,,,,,,188,amplir,,,,,,376.484,378.25,1,0,1.238,,0,127,127,187,1,pseudoword,0,REAL,FALSA
,,,,,,,,,5e6d2835e0de62000922c8c2,001,2025-04-30_16h56.23.268,empathy_intonation_perc,2024.1.4,Win32,59.95203837,,,,,,,,,,,,,,105,peniz,,,,,,378.251,380.55,1,0,1.765,,0,128,128,104,1,pseudoword,0,REAL,FALSA
,,,,,,,,,5e6d2835e0de62000922c8c2,001,2025-04-30_16h56.23.268,empathy_intonation_perc,2024.1.4,Win32,59.95203837,,,,,,,,,,,,,,192,próces,,,,,,380.551,382.7,1,0,1.611,,0,129,129,191,1,pseudoword,0,REAL,FALSA
,,,,,,,,,5e6d2835e0de62000922c8c2,001,2025-04-30_16h56.23.268,empathy_intonation_perc,2024.1.4,Win32,59.95203837,,,,,,,,,,,,,,31,civil,,,,,,382.7,383.95,1,0,0.73,,0,130,130,30,1,two_way_cognate,1,REAL,FALSA
,,,,,,,,,5e6d2835e0de62000922c8c2,001,2025-04-30_16h56.23.268,empathy_intonation_perc,2024.1.4,Win32,59.95203837,,,,,,,,,,,,,,140,chorde,,,,,,383.95,385.283,0,1,0.811,,0,131,131,139,1,pseudoword,0,REAL,FALSA
,,,,,,,,,5e6d2835e0de62000922c8c2,001,2025-04-30_16h56.23.268,empathy_intonation_perc,2024.1.4,Win32,59.95203837,,,,,,,,,,,,,,185,aljizo,,,,,,385.284,387.3,1,0,1.486,,0,132,132,184,1,pseudoword,0,REAL,FALSA
,,,,,,,,,5e6d2835e0de62000922c8c2,001,2025-04-30_16h56.23.268,empathy_intonation_perc,2024.1.4,Win32,59.95203837,,,,,,,,,,,,,,72,rostro,,,,,,387.3,388.816,1,0,0.997,,0,133,133,71,1,non_cognate,1,REAL,FALSA
,,,,,,,,,5e6d2835e0de62000922c8c2,001,2025-04-30_16h56.23.268,empathy_intonation_perc,2024.1.4,Win32,59.95203837,,,,,,,,,,,,,,101,losco,,,,,,388.817,390.482,0,1,1.133,,0,134,134,100,1,pseudoword,0,REAL,FALSA
,,,,,,,,,5e6d2835e0de62000922c8c2,001,2025-04-30_16h56.23.268,empathy_intonation_perc,2024.1.4,Win32,59.95203837,,,,,,,,,,,,,,158,babrá,,,,,,390.483,392.449,0,1,1.444,,0,135,135,157,1,pseudoword,0,REAL,FALSA
,,,,,,,,,5e6d2835e0de62000922c8c2,001,2025-04-30_16h56.23.268,empathy_intonation_perc,2024.1.4,Win32,59.95203837,,,,,,,,,,,,,,83,hálito,,,,,,392.449,394.216,1,0,1.237,,0,136,136,82,1,non_cognate,1,REAL,FALSA
,,,,,,,,,5e6d2835e0de62000922c8c2,001,2025-04-30_16h56.23.268,empathy_intonation_perc,2024.1.4,Win32,59.95203837,,,,,,,,,,,,,,44,editor,,,,,,394.216,395.599,1,0,0.855,,0,137,137,43,1,two_way_cognate,1,REAL,FALSA
,,,,,,,,,5e6d2835e0de62000922c8c2,001,2025-04-30_16h56.23.268,empathy_intonation_perc,2024.1.4,Win32,59.95203837,,,,,,,,,,,,,,191,frasis,,,,,,395.599,397.082,0,1,0.969,,0,138,138,190,1,pseudoword,0,REAL,FALSA
,,,,,,,,,5e6d2835e0de62000922c8c2,001,2025-04-30_16h56.23.268,empathy_intonation_perc,2024.1.4,Win32,59.95203837,,,,,,,,,,,,,,150,cricó,,,,,,397.082,399.6,0,1,1.985,,0,139,139,149,1,pseudoword,0,REAL,FALSA
,,,,,,,,,5e6d2835e0de62000922c8c2,001,2025-04-30_16h56.23.268,empathy_intonation_perc,2024.1.4,Win32,59.95203837,,,,,,,,,,,,,,111,monue,,,,,,399.602,401.032,0,1,0.882,,0,140,140,110,1,pseudoword,0,REAL,FALSA
,,,,,,,,,5e6d2835e0de62000922c8c2,001,2025-04-30_16h56.23.268,empathy_intonation_perc,2024.1.4,Win32,59.95203837,,,,,,,,,,,,,,53,punta,,,,,,401.032,402.316,1,0,0.76,,0,141,141,52,1,non_cognate,1,REAL,FALSA
,,,,,,,,,5e6d2835e0de62000922c8c2,001,2025-04-30_16h56.23.268,empathy_intonation_perc,2024.1.4,Win32,59.95203837,,,,,,,,,,,,,,42,rumor,,,,,,402.316,403.549,1,0,0.684,,0,142,142,41,1,two_way_cognate,1,REAL,FALSA
,,,,,,,,,5e6d2835e0de62000922c8c2,001,2025-04-30_16h56.23.268,empathy_intonation_perc,2024.1.4,Win32,59.95203837,,,,,,,,,,,,,,103,vueras,,,,,,403.549,406.482,0,1,2.419,,0,143,143,102,1,pseudoword,0,REAL,FALSA
,,,,,,,,,5e6d2835e0de62000922c8c2,001,2025-04-30_16h56.23.268,empathy_intonation_perc,2024.1.4,Win32,59.95203837,,,,,,,,,,,,,,189,medium,,,,,,406.483,407.898,1,0,0.878,,0,144,144,188,1,pseudoword,0,REAL,FALSA
,,,,,,,,,5e6d2835e0de62000922c8c2,001,2025-04-30_16h56.23.268,empathy_intonation_perc,2024.1.4,Win32,59.95203837,,,,,,,,,,,,,,73,llevar,,,,,,407.899,409.165,1,0,0.726,,0,145,145,72,1,non_cognate,1,REAL,FALSA
,,,,,,,,,5e6d2835e0de62000922c8c2,001,2025-04-30_16h56.23.268,empathy_intonation_perc,2024.1.4,Win32,59.95203837,,,,,,,,,,,,,,148,gino,,,,,,409.165,411.048,0,1,1.352,,0,146,146,147,1,pseudoword,0,REAL,FALSA
,,,,,,,,,5e6d2835e0de62000922c8c2,001,2025-04-30_16h56.23.268,empathy_intonation_perc,2024.1.4,Win32,59.95203837,,,,,,,,,,,,,,144,diroco,,,,,,411.048,412.715,1,0,1.143,,0,147,147,143,1,pseudoword,0,REAL,FALSA
,,,,,,,,,5e6d2835e0de62000922c8c2,001,2025-04-30_16h56.23.268,empathy_intonation_perc,2024.1.4,Win32,59.95203837,,,,,,,,,,,,,,50,sierra,,,,,,412.715,414.082,1,0,0.828,,0,148,148,49,1,non_cognate,1,REAL,FALSA
,,,,,,,,,5e6d2835e0de62000922c8c2,001,2025-04-30_16h56.23.268,empathy_intonation_perc,2024.1.4,Win32,59.95203837,,,,,,,,,,,,,,139,sasos,,,,,,414.082,416.265,0,1,1.659,,0,149,149,138,1,pseudoword,0,REAL,FALSA
,,,,,,,,,5e6d2835e0de62000922c8c2,001,2025-04-30_16h56.23.268,empathy_intonation_perc,2024.1.4,Win32,59.95203837,,,,,,,,,,,,,,17,clan,,,,,,416.265,417.548,1,0,0.755,,0,150,150,16,1,three_way_cognate,1,REAL,FALSA
,,,,,,,,,5e6d2835e0de62000922c8c2,001,2025-04-30_16h56.23.268,empathy_intonation_perc,2024.1.4,Win32,59.95203837,,,,,,,,,,,,,,86,cuenco,,,,,,417.548,418.948,1,0,0.871,,0,151,151,85,1,non_cognate,1,REAL,FALSA
,,,,,,,,,5e6d2835e0de62000922c8c2,001,2025-04-30_16h56.23.268,empathy_intonation_perc,2024.1.4,Win32,59.95203837,,,,,,,,,,,,,,155,kugis,,,,,,418.948,420.565,0,1,1.09,,0,152,152,154,1,pseudoword,0,REAL,FALSA
,,,,,,,,,5e6d2835e0de62000922c8c2,001,2025-04-30_16h56.23.268,empathy_intonation_perc,2024.1.4,Win32,59.95203837,,,,,,,,,,,,,,180,pupica,,,,,,420.565,422.765,1,0,1.659,,0,153,153,179,1,pseudoword,0,REAL,FALSA
,,,,,,,,,5e6d2835e0de62000922c8c2,001,2025-04-30_16h56.23.268,empathy_intonation_perc,2024.1.4,Win32,59.95203837,,,,,,,,,,,,,,96,caro,,,,,,422.766,424.097,1,0,0.797,,0,154,154,95,1,non_cognate,1,REAL,FALSA
,,,,,,,,,5e6d2835e0de62000922c8c2,001,2025-04-30_16h56.23.268,empathy_intonation_perc,2024.1.4,Win32,59.95203837,,,,,,,,,,,,,,36,viable,,,,,,424.097,426.747,1,0,2.13,,0,155,155,35,1,two_way_cognate,1,REAL,FALSA
,,,,,,,,,5e6d2835e0de62000922c8c2,001,2025-04-30_16h56.23.268,empathy_intonation_perc,2024.1.4,Win32,59.95203837,,,,,,,,,,,,,,41,pasta,,,,,,426.747,428.064,1,0,0.792,,0,156,156,40,1,two_way_cognate,1,REAL,FALSA
,,,,,,,,,5e6d2835e0de62000922c8c2,001,2025-04-30_16h56.23.268,empathy_intonation_perc,2024.1.4,Win32,59.95203837,,,,,,,,,,,,,,33,collar,,,,,,428.065,429.447,1,0,0.838,,0,157,157,32,1,two_way_cognate,1,REAL,FALSA
,,,,,,,,,5e6d2835e0de62000922c8c2,001,2025-04-30_16h56.23.268,empathy_intonation_perc,2024.1.4,Win32,59.95203837,,,,,,,,,,,,,,183,edioso,,,,,,429.447,431.331,0,1,1.363,,0,158,158,182,1,pseudoword,0,REAL,FALSA
,,,,,,,,,5e6d2835e0de62000922c8c2,001,2025-04-30_16h56.23.268,empathy_intonation_perc,2024.1.4,Win32,59.95203837,,,,,,,,,,,,,,70,ánimo,,,,,,431.331,432.747,1,0,0.889,,0,159,159,69,1,non_cognate,1,REAL,FALSA
,,,,,,,,,5e6d2835e0de62000922c8c2,001,2025-04-30_16h56.23.268,empathy_intonation_perc,2024.1.4,Win32,59.95203837,,,,,,,,,,,,,,54,tapón,,,,,,432.749,434.93,0,1,1.638,,0,160,160,53,1,non_cognate,1,REAL,FALSA
,,,,,,,,,5e6d2835e0de62000922c8c2,001,2025-04-30_16h56.23.268,empathy_intonation_perc,2024.1.4,Win32,59.95203837,,,,,,,,,,,,,,115,lidena,,,,,,434.931,437.28,1,0,1.809,,0,161,161,114,1,pseudoword,0,REAL,FALSA
,,,,,,,,,5e6d2835e0de62000922c8c2,001,2025-04-30_16h56.23.268,empathy_intonation_perc,2024.1.4,Win32,59.95203837,,,,,,,,,,,,,,3,disco,,,,,,437.28,438.714,1,0,0.908,,0,162,162,2,1,three_way_cognate,1,REAL,FALSA
,,,,,,,,,5e6d2835e0de62000922c8c2,001,2025-04-30_16h56.23.268,empathy_intonation_perc,2024.1.4,Win32,59.95203837,,,,,,,,,,,,,,84,aviso,,,,,,438.714,440.113,1,0,0.849,,0,163,163,83,1,non_cognate,1,REAL,FALSA
,,,,,,,,,5e6d2835e0de62000922c8c2,001,2025-04-30_16h56.23.268,empathy_intonation_perc,2024.1.4,Win32,59.95203837,,,,,,,,,,,,,,114,dibrea,,,,,,440.114,441.897,0,1,1.254,,0,164,164,113,1,pseudoword,0,REAL,FALSA
,,,,,,,,,5e6d2835e0de62000922c8c2,001,2025-04-30_16h56.23.268,empathy_intonation_perc,2024.1.4,Win32,59.95203837,,,,,,,,,,,,,,40,pelvis,,,,,,441.897,443.53,1,0,1.083,,0,165,165,39,1,two_way_cognate,1,REAL,FALSA
,,,,,,,,,5e6d2835e0de62000922c8c2,001,2025-04-30_16h56.23.268,empathy_intonation_perc,2024.1.4,Win32,59.95203837,,,,,,,,,,,,,,66,aleta,,,,,,443.53,447.346,1,0,3.297,,0,166,166,65,1,non_cognate,1,REAL,FALSA
,,,,,,,,,5e6d2835e0de62000922c8c2,001,2025-04-30_16h56.23.268,empathy_intonation_perc,2024.1.4,Win32,59.95203837,,,,,,,,,,,,,,82,brillo,,,,,,447.347,448.663,1,0,0.776,,0,167,167,81,1,non_cognate,1,REAL,FALSA
,,,,,,,,,5e6d2835e0de62000922c8c2,001,2025-04-30_16h56.23.268,empathy_intonation_perc,2024.1.4,Win32,59.95203837,,,,,,,,,,,,,,61,aduana,,,,,,448.663,450.596,0,1,1.401,,0,168,168,60,1,non_cognate,1,REAL,FALSA
,,,,,,,,,5e6d2835e0de62000922c8c2,001,2025-04-30_16h56.23.268,empathy_intonation_perc,2024.1.4,Win32,59.95203837,,,,,,,,,,,,,,166,anfia,,,,,,450.596,452.613,0,1,1.481,,0,169,169,165,1,pseudoword,0,REAL,FALSA
,,,,,,,,,5e6d2835e0de62000922c8c2,001,2025-04-30_16h56.23.268,empathy_intonation_perc,2024.1.4,Win32,59.95203837,,,,,,,,,,,,,,123,arane,,,,,,452.613,453.896,0,1,0.742,,0,170,170,122,1,pseudoword,0,REAL,FALSA
,,,,,,,,,5e6d2835e0de62000922c8c2,001,2025-04-30_16h56.23.268,empathy_intonation_perc,2024.1.4,Win32,59.95203837,,,,,,,,,,,,,,46,mortal,,,,,,453.896,455.113,1,0,0.68,,0,171,171,45,1,two_way_cognate,1,REAL,FALSA
,,,,,,,,,5e6d2835e0de62000922c8c2,001,2025-04-30_16h56.23.268,empathy_intonation_perc,2024.1.4,Win32,59.95203837,,,,,,,,,,,,,,9,portal,,,,,,455.113,456.795,1,0,1.143,,0,172,172,8,1,three_way_cognate,1,REAL,FALSA
,,,,,,,,,5e6d2835e0de62000922c8c2,001,2025-04-30_16h56.23.268,empathy_intonation_perc,2024.1.4,Win32,59.95203837,,,,,,,,,,,,,,90,venado,,,,,,456.795,459.312,0,1,1.99,,0,173,173,89,1,non_cognate,1,REAL,FALSA
,,,,,,,,,5e6d2835e0de62000922c8c2,001,2025-04-30_16h56.23.268,empathy_intonation_perc,2024.1.4,Win32,59.95203837,,,,,,,,,,,,,,181,gravés,,,,,,459.312,461.328,1,0,1.482,,0,174,174,180,1,pseudoword,0,REAL,FALSA
,,,,,,,,,5e6d2835e0de62000922c8c2,001,2025-04-30_16h56.23.268,empathy_intonation_perc,2024.1.4,Win32,59.95203837,,,,,,,,,,,,,,112,samón,,,,,,461.33,463.728,0,1,1.852,,0,175,175,111,1,pseudoword,0,REAL,FALSA
,,,,,,,,,5e6d2835e0de62000922c8c2,001,2025-04-30_16h56.23.268,empathy_intonation_perc,2024.1.4,Win32,59.95203837,,,,,,,,,,,,,,98,martir,,,,,,463.729,466.513,1,0,2.243,,0,176,176,97,1,pseudoword,0,REAL,FALSA
,,,,,,,,,5e6d2835e0de62000922c8c2,001,2025-04-30_16h56.23.268,empathy_intonation_perc,2024.1.4,Win32,59.95203837,,,,,,,,,,,,,,88,percha,,,,,,466.515,468.528,0,1,1.471,,0,177,177,87,1,non_cognate,1,REAL,FALSA
,,,,,,,,,5e6d2835e0de62000922c8c2,001,2025-04-30_16h56.23.268,empathy_intonation_perc,2024.1.4,Win32,59.95203837,,,,,,,,,,,,,,164,tecia,,,,,,468.529,470.678,0,1,1.61,,0,178,178,163,1,pseudoword,0,REAL,FALSA
,,,,,,,,,5e6d2835e0de62000922c8c2,001,2025-04-30_16h56.23.268,empathy_intonation_perc,2024.1.4,Win32,59.95203837,,,,,,,,,,,,,,186,rizate,,,,,,470.679,471.995,0,1,0.77,,0,179,179,185,1,pseudoword,0,REAL,FALSA
,,,,,,,,,5e6d2835e0de62000922c8c2,001,2025-04-30_16h56.23.268,empathy_intonation_perc,2024.1.4,Win32,59.95203837,,,,,,,,,,,,,,81,sacar,,,,,,471.995,473.261,1,0,0.733,,0,180,180,80,1,non_cognate,1,REAL,FALSA
,,,,,,,,,5e6d2835e0de62000922c8c2,001,2025-04-30_16h56.23.268,empathy_intonation_perc,2024.1.4,Win32,59.95203837,,,,,,,,,,,,,,108,jauda,,,,,,473.261,475.011,1,0,1.225,,0,181,181,107,1,pseudoword,0,REAL,FALSA
,,,,,,,,,5e6d2835e0de62000922c8c2,001,2025-04-30_16h56.23.268,empathy_intonation_perc,2024.1.4,Win32,59.95203837,,,,,,,,,,,,,,161,civas,,,,,,475.011,478.644,0,1,3.102,,0,182,182,160,1,pseudoword,0,REAL,FALSA
,,,,,,,,,5e6d2835e0de62000922c8c2,001,2025-04-30_16h56.23.268,empathy_intonation_perc,2024.1.4,Win32,59.95203837,,,,,,,,,,,,,,153,golla,,,,,,478.644,480.477,1,0,1.305,,0,183,183,152,1,pseudoword,0,REAL,FALSA
,,,,,,,,,5e6d2835e0de62000922c8c2,001,2025-04-30_16h56.23.268,empathy_intonation_perc,2024.1.4,Win32,59.95203837,,,,,,,,,,,,,,59,feo,,,,,,480.477,481.927,1,0,0.92,,0,184,184,58,1,non_cognate,1,REAL,FALSA
,,,,,,,,,5e6d2835e0de62000922c8c2,001,2025-04-30_16h56.23.268,empathy_intonation_perc,2024.1.4,Win32,59.95203837,,,,,,,,,,,,,,109,laras,,,,,,481.928,483.844,0,1,1.367,,0,185,185,108,1,pseudoword,0,REAL,FALSA
,,,,,,,,,5e6d2835e0de62000922c8c2,001,2025-04-30_16h56.23.268,empathy_intonation_perc,2024.1.4,Win32,59.95203837,,,,,,,,,,,,,,137,trugo,,,,,,483.845,485.278,1,0,0.884,,0,186,186,136,1,pseudoword,0,REAL,FALSA
,,,,,,,,,5e6d2835e0de62000922c8c2,001,2025-04-30_16h56.23.268,empathy_intonation_perc,2024.1.4,Win32,59.95203837,,,,,,,,,,,,,,157,seled,,,,,,485.278,486.893,0,1,1.082,,0,187,187,156,1,pseudoword,0,REAL,FALSA
,,,,,,,,,5e6d2835e0de62000922c8c2,001,2025-04-30_16h56.23.268,empathy_intonation_perc,2024.1.4,Win32,59.95203837,,,,,,,,,,,,,,156,ozoso,,,,,,486.894,488.843,0,1,1.423,,0,188,188,155,1,pseudoword,0,REAL,FALSA
,,,,,,,,,5e6d2835e0de62000922c8c2,001,2025-04-30_16h56.23.268,empathy_intonation_perc,2024.1.4,Win32,59.95203837,,,,,,,,,,,,,,146,gió,,,,,,488.844,490.627,1,0,1.252,,0,189,189,145,1,pseudoword,0,REAL,FALSA
,,,,,,,,,5e6d2835e0de62000922c8c2,001,2025-04-30_16h56.23.268,empathy_intonation_perc,2024.1.4,Win32,59.95203837,,,,,,,,,,,,,,2,tumor,,,,,,490.627,491.96,1,0,0.792,,0,190,190,1,1,three_way_cognate,1,REAL,FALSA
,,,,,,,,,5e6d2835e0de62000922c8c2,001,2025-04-30_16h56.23.268,empathy_intonation_perc,2024.1.4,Win32,59.95203837,,,,,,,,,,,,,,175,tradía,,,,,,491.961,493.744,1,0,1.239,,0,191,191,174,1,pseudoword,0,REAL,FALSA
