lextale_instructions.started,lextale_instructions.stopped,lextale_instructions_loop.thisRepN,lextale_instructions_loop.thisTrialN,lextale_instructions_loop.thisN,lextale_instructions_loop.thisIndex,lextale_instructions_loop.ran,instructions_text,continue_text,participant,session,date,expName,psychopyVersion,OS,frameRate,lextale_practice.started,lextale_practice.stopped,key_resp_lextale_practice.keys,key_resp_lextale_practice.corr,key_resp_lextale_practice.rt,key_resp_lextale_practice.duration,lextale_practice_feedback.started,lextale_practice_feedback.stopped,lextale_practice_trials.thisRepN,lextale_practice_trials.thisTrialN,lextale_practice_trials.thisN,lextale_practice_trials.thisIndex,lextale_practice_trials.ran,stim,word,correct_response,prac_button_real,prac_button_false,lextale_check.started,lextale_check.stopped,lextale_trial.started,lextale_trial.stopped,key_resp_lextale_trial.keys,key_resp_lextale_trial.corr,key_resp_lextale_trial.rt,key_resp_lextale_trial.duration,lextail_trials.thisRepN,lextail_trials.thisTrialN,lextail_trials.thisN,lextail_trials.thisIndex,lextail_trials.ran,type,correct_reponse,button_real,button_false
0.008,8.46,0,0,0,0,1,"Este es un test de vocabulario en español. 
  
  A continuación vas a ver 90 secuencias de letras que parecen 'españolas'.
  
  Solo algunas de ellas son palabras de verdad.",(presiona la barra espaciadora para continuar),5ea473b8f3be31098fce8760,001,2025-05-01_08h56.34.203,empathy_intonation_perc,2024.1.4,MacIntel,31.25,,,,,,,,,,,,,,,,,,,,,,,,,,,,,,,,,,,
8.46,13.426,0,1,1,1,1,"Por favor, señala las palabras que tú conoces (aquellas que estás convencido que son palabras españolas, incluso aunque no seas capaz de dar el significado preciso).",(presiona la barra espaciadora para continuar),5ea473b8f3be31098fce8760,001,2025-05-01_08h56.34.203,empathy_intonation_perc,2024.1.4,MacIntel,31.25,,,,,,,,,,,,,,,,,,,,,,,,,,,,,,,,,,,
13.427,16.059,0,2,2,2,1,Pero cuidado: los errores se penalizan. Por eso no tiene sentido tratar de incrementar tu puntuación marcando como reales palabras que nunca has visto.,(presiona la barra espaciadora para continuar),5ea473b8f3be31098fce8760,001,2025-05-01_08h56.34.203,empathy_intonation_perc,2024.1.4,MacIntel,31.25,,,,,,,,,,,,,,,,,,,,,,,,,,,,,,,,,,,
16.06,18.759,0,3,3,3,1,"Presiona la tecla 1 si piensas que es una palabra real y la tecla 
  0 si piensas que es una palabra falsa. 
  
  Vamos a practicar un poco...",(presiona la barra espaciadora para continuar),5ea473b8f3be31098fce8760,001,2025-05-01_08h56.34.203,empathy_intonation_perc,2024.1.4,MacIntel,31.25,,,,,,,,,,,,,,,,,,,,,,,,,,,,,,,,,,,
,,,,,,,,,5ea473b8f3be31098fce8760,001,2025-05-01_08h56.34.203,empathy_intonation_perc,2024.1.4,MacIntel,31.25,18.762,21.293,1,0,1.966,,21.293,22.293,0,0,0,0,1,0,depiste,0,REAL,FALSA,,,,,,,,,,,,,,,,,
,,,,,,,,,5ea473b8f3be31098fce8760,001,2025-05-01_08h56.34.203,empathy_intonation_perc,2024.1.4,MacIntel,31.25,22.293,24.426,1,1,1.598,,24.426,25.426,0,1,1,1,1,0,sí,1,REAL,FALSA,,,,,,,,,,,,,,,,,
,,,,,,,,,5ea473b8f3be31098fce8760,001,2025-05-01_08h56.34.203,empathy_intonation_perc,2024.1.4,MacIntel,31.25,25.426,27.226,0,1,1.233,,27.226,28.226,0,2,2,2,1,0,coné,0,REAL,FALSA,,,,,,,,,,,,,,,,,
,,,,,,,,,5ea473b8f3be31098fce8760,001,2025-05-01_08h56.34.203,empathy_intonation_perc,2024.1.4,MacIntel,31.25,28.226,31.393,0,1,2.597,,31.393,32.393,0,3,3,3,1,0,calpar,0,REAL,FALSA,,,,,,,,,,,,,,,,,
,,,,,,,,,5ea473b8f3be31098fce8760,001,2025-05-01_08h56.34.203,empathy_intonation_perc,2024.1.4,MacIntel,31.25,32.393,34.193,0,1,1.237,,34.193,35.193,0,4,4,4,1,0,joten,0,REAL,FALSA,,,,,,,,,,,,,,,,,
,,,,,,,,,5ea473b8f3be31098fce8760,001,2025-05-01_08h56.34.203,empathy_intonation_perc,2024.1.4,MacIntel,31.25,35.193,36.859,1,1,1.107,,36.859,37.859,0,5,5,5,1,0,sacapuntas,1,REAL,FALSA,,,,,,,,,,,,,,,,,
,,,,,,,,,5ea473b8f3be31098fce8760,001,2025-05-01_08h56.34.203,empathy_intonation_perc,2024.1.4,MacIntel,31.25,37.859,40.759,1,0,2.366,,40.759,41.759,0,6,6,6,1,0,priba,0,REAL,FALSA,,,,,,,,,,,,,,,,,
,,,,,,,,,5ea473b8f3be31098fce8760,001,2025-05-01_08h56.34.203,empathy_intonation_perc,2024.1.4,MacIntel,31.25,41.76,44.459,0,1,2.135,,44.459,45.459,0,7,7,7,1,0,pelasula,0,REAL,FALSA,,,,,,,,,,,,,,,,,
,,,,,,,,,5ea473b8f3be31098fce8760,001,2025-05-01_08h56.34.203,empathy_intonation_perc,2024.1.4,MacIntel,31.25,45.459,46.725,1,1,0.731,,46.726,47.725,0,8,8,8,1,0,bien,1,REAL,FALSA,,,,,,,,,,,,,,,,,
,,,,,,,,,5ea473b8f3be31098fce8760,001,2025-05-01_08h56.34.203,empathy_intonation_perc,2024.1.4,MacIntel,31.25,47.725,49.025,1,1,0.764,,49.025,50.029,0,9,9,9,1,0,casa,1,REAL,FALSA,,,,,,,,,,,,,,,,,
,,,,,,,,,5ea473b8f3be31098fce8760,001,2025-05-01_08h56.34.203,empathy_intonation_perc,2024.1.4,MacIntel,31.25,50.03,52.726,1,0,2.132,,52.726,53.725,0,10,10,10,1,0,lejo,0,REAL,FALSA,,,,,,,,,,,,,,,,,
,,,,,,,,,5ea473b8f3be31098fce8760,001,2025-05-01_08h56.34.203,empathy_intonation_perc,2024.1.4,MacIntel,31.25,53.725,55.659,0,1,1.405,,55.659,56.659,0,11,11,11,1,0,pretantas,0,REAL,FALSA,,,,,,,,,,,,,,,,,
,,,,,,,,,5ea473b8f3be31098fce8760,001,2025-05-01_08h56.34.203,empathy_intonation_perc,2024.1.4,MacIntel,31.25,,,,,,,,,,,,,,,,,,,56.66,58.826,,,,,,,,,,,,,,,
,,,,,,,,,5ea473b8f3be31098fce8760,001,2025-05-01_08h56.34.203,empathy_intonation_perc,2024.1.4,MacIntel,31.25,,,,,,,,,,,,,,25,vigor,,,,,,58.839,60.192,1,0,0.797,,0,0,0,24,1,two_way_cognate,1,REAL,FALSA
,,,,,,,,,5ea473b8f3be31098fce8760,001,2025-05-01_08h56.34.203,empathy_intonation_perc,2024.1.4,MacIntel,31.25,,,,,,,,,,,,,,180,pupica,,,,,,60.193,62.125,0,1,1.367,,0,1,1,179,1,pseudoword,0,REAL,FALSA
,,,,,,,,,5ea473b8f3be31098fce8760,001,2025-05-01_08h56.34.203,empathy_intonation_perc,2024.1.4,MacIntel,31.25,,,,,,,,,,,,,,153,golla,,,,,,62.126,63.891,0,1,1.201,,0,2,2,152,1,pseudoword,0,REAL,FALSA
,,,,,,,,,5ea473b8f3be31098fce8760,001,2025-05-01_08h56.34.203,empathy_intonation_perc,2024.1.4,MacIntel,31.25,,,,,,,,,,,,,,50,sierra,,,,,,63.892,65.225,1,0,0.802,,0,3,3,49,1,non_cognate,1,REAL,FALSA
,,,,,,,,,5ea473b8f3be31098fce8760,001,2025-05-01_08h56.34.203,empathy_intonation_perc,2024.1.4,MacIntel,31.25,,,,,,,,,,,,,,81,sacar,,,,,,65.225,66.692,1,0,0.937,,0,4,4,80,1,non_cognate,1,REAL,FALSA
,,,,,,,,,5ea473b8f3be31098fce8760,001,2025-05-01_08h56.34.203,empathy_intonation_perc,2024.1.4,MacIntel,31.25,,,,,,,,,,,,,,172,dogue,,,,,,66.692,68.159,0,1,0.943,,0,5,5,171,1,pseudoword,0,REAL,FALSA
,,,,,,,,,5ea473b8f3be31098fce8760,001,2025-05-01_08h56.34.203,empathy_intonation_perc,2024.1.4,MacIntel,31.25,,,,,,,,,,,,,,148,gino,,,,,,68.159,69.591,1,0,0.879,,0,6,6,147,1,pseudoword,0,REAL,FALSA
,,,,,,,,,5ea473b8f3be31098fce8760,001,2025-05-01_08h56.34.203,empathy_intonation_perc,2024.1.4,MacIntel,31.25,,,,,,,,,,,,,,42,rumor,,,,,,69.592,70.925,1,0,0.8,,0,7,7,41,1,two_way_cognate,1,REAL,FALSA
,,,,,,,,,5ea473b8f3be31098fce8760,001,2025-05-01_08h56.34.203,empathy_intonation_perc,2024.1.4,MacIntel,31.25,,,,,,,,,,,,,,147,alla,,,,,,70.925,72.359,1,0,0.898,,0,8,8,146,1,pseudoword,0,REAL,FALSA
,,,,,,,,,5ea473b8f3be31098fce8760,001,2025-05-01_08h56.34.203,empathy_intonation_perc,2024.1.4,MacIntel,31.25,,,,,,,,,,,,,,121,barbs,,,,,,72.359,73.992,0,1,1.065,,0,9,9,120,1,pseudoword,0,REAL,FALSA
,,,,,,,,,5ea473b8f3be31098fce8760,001,2025-05-01_08h56.34.203,empathy_intonation_perc,2024.1.4,MacIntel,31.25,,,,,,,,,,,,,,170,diabo,,,,,,73.992,76.358,0,1,1.843,,0,10,10,169,1,pseudoword,0,REAL,FALSA
,,,,,,,,,5ea473b8f3be31098fce8760,001,2025-05-01_08h56.34.203,empathy_intonation_perc,2024.1.4,MacIntel,31.25,,,,,,,,,,,,,,93,tapa,,,,,,76.358,77.692,1,0,0.801,,0,11,11,92,1,non_cognate,1,REAL,FALSA
,,,,,,,,,5ea473b8f3be31098fce8760,001,2025-05-01_08h56.34.203,empathy_intonation_perc,2024.1.4,MacIntel,31.25,,,,,,,,,,,,,,184,huenos,,,,,,77.692,79.458,1,0,1.196,,0,12,12,183,1,pseudoword,0,REAL,FALSA
,,,,,,,,,5ea473b8f3be31098fce8760,001,2025-05-01_08h56.34.203,empathy_intonation_perc,2024.1.4,MacIntel,31.25,,,,,,,,,,,,,,136,hueas,,,,,,79.459,81.992,0,1,2,,0,13,13,135,1,pseudoword,0,REAL,FALSA
,,,,,,,,,5ea473b8f3be31098fce8760,001,2025-05-01_08h56.34.203,empathy_intonation_perc,2024.1.4,MacIntel,31.25,,,,,,,,,,,,,,169,pitis,,,,,,81.993,84.625,0,1,2.078,,0,14,14,168,1,pseudoword,0,REAL,FALSA
,,,,,,,,,5ea473b8f3be31098fce8760,001,2025-05-01_08h56.34.203,empathy_intonation_perc,2024.1.4,MacIntel,31.25,,,,,,,,,,,,,,76,chocar,,,,,,84.625,87.692,1,0,2.534,,0,15,15,75,1,non_cognate,1,REAL,FALSA
,,,,,,,,,5ea473b8f3be31098fce8760,001,2025-05-01_08h56.34.203,empathy_intonation_perc,2024.1.4,MacIntel,31.25,,,,,,,,,,,,,,171,gotro,,,,,,87.692,89.058,0,1,0.811,,0,16,16,170,1,pseudoword,0,REAL,FALSA
,,,,,,,,,5ea473b8f3be31098fce8760,001,2025-05-01_08h56.34.203,empathy_intonation_perc,2024.1.4,MacIntel,31.25,,,,,,,,,,,,,,91,equipo,,,,,,89.058,90.492,1,0,0.905,,0,17,17,90,1,non_cognate,1,REAL,FALSA
,,,,,,,,,5ea473b8f3be31098fce8760,001,2025-05-01_08h56.34.203,empathy_intonation_perc,2024.1.4,MacIntel,31.25,,,,,,,,,,,,,,82,brillo,,,,,,90.492,93.092,0,1,2.071,,0,18,18,81,1,non_cognate,1,REAL,FALSA
,,,,,,,,,5ea473b8f3be31098fce8760,001,2025-05-01_08h56.34.203,empathy_intonation_perc,2024.1.4,MacIntel,31.25,,,,,,,,,,,,,,41,pasta,,,,,,93.092,94.559,1,0,0.906,,0,19,19,40,1,two_way_cognate,1,REAL,FALSA
,,,,,,,,,5ea473b8f3be31098fce8760,001,2025-05-01_08h56.34.203,empathy_intonation_perc,2024.1.4,MacIntel,31.25,,,,,,,,,,,,,,187,nomata,,,,,,94.559,96.325,0,1,1.211,,0,20,20,186,1,pseudoword,0,REAL,FALSA
,,,,,,,,,5ea473b8f3be31098fce8760,001,2025-05-01_08h56.34.203,empathy_intonation_perc,2024.1.4,MacIntel,31.25,,,,,,,,,,,,,,157,seled,,,,,,96.325,98.158,0,1,1.303,,0,21,21,156,1,pseudoword,0,REAL,FALSA
,,,,,,,,,5ea473b8f3be31098fce8760,001,2025-05-01_08h56.34.203,empathy_intonation_perc,2024.1.4,MacIntel,31.25,,,,,,,,,,,,,,128,pelí,,,,,,98.158,100.858,1,0,2.173,,0,22,22,127,1,pseudoword,0,REAL,FALSA
,,,,,,,,,5ea473b8f3be31098fce8760,001,2025-05-01_08h56.34.203,empathy_intonation_perc,2024.1.4,MacIntel,31.25,,,,,,,,,,,,,,141,virios,,,,,,100.858,102.158,1,0,0.765,,0,23,23,140,1,pseudoword,0,REAL,FALSA
,,,,,,,,,5ea473b8f3be31098fce8760,001,2025-05-01_08h56.34.203,empathy_intonation_perc,2024.1.4,MacIntel,31.25,,,,,,,,,,,,,,132,nocó,,,,,,102.158,103.991,0,1,1.299,,0,24,24,131,1,pseudoword,0,REAL,FALSA
,,,,,,,,,5ea473b8f3be31098fce8760,001,2025-05-01_08h56.34.203,empathy_intonation_perc,2024.1.4,MacIntel,31.25,,,,,,,,,,,,,,185,aljizo,,,,,,103.992,106.391,0,1,1.83,,0,25,25,184,1,pseudoword,0,REAL,FALSA
,,,,,,,,,5ea473b8f3be31098fce8760,001,2025-05-01_08h56.34.203,empathy_intonation_perc,2024.1.4,MacIntel,31.25,,,,,,,,,,,,,,94,forro,,,,,,106.392,108.125,1,0,1.164,,0,26,26,93,1,non_cognate,1,REAL,FALSA
,,,,,,,,,5ea473b8f3be31098fce8760,001,2025-05-01_08h56.34.203,empathy_intonation_perc,2024.1.4,MacIntel,31.25,,,,,,,,,,,,,,192,próces,,,,,,108.125,111.391,1,0,2.7,,0,27,27,191,1,pseudoword,0,REAL,FALSA
,,,,,,,,,5ea473b8f3be31098fce8760,001,2025-05-01_08h56.34.203,empathy_intonation_perc,2024.1.4,MacIntel,31.25,,,,,,,,,,,,,,104,estulo,,,,,,111.392,113.291,1,0,1.345,,0,28,28,103,1,pseudoword,0,REAL,FALSA
,,,,,,,,,5ea473b8f3be31098fce8760,001,2025-05-01_08h56.34.203,empathy_intonation_perc,2024.1.4,MacIntel,31.25,,,,,,,,,,,,,,69,tiza,,,,,,113.292,114.725,0,1,0.867,,0,29,29,68,1,non_cognate,1,REAL,FALSA
,,,,,,,,,5ea473b8f3be31098fce8760,001,2025-05-01_08h56.34.203,empathy_intonation_perc,2024.1.4,MacIntel,31.25,,,,,,,,,,,,,,101,losco,,,,,,114.725,116.491,0,1,1.201,,0,30,30,100,1,pseudoword,0,REAL,FALSA
,,,,,,,,,5ea473b8f3be31098fce8760,001,2025-05-01_08h56.34.203,empathy_intonation_perc,2024.1.4,MacIntel,31.25,,,,,,,,,,,,,,74,ala,,,,,,116.492,119.291,0,1,2.231,,0,31,31,73,1,non_cognate,1,REAL,FALSA
,,,,,,,,,5ea473b8f3be31098fce8760,001,2025-05-01_08h56.34.203,empathy_intonation_perc,2024.1.4,MacIntel,31.25,,,,,,,,,,,,,,177,entodo,,,,,,119.291,121.192,1,0,1.366,,0,32,32,176,1,pseudoword,0,REAL,FALSA
,,,,,,,,,5ea473b8f3be31098fce8760,001,2025-05-01_08h56.34.203,empathy_intonation_perc,2024.1.4,MacIntel,31.25,,,,,,,,,,,,,,114,dibrea,,,,,,121.193,122.992,0,1,1.242,,0,33,33,113,1,pseudoword,0,REAL,FALSA
,,,,,,,,,5ea473b8f3be31098fce8760,001,2025-05-01_08h56.34.203,empathy_intonation_perc,2024.1.4,MacIntel,31.25,,,,,,,,,,,,,,28,ardor,,,,,,122.992,124.724,0,1,1.17,,0,34,34,27,1,two_way_cognate,1,REAL,FALSA
,,,,,,,,,5ea473b8f3be31098fce8760,001,2025-05-01_08h56.34.203,empathy_intonation_perc,2024.1.4,MacIntel,31.25,,,,,,,,,,,,,,59,feo,,,,,,124.725,126.524,0,1,1.233,,0,35,35,58,1,non_cognate,1,REAL,FALSA
,,,,,,,,,5ea473b8f3be31098fce8760,001,2025-05-01_08h56.34.203,empathy_intonation_perc,2024.1.4,MacIntel,31.25,,,,,,,,,,,,,,107,plago,,,,,,126.524,127.891,1,0,0.839,,0,36,36,106,1,pseudoword,0,REAL,FALSA
,,,,,,,,,5ea473b8f3be31098fce8760,001,2025-05-01_08h56.34.203,empathy_intonation_perc,2024.1.4,MacIntel,31.25,,,,,,,,,,,,,,79,suelo,,,,,,127.892,130.024,1,0,1.577,,0,37,37,78,1,non_cognate,1,REAL,FALSA
,,,,,,,,,5ea473b8f3be31098fce8760,001,2025-05-01_08h56.34.203,empathy_intonation_perc,2024.1.4,MacIntel,31.25,,,,,,,,,,,,,,19,mafia,,,,,,130.024,131.358,1,0,0.808,,0,38,38,18,1,three_way_cognate,1,REAL,FALSA
,,,,,,,,,5ea473b8f3be31098fce8760,001,2025-05-01_08h56.34.203,empathy_intonation_perc,2024.1.4,MacIntel,31.25,,,,,,,,,,,,,,183,edioso,,,,,,131.358,135.591,0,1,3.702,,0,39,39,182,1,pseudoword,0,REAL,FALSA
,,,,,,,,,5ea473b8f3be31098fce8760,001,2025-05-01_08h56.34.203,empathy_intonation_perc,2024.1.4,MacIntel,31.25,,,,,,,,,,,,,,37,torso,,,,,,135.591,136.89,1,0,0.738,,0,40,40,36,1,two_way_cognate,1,REAL,FALSA
,,,,,,,,,5ea473b8f3be31098fce8760,001,2025-05-01_08h56.34.203,empathy_intonation_perc,2024.1.4,MacIntel,31.25,,,,,,,,,,,,,,46,mortal,,,,,,136.89,138.357,1,0,0.934,,0,41,41,45,1,two_way_cognate,1,REAL,FALSA
,,,,,,,,,5ea473b8f3be31098fce8760,001,2025-05-01_08h56.34.203,empathy_intonation_perc,2024.1.4,MacIntel,31.25,,,,,,,,,,,,,,174,pabea,,,,,,138.358,141.057,0,1,2.135,,0,42,42,173,1,pseudoword,0,REAL,FALSA
,,,,,,,,,5ea473b8f3be31098fce8760,001,2025-05-01_08h56.34.203,empathy_intonation_perc,2024.1.4,MacIntel,31.25,,,,,,,,,,,,,,119,esís,,,,,,141.057,142.857,0,1,1.272,,0,43,43,118,1,pseudoword,0,REAL,FALSA
,,,,,,,,,5ea473b8f3be31098fce8760,001,2025-05-01_08h56.34.203,empathy_intonation_perc,2024.1.4,MacIntel,31.25,,,,,,,,,,,,,,131,fuar,,,,,,142.858,145.458,0,1,2.069,,0,44,44,130,1,pseudoword,0,REAL,FALSA
,,,,,,,,,5ea473b8f3be31098fce8760,001,2025-05-01_08h56.34.203,empathy_intonation_perc,2024.1.4,MacIntel,31.25,,,,,,,,,,,,,,112,samón,,,,,,145.458,149.19,0,1,3.169,,0,45,45,111,1,pseudoword,0,REAL,FALSA
,,,,,,,,,5ea473b8f3be31098fce8760,001,2025-05-01_08h56.34.203,empathy_intonation_perc,2024.1.4,MacIntel,31.25,,,,,,,,,,,,,,98,martir,,,,,,149.191,150.424,1,0,0.706,,0,46,46,97,1,pseudoword,0,REAL,FALSA
,,,,,,,,,5ea473b8f3be31098fce8760,001,2025-05-01_08h56.34.203,empathy_intonation_perc,2024.1.4,MacIntel,31.25,,,,,,,,,,,,,,21,hotel,,,,,,150.424,151.69,1,0,0.746,,0,47,47,20,1,three_way_cognate,1,REAL,FALSA
,,,,,,,,,5ea473b8f3be31098fce8760,001,2025-05-01_08h56.34.203,empathy_intonation_perc,2024.1.4,MacIntel,31.25,,,,,,,,,,,,,,181,gravés,,,,,,151.691,154.024,1,0,1.764,,0,48,48,180,1,pseudoword,0,REAL,FALSA
,,,,,,,,,5ea473b8f3be31098fce8760,001,2025-05-01_08h56.34.203,empathy_intonation_perc,2024.1.4,MacIntel,31.25,,,,,,,,,,,,,,109,laras,,,,,,154.024,158.158,0,1,3.601,,0,49,49,108,1,pseudoword,0,REAL,FALSA
,,,,,,,,,5ea473b8f3be31098fce8760,001,2025-05-01_08h56.34.203,empathy_intonation_perc,2024.1.4,MacIntel,31.25,,,,,,,,,,,,,,26,enigma,,,,,,158.158,161.457,1,0,2.742,,0,50,50,25,1,two_way_cognate,1,REAL,FALSA
,,,,,,,,,5ea473b8f3be31098fce8760,001,2025-05-01_08h56.34.203,empathy_intonation_perc,2024.1.4,MacIntel,31.25,,,,,,,,,,,,,,90,venado,,,,,,161.458,164.191,0,1,2.173,,0,51,51,89,1,non_cognate,1,REAL,FALSA
,,,,,,,,,5ea473b8f3be31098fce8760,001,2025-05-01_08h56.34.203,empathy_intonation_perc,2024.1.4,MacIntel,31.25,,,,,,,,,,,,,,77,suave,,,,,,164.191,165.723,1,0,0.97,,0,52,52,76,1,non_cognate,1,REAL,FALSA
,,,,,,,,,5ea473b8f3be31098fce8760,001,2025-05-01_08h56.34.203,empathy_intonation_perc,2024.1.4,MacIntel,31.25,,,,,,,,,,,,,,33,collar,,,,,,165.724,167.79,1,0,1.533,,0,53,53,32,1,two_way_cognate,1,REAL,FALSA
,,,,,,,,,5ea473b8f3be31098fce8760,001,2025-05-01_08h56.34.203,empathy_intonation_perc,2024.1.4,MacIntel,31.25,,,,,,,,,,,,,,146,gió,,,,,,167.791,170.057,0,1,1.7,,0,54,54,145,1,pseudoword,0,REAL,FALSA
,,,,,,,,,5ea473b8f3be31098fce8760,001,2025-05-01_08h56.34.203,empathy_intonation_perc,2024.1.4,MacIntel,31.25,,,,,,,,,,,,,,117,morrá,,,,,,170.057,171.424,1,0,0.835,,0,55,55,116,1,pseudoword,0,REAL,FALSA
,,,,,,,,,5ea473b8f3be31098fce8760,001,2025-05-01_08h56.34.203,empathy_intonation_perc,2024.1.4,MacIntel,31.25,,,,,,,,,,,,,,125,ceme,,,,,,171.424,173.057,0,1,1.106,,0,56,56,124,1,pseudoword,0,REAL,FALSA
,,,,,,,,,5ea473b8f3be31098fce8760,001,2025-05-01_08h56.34.203,empathy_intonation_perc,2024.1.4,MacIntel,31.25,,,,,,,,,,,,,,145,rúo,,,,,,173.057,176.29,1,0,2.698,,0,57,57,144,1,pseudoword,0,REAL,FALSA
,,,,,,,,,5ea473b8f3be31098fce8760,001,2025-05-01_08h56.34.203,empathy_intonation_perc,2024.1.4,MacIntel,31.25,,,,,,,,,,,,,,113,nasce,,,,,,176.29,178.624,1,0,1.811,,0,58,58,112,1,pseudoword,0,REAL,FALSA
,,,,,,,,,5ea473b8f3be31098fce8760,001,2025-05-01_08h56.34.203,empathy_intonation_perc,2024.1.4,MacIntel,31.25,,,,,,,,,,,,,,178,inichó,,,,,,178.624,181.223,0,1,2.031,,0,59,59,177,1,pseudoword,0,REAL,FALSA
,,,,,,,,,5ea473b8f3be31098fce8760,001,2025-05-01_08h56.34.203,empathy_intonation_perc,2024.1.4,MacIntel,31.25,,,,,,,,,,,,,,20,trauma,,,,,,181.223,184.457,1,0,2.71,,0,60,60,19,1,three_way_cognate,1,REAL,FALSA
,,,,,,,,,5ea473b8f3be31098fce8760,001,2025-05-01_08h56.34.203,empathy_intonation_perc,2024.1.4,MacIntel,31.25,,,,,,,,,,,,,,71,torta,,,,,,184.457,186.557,1,0,1.567,,0,61,61,70,1,non_cognate,1,REAL,FALSA
,,,,,,,,,5ea473b8f3be31098fce8760,001,2025-05-01_08h56.34.203,empathy_intonation_perc,2024.1.4,MacIntel,31.25,,,,,,,,,,,,,,188,amplir,,,,,,186.557,188.423,1,0,1.331,,0,62,62,187,1,pseudoword,0,REAL,FALSA
,,,,,,,,,5ea473b8f3be31098fce8760,001,2025-05-01_08h56.34.203,empathy_intonation_perc,2024.1.4,MacIntel,31.25,,,,,,,,,,,,,,39,casual,,,,,,188.424,190.657,1,0,1.709,,0,63,63,38,1,two_way_cognate,1,REAL,FALSA
,,,,,,,,,5ea473b8f3be31098fce8760,001,2025-05-01_08h56.34.203,empathy_intonation_perc,2024.1.4,MacIntel,31.25,,,,,,,,,,,,,,129,vinzó,,,,,,190.657,194.79,1,0,3.565,,0,64,64,128,1,pseudoword,0,REAL,FALSA
,,,,,,,,,5ea473b8f3be31098fce8760,001,2025-05-01_08h56.34.203,empathy_intonation_perc,2024.1.4,MacIntel,31.25,,,,,,,,,,,,,,133,conso,,,,,,194.791,196.19,0,1,0.833,,0,65,65,132,1,pseudoword,0,REAL,FALSA
,,,,,,,,,5ea473b8f3be31098fce8760,001,2025-05-01_08h56.34.203,empathy_intonation_perc,2024.1.4,MacIntel,31.25,,,,,,,,,,,,,,66,aleta,,,,,,196.191,199.457,0,1,2.737,,0,66,66,65,1,non_cognate,1,REAL,FALSA
,,,,,,,,,5ea473b8f3be31098fce8760,001,2025-05-01_08h56.34.203,empathy_intonation_perc,2024.1.4,MacIntel,31.25,,,,,,,,,,,,,,105,peniz,,,,,,199.457,201.423,0,1,1.433,,0,67,67,104,1,pseudoword,0,REAL,FALSA
,,,,,,,,,5ea473b8f3be31098fce8760,001,2025-05-01_08h56.34.203,empathy_intonation_perc,2024.1.4,MacIntel,31.25,,,,,,,,,,,,,,140,chorde,,,,,,201.423,203.389,1,0,1.437,,0,68,68,139,1,pseudoword,0,REAL,FALSA
,,,,,,,,,5ea473b8f3be31098fce8760,001,2025-05-01_08h56.34.203,empathy_intonation_perc,2024.1.4,MacIntel,31.25,,,,,,,,,,,,,,11,golf,,,,,,203.39,207.29,1,0,3.366,,0,69,69,10,1,three_way_cognate,1,REAL,FALSA
,,,,,,,,,5ea473b8f3be31098fce8760,001,2025-05-01_08h56.34.203,empathy_intonation_perc,2024.1.4,MacIntel,31.25,,,,,,,,,,,,,,108,jauda,,,,,,207.29,209.557,0,1,1.733,,0,70,70,107,1,pseudoword,0,REAL,FALSA
,,,,,,,,,5ea473b8f3be31098fce8760,001,2025-05-01_08h56.34.203,empathy_intonation_perc,2024.1.4,MacIntel,31.25,,,,,,,,,,,,,,137,trugo,,,,,,209.557,215.357,0,1,5.232,,0,71,71,136,1,pseudoword,0,REAL,FALSA
,,,,,,,,,5ea473b8f3be31098fce8760,001,2025-05-01_08h56.34.203,empathy_intonation_perc,2024.1.4,MacIntel,31.25,,,,,,,,,,,,,,173,mibro,,,,,,215.357,216.856,0,1,0.933,,0,72,72,172,1,pseudoword,0,REAL,FALSA
,,,,,,,,,5ea473b8f3be31098fce8760,001,2025-05-01_08h56.34.203,empathy_intonation_perc,2024.1.4,MacIntel,31.25,,,,,,,,,,,,,,143,hurcos,,,,,,216.857,219.357,0,1,1.933,,0,73,73,142,1,pseudoword,0,REAL,FALSA
,,,,,,,,,5ea473b8f3be31098fce8760,001,2025-05-01_08h56.34.203,empathy_intonation_perc,2024.1.4,MacIntel,31.25,,,,,,,,,,,,,,56,pico,,,,,,219.357,220.723,1,0,0.8,,0,74,74,55,1,non_cognate,1,REAL,FALSA
,,,,,,,,,5ea473b8f3be31098fce8760,001,2025-05-01_08h56.34.203,empathy_intonation_perc,2024.1.4,MacIntel,31.25,,,,,,,,,,,,,,164,tecia,,,,,,220.723,222.656,0,1,1.412,,0,75,75,163,1,pseudoword,0,REAL,FALSA
,,,,,,,,,5ea473b8f3be31098fce8760,001,2025-05-01_08h56.34.203,empathy_intonation_perc,2024.1.4,MacIntel,31.25,,,,,,,,,,,,,,12,dogma,,,,,,222.656,223.924,1,0,0.734,,0,76,76,11,1,three_way_cognate,1,REAL,FALSA
,,,,,,,,,5ea473b8f3be31098fce8760,001,2025-05-01_08h56.34.203,empathy_intonation_perc,2024.1.4,MacIntel,31.25,,,,,,,,,,,,,,36,viable,,,,,,223.924,225.756,1,0,1.264,,0,77,77,35,1,two_way_cognate,1,REAL,FALSA
,,,,,,,,,5ea473b8f3be31098fce8760,001,2025-05-01_08h56.34.203,empathy_intonation_perc,2024.1.4,MacIntel,31.25,,,,,,,,,,,,,,47,color,,,,,,225.756,229.823,1,0,3.535,,0,78,78,46,1,two_way_cognate,1,REAL,FALSA
,,,,,,,,,5ea473b8f3be31098fce8760,001,2025-05-01_08h56.34.203,empathy_intonation_perc,2024.1.4,MacIntel,31.25,,,,,,,,,,,,,,186,rizate,,,,,,229.823,232.423,0,1,2.033,,0,79,79,185,1,pseudoword,0,REAL,FALSA
,,,,,,,,,5ea473b8f3be31098fce8760,001,2025-05-01_08h56.34.203,empathy_intonation_perc,2024.1.4,MacIntel,31.25,,,,,,,,,,,,,,163,llzan,,,,,,232.423,234.423,0,1,1.465,,0,80,80,162,1,pseudoword,0,REAL,FALSA
,,,,,,,,,5ea473b8f3be31098fce8760,001,2025-05-01_08h56.34.203,empathy_intonation_perc,2024.1.4,MacIntel,31.25,,,,,,,,,,,,,,162,cengo,,,,,,234.423,235.923,1,0,0.972,,0,81,81,161,1,pseudoword,0,REAL,FALSA
,,,,,,,,,5ea473b8f3be31098fce8760,001,2025-05-01_08h56.34.203,empathy_intonation_perc,2024.1.4,MacIntel,31.25,,,,,,,,,,,,,,176,gripar,,,,,,235.923,237.422,0,1,0.966,,0,82,82,175,1,pseudoword,0,REAL,FALSA
,,,,,,,,,5ea473b8f3be31098fce8760,001,2025-05-01_08h56.34.203,empathy_intonation_perc,2024.1.4,MacIntel,31.25,,,,,,,,,,,,,,142,parre,,,,,,237.423,239.556,0,1,1.599,,0,83,83,141,1,pseudoword,0,REAL,FALSA
,,,,,,,,,5ea473b8f3be31098fce8760,001,2025-05-01_08h56.34.203,empathy_intonation_perc,2024.1.4,MacIntel,31.25,,,,,,,,,,,,,,102,coyo,,,,,,239.556,242.589,0,1,2.506,,0,84,84,101,1,pseudoword,0,REAL,FALSA
,,,,,,,,,5ea473b8f3be31098fce8760,001,2025-05-01_08h56.34.203,empathy_intonation_perc,2024.1.4,MacIntel,31.25,,,,,,,,,,,,,,144,diroco,,,,,,242.589,244.623,0,1,1.505,,0,85,85,143,1,pseudoword,0,REAL,FALSA
,,,,,,,,,5ea473b8f3be31098fce8760,001,2025-05-01_08h56.34.203,empathy_intonation_perc,2024.1.4,MacIntel,31.25,,,,,,,,,,,,,,120,mauja,,,,,,244.623,247.556,0,1,2.398,,0,86,86,119,1,pseudoword,0,REAL,FALSA
,,,,,,,,,5ea473b8f3be31098fce8760,001,2025-05-01_08h56.34.203,empathy_intonation_perc,2024.1.4,MacIntel,31.25,,,,,,,,,,,,,,2,tumor,,,,,,247.556,248.756,1,0,0.666,,0,87,87,1,1,three_way_cognate,1,REAL,FALSA
,,,,,,,,,5ea473b8f3be31098fce8760,001,2025-05-01_08h56.34.203,empathy_intonation_perc,2024.1.4,MacIntel,31.25,,,,,,,,,,,,,,175,tradía,,,,,,248.756,250.389,1,0,1.111,,0,88,88,174,1,pseudoword,0,REAL,FALSA
,,,,,,,,,5ea473b8f3be31098fce8760,001,2025-05-01_08h56.34.203,empathy_intonation_perc,2024.1.4,MacIntel,31.25,,,,,,,,,,,,,,126,tobre,,,,,,250.39,252.156,1,0,1.198,,0,89,89,125,1,pseudoword,0,REAL,FALSA
,,,,,,,,,5ea473b8f3be31098fce8760,001,2025-05-01_08h56.34.203,empathy_intonation_perc,2024.1.4,MacIntel,31.25,,,,,,,,,,,,,,7,albino,,,,,,252.156,253.556,1,0,0.866,,0,90,90,6,1,three_way_cognate,1,REAL,FALSA
,,,,,,,,,5ea473b8f3be31098fce8760,001,2025-05-01_08h56.34.203,empathy_intonation_perc,2024.1.4,MacIntel,31.25,,,,,,,,,,,,,,166,anfia,,,,,,253.557,255.623,0,1,1.501,,0,91,91,165,1,pseudoword,0,REAL,FALSA
,,,,,,,,,5ea473b8f3be31098fce8760,001,2025-05-01_08h56.34.203,empathy_intonation_perc,2024.1.4,MacIntel,31.25,,,,,,,,,,,,,,72,rostro,,,,,,255.623,257.89,0,1,1.699,,0,92,92,71,1,non_cognate,1,REAL,FALSA
,,,,,,,,,5ea473b8f3be31098fce8760,001,2025-05-01_08h56.34.203,empathy_intonation_perc,2024.1.4,MacIntel,31.25,,,,,,,,,,,,,,80,cuenco,,,,,,257.89,259.455,1,0,1,,0,93,93,79,1,non_cognate,1,REAL,FALSA
,,,,,,,,,5ea473b8f3be31098fce8760,001,2025-05-01_08h56.34.203,empathy_intonation_perc,2024.1.4,MacIntel,31.25,,,,,,,,,,,,,,40,pelvis,,,,,,259.456,261.223,1,0,1.234,,0,94,94,39,1,two_way_cognate,1,REAL,FALSA
,,,,,,,,,5ea473b8f3be31098fce8760,001,2025-05-01_08h56.34.203,empathy_intonation_perc,2024.1.4,MacIntel,31.25,,,,,,,,,,,,,,85,enorme,,,,,,261.223,262.789,1,0,1.001,,0,95,95,84,1,non_cognate,1,REAL,FALSA
,,,,,,,,,5ea473b8f3be31098fce8760,001,2025-05-01_08h56.34.203,empathy_intonation_perc,2024.1.4,MacIntel,31.25,,,,,,,,,,,,,,122,boñaz,,,,,,262.789,266.055,0,1,2.732,,0,96,96,121,1,pseudoword,0,REAL,FALSA
,,,,,,,,,5ea473b8f3be31098fce8760,001,2025-05-01_08h56.34.203,empathy_intonation_perc,2024.1.4,MacIntel,31.25,,,,,,,,,,,,,,156,ozoso,,,,,,266.056,267.556,0,1,0.963,,0,97,97,155,1,pseudoword,0,REAL,FALSA
,,,,,,,,,5ea473b8f3be31098fce8760,001,2025-05-01_08h56.34.203,empathy_intonation_perc,2024.1.4,MacIntel,31.25,,,,,,,,,,,,,,62,pegar,,,,,,267.556,268.788,1,0,0.671,,0,98,98,61,1,non_cognate,1,REAL,FALSA
,,,,,,,,,5ea473b8f3be31098fce8760,001,2025-05-01_08h56.34.203,empathy_intonation_perc,2024.1.4,MacIntel,31.25,,,,,,,,,,,,,,118,bará,,,,,,268.789,270.689,0,1,1.366,,0,99,99,117,1,pseudoword,0,REAL,FALSA
,,,,,,,,,5ea473b8f3be31098fce8760,001,2025-05-01_08h56.34.203,empathy_intonation_perc,2024.1.4,MacIntel,31.25,,,,,,,,,,,,,,24,retina,,,,,,270.689,271.956,1,0,0.736,,0,100,100,23,1,three_way_cognate,1,REAL,FALSA
,,,,,,,,,5ea473b8f3be31098fce8760,001,2025-05-01_08h56.34.203,empathy_intonation_perc,2024.1.4,MacIntel,31.25,,,,,,,,,,,,,,32,animal,,,,,,271.956,273.322,1,0,0.807,,0,101,101,31,1,two_way_cognate,1,REAL,FALSA
,,,,,,,,,5ea473b8f3be31098fce8760,001,2025-05-01_08h56.34.203,empathy_intonation_perc,2024.1.4,MacIntel,31.25,,,,,,,,,,,,,,87,muleta,,,,,,273.323,275.322,1,0,1.431,,0,102,102,86,1,non_cognate,1,REAL,FALSA
,,,,,,,,,5ea473b8f3be31098fce8760,001,2025-05-01_08h56.34.203,empathy_intonation_perc,2024.1.4,MacIntel,31.25,,,,,,,,,,,,,,88,percha,,,,,,275.323,276.955,1,0,1.076,,0,103,103,87,1,non_cognate,1,REAL,FALSA
,,,,,,,,,5ea473b8f3be31098fce8760,001,2025-05-01_08h56.34.203,empathy_intonation_perc,2024.1.4,MacIntel,31.25,,,,,,,,,,,,,,165,chote,,,,,,276.956,278.922,0,1,1.404,,0,104,104,164,1,pseudoword,0,REAL,FALSA
,,,,,,,,,5ea473b8f3be31098fce8760,001,2025-05-01_08h56.34.203,empathy_intonation_perc,2024.1.4,MacIntel,31.25,,,,,,,,,,,,,,44,editor,,,,,,278.922,280.422,1,0,0.964,,0,105,105,43,1,two_way_cognate,1,REAL,FALSA
,,,,,,,,,5ea473b8f3be31098fce8760,001,2025-05-01_08h56.34.203,empathy_intonation_perc,2024.1.4,MacIntel,31.25,,,,,,,,,,,,,,68,puñal,,,,,,280.423,282.022,1,0,1.033,,0,106,106,67,1,non_cognate,1,REAL,FALSA
,,,,,,,,,5ea473b8f3be31098fce8760,001,2025-05-01_08h56.34.203,empathy_intonation_perc,2024.1.4,MacIntel,31.25,,,,,,,,,,,,,,3,disco,,,,,,282.022,283.389,1,0,0.834,,0,107,107,2,1,three_way_cognate,1,REAL,FALSA
,,,,,,,,,5ea473b8f3be31098fce8760,001,2025-05-01_08h56.34.203,empathy_intonation_perc,2024.1.4,MacIntel,31.25,,,,,,,,,,,,,,16,chat,,,,,,283.389,286.589,0,1,2.633,,0,108,108,15,1,three_way_cognate,1,REAL,FALSA
,,,,,,,,,5ea473b8f3be31098fce8760,001,2025-05-01_08h56.34.203,empathy_intonation_perc,2024.1.4,MacIntel,31.25,,,,,,,,,,,,,,34,actor,,,,,,286.589,287.922,1,0,0.8,,0,109,109,33,1,two_way_cognate,1,REAL,FALSA
,,,,,,,,,5ea473b8f3be31098fce8760,001,2025-05-01_08h56.34.203,empathy_intonation_perc,2024.1.4,MacIntel,31.25,,,,,,,,,,,,,,110,densó,,,,,,287.923,290.322,1,0,1.833,,0,110,110,109,1,pseudoword,0,REAL,FALSA
,,,,,,,,,5ea473b8f3be31098fce8760,001,2025-05-01_08h56.34.203,empathy_intonation_perc,2024.1.4,MacIntel,31.25,,,,,,,,,,,,,,9,portal,,,,,,290.322,292.022,1,0,1.166,,0,111,111,8,1,three_way_cognate,1,REAL,FALSA
,,,,,,,,,5ea473b8f3be31098fce8760,001,2025-05-01_08h56.34.203,empathy_intonation_perc,2024.1.4,MacIntel,31.25,,,,,,,,,,,,,,61,aduana,,,,,,292.022,293.789,0,1,1.208,,0,112,112,60,1,non_cognate,1,REAL,FALSA
,,,,,,,,,5ea473b8f3be31098fce8760,001,2025-05-01_08h56.34.203,empathy_intonation_perc,2024.1.4,MacIntel,31.25,,,,,,,,,,,,,,67,llamar,,,,,,293.789,295.388,1,0,1.066,,0,113,113,66,1,non_cognate,1,REAL,FALSA
,,,,,,,,,5ea473b8f3be31098fce8760,001,2025-05-01_08h56.34.203,empathy_intonation_perc,2024.1.4,MacIntel,31.25,,,,,,,,,,,,,,168,cobén,,,,,,295.389,296.822,0,1,0.913,,0,114,114,167,1,pseudoword,0,REAL,FALSA
,,,,,,,,,5ea473b8f3be31098fce8760,001,2025-05-01_08h56.34.203,empathy_intonation_perc,2024.1.4,MacIntel,31.25,,,,,,,,,,,,,,58,colcha,,,,,,296.822,299.622,1,0,2.276,,0,115,115,57,1,non_cognate,1,REAL,FALSA
,,,,,,,,,5ea473b8f3be31098fce8760,001,2025-05-01_08h56.34.203,empathy_intonation_perc,2024.1.4,MacIntel,31.25,,,,,,,,,,,,,,97,nocita,,,,,,299.622,301.389,1,0,1.234,,0,116,116,96,1,pseudoword,0,REAL,FALSA
,,,,,,,,,5ea473b8f3be31098fce8760,001,2025-05-01_08h56.34.203,empathy_intonation_perc,2024.1.4,MacIntel,31.25,,,,,,,,,,,,,,13,plan,,,,,,301.389,302.655,1,0,0.733,,0,117,117,12,1,three_way_cognate,1,REAL,FALSA
,,,,,,,,,5ea473b8f3be31098fce8760,001,2025-05-01_08h56.34.203,empathy_intonation_perc,2024.1.4,MacIntel,31.25,,,,,,,,,,,,,,51,listo,,,,,,302.656,304.355,1,0,1.132,,0,118,118,50,1,non_cognate,1,REAL,FALSA
,,,,,,,,,5ea473b8f3be31098fce8760,001,2025-05-01_08h56.34.203,empathy_intonation_perc,2024.1.4,MacIntel,31.25,,,,,,,,,,,,,,149,emén,,,,,,304.355,305.889,0,1,1,,0,119,119,148,1,pseudoword,0,REAL,FALSA
,,,,,,,,,5ea473b8f3be31098fce8760,001,2025-05-01_08h56.34.203,empathy_intonation_perc,2024.1.4,MacIntel,31.25,,,,,,,,,,,,,,22,mango,,,,,,305.889,307.189,1,0,0.734,,0,120,120,21,1,three_way_cognate,1,REAL,FALSA
,,,,,,,,,5ea473b8f3be31098fce8760,001,2025-05-01_08h56.34.203,empathy_intonation_perc,2024.1.4,MacIntel,31.25,,,,,,,,,,,,,,124,lobe,,,,,,307.189,308.622,1,0,0.908,,0,121,121,123,1,pseudoword,0,REAL,FALSA
,,,,,,,,,5ea473b8f3be31098fce8760,001,2025-05-01_08h56.34.203,empathy_intonation_perc,2024.1.4,MacIntel,31.25,,,,,,,,,,,,,,5,extra,,,,,,308.622,310.022,1,0,0.868,,0,122,122,4,1,three_way_cognate,1,REAL,FALSA
,,,,,,,,,5ea473b8f3be31098fce8760,001,2025-05-01_08h56.34.203,empathy_intonation_perc,2024.1.4,MacIntel,31.25,,,,,,,,,,,,,,49,teñir,,,,,,310.022,311.389,1,0,0.844,,0,123,123,48,1,non_cognate,1,REAL,FALSA
,,,,,,,,,5ea473b8f3be31098fce8760,001,2025-05-01_08h56.34.203,empathy_intonation_perc,2024.1.4,MacIntel,31.25,,,,,,,,,,,,,,106,diebro,,,,,,311.39,316.188,0,1,4.239,,0,124,124,105,1,pseudoword,0,REAL,FALSA
,,,,,,,,,5ea473b8f3be31098fce8760,001,2025-05-01_08h56.34.203,empathy_intonation_perc,2024.1.4,MacIntel,31.25,,,,,,,,,,,,,,155,kugis,,,,,,316.189,317.855,0,1,1.11,,0,125,125,154,1,pseudoword,0,REAL,FALSA
,,,,,,,,,5ea473b8f3be31098fce8760,001,2025-05-01_08h56.34.203,empathy_intonation_perc,2024.1.4,MacIntel,31.25,,,,,,,,,,,,,,31,civil,,,,,,317.855,319.189,1,0,0.811,,0,126,126,30,1,two_way_cognate,1,REAL,FALSA
,,,,,,,,,5ea473b8f3be31098fce8760,001,2025-05-01_08h56.34.203,empathy_intonation_perc,2024.1.4,MacIntel,31.25,,,,,,,,,,,,,,123,arane,,,,,,319.189,322.021,0,1,2.277,,0,127,127,122,1,pseudoword,0,REAL,FALSA
,,,,,,,,,5ea473b8f3be31098fce8760,001,2025-05-01_08h56.34.203,empathy_intonation_perc,2024.1.4,MacIntel,31.25,,,,,,,,,,,,,,151,prías,,,,,,322.022,323.822,1,0,1.245,,0,128,128,150,1,pseudoword,0,REAL,FALSA
,,,,,,,,,5ea473b8f3be31098fce8760,001,2025-05-01_08h56.34.203,empathy_intonation_perc,2024.1.4,MacIntel,31.25,,,,,,,,,,,,,,111,monue,,,,,,323.822,326.588,0,1,2.244,,0,129,129,110,1,pseudoword,0,REAL,FALSA
,,,,,,,,,5ea473b8f3be31098fce8760,001,2025-05-01_08h56.34.203,empathy_intonation_perc,2024.1.4,MacIntel,31.25,,,,,,,,,,,,,,160,fomeó,,,,,,326.588,330.088,1,0,2.966,,0,130,130,159,1,pseudoword,0,REAL,FALSA
,,,,,,,,,5ea473b8f3be31098fce8760,001,2025-05-01_08h56.34.203,empathy_intonation_perc,2024.1.4,MacIntel,31.25,,,,,,,,,,,,,,8,kilo,,,,,,330.088,331.488,1,0,0.877,,0,131,131,7,1,three_way_cognate,1,REAL,FALSA
,,,,,,,,,5ea473b8f3be31098fce8760,001,2025-05-01_08h56.34.203,empathy_intonation_perc,2024.1.4,MacIntel,31.25,,,,,,,,,,,,,,95,listo,,,,,,331.488,332.721,1,0,0.698,,0,132,132,94,1,non_cognate,1,REAL,FALSA
,,,,,,,,,5ea473b8f3be31098fce8760,001,2025-05-01_08h56.34.203,empathy_intonation_perc,2024.1.4,MacIntel,31.25,,,,,,,,,,,,,,154,harvé,,,,,,332.722,334.722,0,1,1.433,,0,133,133,153,1,pseudoword,0,REAL,FALSA
,,,,,,,,,5ea473b8f3be31098fce8760,001,2025-05-01_08h56.34.203,empathy_intonation_perc,2024.1.4,MacIntel,31.25,,,,,,,,,,,,,,53,punta,,,,,,334.722,335.922,1,0,0.667,,0,134,134,52,1,non_cognate,1,REAL,FALSA
,,,,,,,,,5ea473b8f3be31098fce8760,001,2025-05-01_08h56.34.203,empathy_intonation_perc,2024.1.4,MacIntel,31.25,,,,,,,,,,,,,,190,asumie,,,,,,335.922,338.322,0,1,1.832,,0,135,135,189,1,pseudoword,0,REAL,FALSA
,,,,,,,,,5ea473b8f3be31098fce8760,001,2025-05-01_08h56.34.203,empathy_intonation_perc,2024.1.4,MacIntel,31.25,,,,,,,,,,,,,,75,patada,,,,,,338.323,343.488,0,1,4.6,,0,136,136,74,1,non_cognate,1,REAL,FALSA
,,,,,,,,,5ea473b8f3be31098fce8760,001,2025-05-01_08h56.34.203,empathy_intonation_perc,2024.1.4,MacIntel,31.25,,,,,,,,,,,,,,23,plural,,,,,,343.488,344.821,1,0,0.771,,0,137,137,22,1,three_way_cognate,1,REAL,FALSA
,,,,,,,,,5ea473b8f3be31098fce8760,001,2025-05-01_08h56.34.203,empathy_intonation_perc,2024.1.4,MacIntel,31.25,,,,,,,,,,,,,,60,siglo,,,,,,344.821,346.922,0,1,1.568,,0,138,138,59,1,non_cognate,1,REAL,FALSA
,,,,,,,,,5ea473b8f3be31098fce8760,001,2025-05-01_08h56.34.203,empathy_intonation_perc,2024.1.4,MacIntel,31.25,,,,,,,,,,,,,,73,llevar,,,,,,346.922,348.288,1,0,0.799,,0,139,139,72,1,non_cognate,1,REAL,FALSA
,,,,,,,,,5ea473b8f3be31098fce8760,001,2025-05-01_08h56.34.203,empathy_intonation_perc,2024.1.4,MacIntel,31.25,,,,,,,,,,,,,,78,rendir,,,,,,348.288,349.621,1,0,0.797,,0,140,140,77,1,non_cognate,1,REAL,FALSA
,,,,,,,,,5ea473b8f3be31098fce8760,001,2025-05-01_08h56.34.203,empathy_intonation_perc,2024.1.4,MacIntel,31.25,,,,,,,,,,,,,,134,molor,,,,,,349.621,351.121,0,1,0.966,,0,141,141,133,1,pseudoword,0,REAL,FALSA
,,,,,,,,,5ea473b8f3be31098fce8760,001,2025-05-01_08h56.34.203,empathy_intonation_perc,2024.1.4,MacIntel,31.25,,,,,,,,,,,,,,27,piano,,,,,,351.121,352.455,1,0,0.798,,0,142,142,26,1,two_way_cognate,1,REAL,FALSA
,,,,,,,,,5ea473b8f3be31098fce8760,001,2025-05-01_08h56.34.203,empathy_intonation_perc,2024.1.4,MacIntel,31.25,,,,,,,,,,,,,,1,moral,,,,,,352.455,353.821,1,0,0.798,,0,143,143,0,1,three_way_cognate,1,REAL,FALSA
,,,,,,,,,5ea473b8f3be31098fce8760,001,2025-05-01_08h56.34.203,empathy_intonation_perc,2024.1.4,MacIntel,31.25,,,,,,,,,,,,,,54,tapón,,,,,,353.821,355.921,1,0,1.58,,0,144,144,53,1,non_cognate,1,REAL,FALSA
,,,,,,,,,5ea473b8f3be31098fce8760,001,2025-05-01_08h56.34.203,empathy_intonation_perc,2024.1.4,MacIntel,31.25,,,,,,,,,,,,,,57,regalo,,,,,,355.922,358.188,1,0,1.699,,0,145,145,56,1,non_cognate,1,REAL,FALSA
,,,,,,,,,5ea473b8f3be31098fce8760,001,2025-05-01_08h56.34.203,empathy_intonation_perc,2024.1.4,MacIntel,31.25,,,,,,,,,,,,,,14,aura,,,,,,358.188,359.755,1,0,1.036,,0,146,146,13,1,three_way_cognate,1,REAL,FALSA
,,,,,,,,,5ea473b8f3be31098fce8760,001,2025-05-01_08h56.34.203,empathy_intonation_perc,2024.1.4,MacIntel,31.25,,,,,,,,,,,,,,52,blando,,,,,,359.755,361.921,1,0,1.6,,0,147,147,51,1,non_cognate,1,REAL,FALSA
,,,,,,,,,5ea473b8f3be31098fce8760,001,2025-05-01_08h56.34.203,empathy_intonation_perc,2024.1.4,MacIntel,31.25,,,,,,,,,,,,,,10,drama,,,,,,361.921,363.188,1,0,0.74,,0,148,148,9,1,three_way_cognate,1,REAL,FALSA
,,,,,,,,,5ea473b8f3be31098fce8760,001,2025-05-01_08h56.34.203,empathy_intonation_perc,2024.1.4,MacIntel,31.25,,,,,,,,,,,,,,64,rizado,,,,,,363.188,365.054,1,0,1.338,,0,149,149,63,1,non_cognate,1,REAL,FALSA
,,,,,,,,,5ea473b8f3be31098fce8760,001,2025-05-01_08h56.34.203,empathy_intonation_perc,2024.1.4,MacIntel,31.25,,,,,,,,,,,,,,45,total,,,,,,365.054,366.287,1,0,0.699,,0,150,150,44,1,two_way_cognate,1,REAL,FALSA
,,,,,,,,,5ea473b8f3be31098fce8760,001,2025-05-01_08h56.34.203,empathy_intonation_perc,2024.1.4,MacIntel,31.25,,,,,,,,,,,,,,179,suelet,,,,,,366.288,367.687,0,1,0.833,,0,151,151,178,1,pseudoword,0,REAL,FALSA
,,,,,,,,,5ea473b8f3be31098fce8760,001,2025-05-01_08h56.34.203,empathy_intonation_perc,2024.1.4,MacIntel,31.25,,,,,,,,,,,,,,84,aviso,,,,,,367.687,368.988,1,0,0.765,,0,152,152,83,1,non_cognate,1,REAL,FALSA
,,,,,,,,,5ea473b8f3be31098fce8760,001,2025-05-01_08h56.34.203,empathy_intonation_perc,2024.1.4,MacIntel,31.25,,,,,,,,,,,,,,70,ánimo,,,,,,368.989,371.188,1,0,1.63,,0,153,153,69,1,non_cognate,1,REAL,FALSA
,,,,,,,,,5ea473b8f3be31098fce8760,001,2025-05-01_08h56.34.203,empathy_intonation_perc,2024.1.4,MacIntel,31.25,,,,,,,,,,,,,,18,altar,,,,,,371.188,372.588,1,0,0.831,,0,154,154,17,1,three_way_cognate,1,REAL,FALSA
,,,,,,,,,5ea473b8f3be31098fce8760,001,2025-05-01_08h56.34.203,empathy_intonation_perc,2024.1.4,MacIntel,31.25,,,,,,,,,,,,,,92,flecha,,,,,,372.588,374.388,0,1,1.268,,0,155,155,91,1,non_cognate,1,REAL,FALSA
,,,,,,,,,5ea473b8f3be31098fce8760,001,2025-05-01_08h56.34.203,empathy_intonation_perc,2024.1.4,MacIntel,31.25,,,,,,,,,,,,,,115,lidena,,,,,,374.388,376.054,1,0,1.103,,0,156,156,114,1,pseudoword,0,REAL,FALSA
,,,,,,,,,5ea473b8f3be31098fce8760,001,2025-05-01_08h56.34.203,empathy_intonation_perc,2024.1.4,MacIntel,31.25,,,,,,,,,,,,,,138,tator,,,,,,376.054,378.154,0,1,1.567,,0,157,157,137,1,pseudoword,0,REAL,FALSA
,,,,,,,,,5ea473b8f3be31098fce8760,001,2025-05-01_08h56.34.203,empathy_intonation_perc,2024.1.4,MacIntel,31.25,,,,,,,,,,,,,,86,cuenco,,,,,,378.155,381.52,0,1,2.8,,0,158,158,85,1,non_cognate,1,REAL,FALSA
,,,,,,,,,5ea473b8f3be31098fce8760,001,2025-05-01_08h56.34.203,empathy_intonation_perc,2024.1.4,MacIntel,31.25,,,,,,,,,,,,,,17,clan,,,,,,381.521,382.855,1,0,0.766,,0,159,159,16,1,three_way_cognate,1,REAL,FALSA
,,,,,,,,,5ea473b8f3be31098fce8760,001,2025-05-01_08h56.34.203,empathy_intonation_perc,2024.1.4,MacIntel,31.25,,,,,,,,,,,,,,30,fiscal,,,,,,382.855,384.287,1,0,0.878,,0,160,160,29,1,two_way_cognate,1,REAL,FALSA
,,,,,,,,,5ea473b8f3be31098fce8760,001,2025-05-01_08h56.34.203,empathy_intonation_perc,2024.1.4,MacIntel,31.25,,,,,,,,,,,,,,161,civas,,,,,,384.288,385.787,1,0,0.932,,0,161,161,160,1,pseudoword,0,REAL,FALSA
,,,,,,,,,5ea473b8f3be31098fce8760,001,2025-05-01_08h56.34.203,empathy_intonation_perc,2024.1.4,MacIntel,31.25,,,,,,,,,,,,,,63,hilo,,,,,,385.787,387.821,0,1,1.499,,0,162,162,62,1,non_cognate,1,REAL,FALSA
,,,,,,,,,5ea473b8f3be31098fce8760,001,2025-05-01_08h56.34.203,empathy_intonation_perc,2024.1.4,MacIntel,31.25,,,,,,,,,,,,,,167,dobbo,,,,,,387.821,390.854,1,0,2.495,,0,163,163,166,1,pseudoword,0,REAL,FALSA
,,,,,,,,,5ea473b8f3be31098fce8760,001,2025-05-01_08h56.34.203,empathy_intonation_perc,2024.1.4,MacIntel,31.25,,,,,,,,,,,,,,103,vueras,,,,,,390.855,396.321,1,0,4.907,,0,164,164,102,1,pseudoword,0,REAL,FALSA
,,,,,,,,,5ea473b8f3be31098fce8760,001,2025-05-01_08h56.34.203,empathy_intonation_perc,2024.1.4,MacIntel,31.25,,,,,,,,,,,,,,65,guerra,,,,,,396.321,397.921,1,0,1.032,,0,165,165,64,1,non_cognate,1,REAL,FALSA
,,,,,,,,,5ea473b8f3be31098fce8760,001,2025-05-01_08h56.34.203,empathy_intonation_perc,2024.1.4,MacIntel,31.25,,,,,,,,,,,,,,152,prave,,,,,,397.921,399.554,0,1,1.103,,0,166,166,151,1,pseudoword,0,REAL,FALSA
,,,,,,,,,5ea473b8f3be31098fce8760,001,2025-05-01_08h56.34.203,empathy_intonation_perc,2024.1.4,MacIntel,31.25,,,,,,,,,,,,,,35,aurora,,,,,,399.554,400.854,1,0,0.766,,0,167,167,34,1,two_way_cognate,1,REAL,FALSA
,,,,,,,,,5ea473b8f3be31098fce8760,001,2025-05-01_08h56.34.203,empathy_intonation_perc,2024.1.4,MacIntel,31.25,,,,,,,,,,,,,,6,horror,,,,,,400.854,403.554,1,0,2.131,,0,168,168,5,1,three_way_cognate,1,REAL,FALSA
,,,,,,,,,5ea473b8f3be31098fce8760,001,2025-05-01_08h56.34.203,empathy_intonation_perc,2024.1.4,MacIntel,31.25,,,,,,,,,,,,,,135,panté,,,,,,403.554,405.889,0,1,1.812,,0,169,169,134,1,pseudoword,0,REAL,FALSA
,,,,,,,,,5ea473b8f3be31098fce8760,001,2025-05-01_08h56.34.203,empathy_intonation_perc,2024.1.4,MacIntel,31.25,,,,,,,,,,,,,,99,bugor,,,,,,405.89,407.753,0,1,1.3,,0,170,170,98,1,pseudoword,0,REAL,FALSA
,,,,,,,,,5ea473b8f3be31098fce8760,001,2025-05-01_08h56.34.203,empathy_intonation_perc,2024.1.4,MacIntel,31.25,,,,,,,,,,,,,,43,honor,,,,,,407.754,408.954,1,0,0.672,,0,171,171,42,1,two_way_cognate,1,REAL,FALSA
,,,,,,,,,5ea473b8f3be31098fce8760,001,2025-05-01_08h56.34.203,empathy_intonation_perc,2024.1.4,MacIntel,31.25,,,,,,,,,,,,,,150,cricó,,,,,,408.955,410.387,0,1,0.878,,0,172,172,149,1,pseudoword,0,REAL,FALSA
,,,,,,,,,5ea473b8f3be31098fce8760,001,2025-05-01_08h56.34.203,empathy_intonation_perc,2024.1.4,MacIntel,31.25,,,,,,,,,,,,,,100,épinas,,,,,,410.387,412.554,1,0,1.633,,0,173,173,99,1,pseudoword,0,REAL,FALSA
,,,,,,,,,5ea473b8f3be31098fce8760,001,2025-05-01_08h56.34.203,empathy_intonation_perc,2024.1.4,MacIntel,31.25,,,,,,,,,,,,,,182,desaro,,,,,,412.554,414.553,1,0,1.466,,0,174,174,181,1,pseudoword,0,REAL,FALSA
,,,,,,,,,5ea473b8f3be31098fce8760,001,2025-05-01_08h56.34.203,empathy_intonation_perc,2024.1.4,MacIntel,31.25,,,,,,,,,,,,,,189,medium,,,,,,414.554,416.087,1,0,0.966,,0,175,175,188,1,pseudoword,0,REAL,FALSA
,,,,,,,,,5ea473b8f3be31098fce8760,001,2025-05-01_08h56.34.203,empathy_intonation_perc,2024.1.4,MacIntel,31.25,,,,,,,,,,,,,,130,dubo,,,,,,416.087,418.287,0,1,1.672,,0,176,176,129,1,pseudoword,0,REAL,FALSA
,,,,,,,,,5ea473b8f3be31098fce8760,001,2025-05-01_08h56.34.203,empathy_intonation_perc,2024.1.4,MacIntel,31.25,,,,,,,,,,,,,,48,pelvis,,,,,,418.287,419.82,1,0,0.999,,0,177,177,47,1,two_way_cognate,1,REAL,FALSA
,,,,,,,,,5ea473b8f3be31098fce8760,001,2025-05-01_08h56.34.203,empathy_intonation_perc,2024.1.4,MacIntel,31.25,,,,,,,,,,,,,,96,caro,,,,,,419.82,421.054,1,0,0.704,,0,178,178,95,1,non_cognate,1,REAL,FALSA
,,,,,,,,,5ea473b8f3be31098fce8760,001,2025-05-01_08h56.34.203,empathy_intonation_perc,2024.1.4,MacIntel,31.25,,,,,,,,,,,,,,4,flora,,,,,,421.054,422.387,1,0,0.804,,0,179,179,3,1,three_way_cognate,1,REAL,FALSA
,,,,,,,,,5ea473b8f3be31098fce8760,001,2025-05-01_08h56.34.203,empathy_intonation_perc,2024.1.4,MacIntel,31.25,,,,,,,,,,,,,,159,trcia,,,,,,422.387,424.154,0,1,1.234,,0,180,180,158,1,pseudoword,0,REAL,FALSA
,,,,,,,,,5ea473b8f3be31098fce8760,001,2025-05-01_08h56.34.203,empathy_intonation_perc,2024.1.4,MacIntel,31.25,,,,,,,,,,,,,,116,grigir,,,,,,424.154,427.52,1,0,2.803,,0,181,181,115,1,pseudoword,0,REAL,FALSA
,,,,,,,,,5ea473b8f3be31098fce8760,001,2025-05-01_08h56.34.203,empathy_intonation_perc,2024.1.4,MacIntel,31.25,,,,,,,,,,,,,,158,babrá,,,,,,427.52,429.287,0,1,1.243,,0,182,182,157,1,pseudoword,0,REAL,FALSA
,,,,,,,,,5ea473b8f3be31098fce8760,001,2025-05-01_08h56.34.203,empathy_intonation_perc,2024.1.4,MacIntel,31.25,,,,,,,,,,,,,,38,halo,,,,,,429.287,431.62,0,1,1.799,,0,183,183,37,1,two_way_cognate,1,REAL,FALSA
,,,,,,,,,5ea473b8f3be31098fce8760,001,2025-05-01_08h56.34.203,empathy_intonation_perc,2024.1.4,MacIntel,31.25,,,,,,,,,,,,,,127,vien,,,,,,431.62,433.554,1,0,1.399,,0,184,184,126,1,pseudoword,0,REAL,FALSA
,,,,,,,,,5ea473b8f3be31098fce8760,001,2025-05-01_08h56.34.203,empathy_intonation_perc,2024.1.4,MacIntel,31.25,,,,,,,,,,,,,,139,sasos,,,,,,433.554,435.253,0,1,1.136,,0,185,185,138,1,pseudoword,0,REAL,FALSA
,,,,,,,,,5ea473b8f3be31098fce8760,001,2025-05-01_08h56.34.203,empathy_intonation_perc,2024.1.4,MacIntel,31.25,,,,,,,,,,,,,,191,frasis,,,,,,435.254,438.886,1,0,3.076,,0,186,186,190,1,pseudoword,0,REAL,FALSA
,,,,,,,,,5ea473b8f3be31098fce8760,001,2025-05-01_08h56.34.203,empathy_intonation_perc,2024.1.4,MacIntel,31.25,,,,,,,,,,,,,,55,maldad,,,,,,438.887,441.253,1,0,1.838,,0,187,187,54,1,non_cognate,1,REAL,FALSA
,,,,,,,,,5ea473b8f3be31098fce8760,001,2025-05-01_08h56.34.203,empathy_intonation_perc,2024.1.4,MacIntel,31.25,,,,,,,,,,,,,,15,test,,,,,,441.253,442.82,1,0,1.031,,0,188,188,14,1,three_way_cognate,1,REAL,FALSA
,,,,,,,,,5ea473b8f3be31098fce8760,001,2025-05-01_08h56.34.203,empathy_intonation_perc,2024.1.4,MacIntel,31.25,,,,,,,,,,,,,,83,hálito,,,,,,442.82,445.053,1,0,1.699,,0,189,189,82,1,non_cognate,1,REAL,FALSA
,,,,,,,,,5ea473b8f3be31098fce8760,001,2025-05-01_08h56.34.203,empathy_intonation_perc,2024.1.4,MacIntel,31.25,,,,,,,,,,,,,,89,muñeca,,,,,,445.054,447.82,0,1,2.198,,0,190,190,88,1,non_cognate,1,REAL,FALSA
,,,,,,,,,5ea473b8f3be31098fce8760,001,2025-05-01_08h56.34.203,empathy_intonation_perc,2024.1.4,MacIntel,31.25,,,,,,,,,,,,,,29,clamor,,,,,,447.821,450.154,0,1,1.764,,0,191,191,28,1,two_way_cognate,1,REAL,FALSA
