lextale_instructions.started,lextale_instructions.stopped,lextale_instructions_loop.thisRepN,lextale_instructions_loop.thisTrialN,lextale_instructions_loop.thisN,lextale_instructions_loop.thisIndex,lextale_instructions_loop.ran,instructions_text,continue_text,participant,session,date,expName,psychopyVersion,OS,frameRate,lextale_practice.started,lextale_practice.stopped,key_resp_lextale_practice.keys,key_resp_lextale_practice.corr,key_resp_lextale_practice.rt,key_resp_lextale_practice.duration,lextale_practice_feedback.started,lextale_practice_feedback.stopped,lextale_practice_trials.thisRepN,lextale_practice_trials.thisTrialN,lextale_practice_trials.thisN,lextale_practice_trials.thisIndex,lextale_practice_trials.ran,stim,word,correct_response,prac_button_real,prac_button_false,lextale_check.started,lextale_check.stopped,lextale_trial.started,lextale_trial.stopped,key_resp_lextale_trial.keys,key_resp_lextale_trial.corr,key_resp_lextale_trial.rt,key_resp_lextale_trial.duration,lextail_trials.thisRepN,lextail_trials.thisTrialN,lextail_trials.thisN,lextail_trials.thisIndex,lextail_trials.ran,type,correct_reponse,button_real,button_false
0.001,13.221,0,0,0,0,1,"Este es un test de vocabulario en español. 
  
  A continuación vas a ver 90 secuencias de letras que parecen 'españolas'.
  
  Solo algunas de ellas son palabras de verdad.",(presiona la barra espaciadora para continuar),5ea6d2afae702d06452f2ea5,001,2025-04-30_14h40.16.977,empathy_intonation_perc,2024.1.4,Win32,59.95203837,,,,,,,,,,,,,,,,,,,,,,,,,,,,,,,,,,,
13.222,24.232,0,1,1,1,1,"Por favor, señala las palabras que tú conoces (aquellas que estás convencido que son palabras españolas, incluso aunque no seas capaz de dar el significado preciso).",(presiona la barra espaciadora para continuar),5ea6d2afae702d06452f2ea5,001,2025-04-30_14h40.16.977,empathy_intonation_perc,2024.1.4,Win32,59.95203837,,,,,,,,,,,,,,,,,,,,,,,,,,,,,,,,,,,
24.233,52.561,0,2,2,2,1,Pero cuidado: los errores se penalizan. Por eso no tiene sentido tratar de incrementar tu puntuación marcando como reales palabras que nunca has visto.,(presiona la barra espaciadora para continuar),5ea6d2afae702d06452f2ea5,001,2025-04-30_14h40.16.977,empathy_intonation_perc,2024.1.4,Win32,59.95203837,,,,,,,,,,,,,,,,,,,,,,,,,,,,,,,,,,,
52.563,60.885,0,3,3,3,1,"Presiona la tecla 1 si piensas que es una palabra real y la tecla 
  0 si piensas que es una palabra falsa. 
  
  Vamos a practicar un poco...",(presiona la barra espaciadora para continuar),5ea6d2afae702d06452f2ea5,001,2025-04-30_14h40.16.977,empathy_intonation_perc,2024.1.4,Win32,59.95203837,,,,,,,,,,,,,,,,,,,,,,,,,,,,,,,,,,,
,,,,,,,,,5ea6d2afae702d06452f2ea5,001,2025-04-30_14h40.16.977,empathy_intonation_perc,2024.1.4,Win32,59.95203837,60.889,66.61,0,1,5.188,,66.61,67.608,0,0,0,0,1,0,depiste,0,REAL,FALSA,,,,,,,,,,,,,,,,,
,,,,,,,,,5ea6d2afae702d06452f2ea5,001,2025-04-30_14h40.16.977,empathy_intonation_perc,2024.1.4,Win32,59.95203837,67.612,69.145,1,1,1.01,,69.145,70.144,0,1,1,1,1,0,sí,1,REAL,FALSA,,,,,,,,,,,,,,,,,
,,,,,,,,,5ea6d2afae702d06452f2ea5,001,2025-04-30_14h40.16.977,empathy_intonation_perc,2024.1.4,Win32,59.95203837,70.145,71.695,0,1,1.01,,71.695,72.696,0,2,2,2,1,0,coné,0,REAL,FALSA,,,,,,,,,,,,,,,,,
,,,,,,,,,5ea6d2afae702d06452f2ea5,001,2025-04-30_14h40.16.977,empathy_intonation_perc,2024.1.4,Win32,59.95203837,72.698,74.097,1,0,0.868,,74.098,75.099,0,3,3,3,1,0,calpar,0,REAL,FALSA,,,,,,,,,,,,,,,,,
,,,,,,,,,5ea6d2afae702d06452f2ea5,001,2025-04-30_14h40.16.977,empathy_intonation_perc,2024.1.4,Win32,59.95203837,75.1,76.684,0,1,1.036,,76.684,77.685,0,4,4,4,1,0,joten,0,REAL,FALSA,,,,,,,,,,,,,,,,,
,,,,,,,,,5ea6d2afae702d06452f2ea5,001,2025-04-30_14h40.16.977,empathy_intonation_perc,2024.1.4,Win32,59.95203837,77.686,79.604,0,0,1.384,,79.604,80.604,0,5,5,5,1,0,sacapuntas,1,REAL,FALSA,,,,,,,,,,,,,,,,,
,,,,,,,,,5ea6d2afae702d06452f2ea5,001,2025-04-30_14h40.16.977,empathy_intonation_perc,2024.1.4,Win32,59.95203837,80.606,82.106,1,0,0.974,,82.106,83.107,0,6,6,6,1,0,priba,0,REAL,FALSA,,,,,,,,,,,,,,,,,
,,,,,,,,,5ea6d2afae702d06452f2ea5,001,2025-04-30_14h40.16.977,empathy_intonation_perc,2024.1.4,Win32,59.95203837,83.108,84.658,0,1,1.001,,84.658,85.659,0,7,7,7,1,0,pelasula,0,REAL,FALSA,,,,,,,,,,,,,,,,,
,,,,,,,,,5ea6d2afae702d06452f2ea5,001,2025-04-30_14h40.16.977,empathy_intonation_perc,2024.1.4,Win32,59.95203837,85.661,87.027,1,1,0.816,,87.028,88.029,0,8,8,8,1,0,bien,1,REAL,FALSA,,,,,,,,,,,,,,,,,
,,,,,,,,,5ea6d2afae702d06452f2ea5,001,2025-04-30_14h40.16.977,empathy_intonation_perc,2024.1.4,Win32,59.95203837,88.029,89.196,1,1,0.628,,89.196,90.196,0,9,9,9,1,0,casa,1,REAL,FALSA,,,,,,,,,,,,,,,,,
,,,,,,,,,5ea6d2afae702d06452f2ea5,001,2025-04-30_14h40.16.977,empathy_intonation_perc,2024.1.4,Win32,59.95203837,90.198,91.582,1,0,0.847,,91.582,92.583,0,10,10,10,1,0,lejo,0,REAL,FALSA,,,,,,,,,,,,,,,,,
,,,,,,,,,5ea6d2afae702d06452f2ea5,001,2025-04-30_14h40.16.977,empathy_intonation_perc,2024.1.4,Win32,59.95203837,92.584,94.101,0,1,0.966,,94.101,95.101,0,11,11,11,1,0,pretantas,0,REAL,FALSA,,,,,,,,,,,,,,,,,
,,,,,,,,,5ea6d2afae702d06452f2ea5,001,2025-04-30_14h40.16.977,empathy_intonation_perc,2024.1.4,Win32,59.95203837,,,,,,,,,,,,,,,,,,,95.102,98.307,,,,,,,,,,,,,,,
,,,,,,,,,5ea6d2afae702d06452f2ea5,001,2025-04-30_14h40.16.977,empathy_intonation_perc,2024.1.4,Win32,59.95203837,,,,,,,,,,,,,,114,dibrea,,,,,,98.319,99.991,0,1,1.132,,0,0,0,113,1,pseudoword,0,REAL,FALSA
,,,,,,,,,5ea6d2afae702d06452f2ea5,001,2025-04-30_14h40.16.977,empathy_intonation_perc,2024.1.4,Win32,59.95203837,,,,,,,,,,,,,,11,golf,,,,,,99.992,101.475,1,0,0.949,,0,1,1,10,1,three_way_cognate,1,REAL,FALSA
,,,,,,,,,5ea6d2afae702d06452f2ea5,001,2025-04-30_14h40.16.977,empathy_intonation_perc,2024.1.4,Win32,59.95203837,,,,,,,,,,,,,,169,pitis,,,,,,101.477,102.744,0,1,0.732,,0,2,2,168,1,pseudoword,0,REAL,FALSA
,,,,,,,,,5ea6d2afae702d06452f2ea5,001,2025-04-30_14h40.16.977,empathy_intonation_perc,2024.1.4,Win32,59.95203837,,,,,,,,,,,,,,138,tator,,,,,,102.744,104.161,0,1,0.867,,0,3,3,137,1,pseudoword,0,REAL,FALSA
,,,,,,,,,5ea6d2afae702d06452f2ea5,001,2025-04-30_14h40.16.977,empathy_intonation_perc,2024.1.4,Win32,59.95203837,,,,,,,,,,,,,,8,kilo,,,,,,104.162,105.829,1,0,1.14,,0,4,4,7,1,three_way_cognate,1,REAL,FALSA
,,,,,,,,,5ea6d2afae702d06452f2ea5,001,2025-04-30_14h40.16.977,empathy_intonation_perc,2024.1.4,Win32,59.95203837,,,,,,,,,,,,,,78,rendir,,,,,,105.831,107.247,0,1,0.884,,0,5,5,77,1,non_cognate,1,REAL,FALSA
,,,,,,,,,5ea6d2afae702d06452f2ea5,001,2025-04-30_14h40.16.977,empathy_intonation_perc,2024.1.4,Win32,59.95203837,,,,,,,,,,,,,,183,edioso,,,,,,107.248,108.515,0,1,0.718,,0,6,6,182,1,pseudoword,0,REAL,FALSA
,,,,,,,,,5ea6d2afae702d06452f2ea5,001,2025-04-30_14h40.16.977,empathy_intonation_perc,2024.1.4,Win32,59.95203837,,,,,,,,,,,,,,155,kugis,,,,,,108.516,109.749,0,1,0.695,,0,7,7,154,1,pseudoword,0,REAL,FALSA
,,,,,,,,,5ea6d2afae702d06452f2ea5,001,2025-04-30_14h40.16.977,empathy_intonation_perc,2024.1.4,Win32,59.95203837,,,,,,,,,,,,,,146,gió,,,,,,109.751,113.619,0,1,3.334,,0,8,8,145,1,pseudoword,0,REAL,FALSA
,,,,,,,,,5ea6d2afae702d06452f2ea5,001,2025-04-30_14h40.16.977,empathy_intonation_perc,2024.1.4,Win32,59.95203837,,,,,,,,,,,,,,120,mauja,,,,,,113.621,114.872,0,1,0.711,,0,9,9,119,1,pseudoword,0,REAL,FALSA
,,,,,,,,,5ea6d2afae702d06452f2ea5,001,2025-04-30_14h40.16.977,empathy_intonation_perc,2024.1.4,Win32,59.95203837,,,,,,,,,,,,,,100,épinas,,,,,,114.873,116.306,1,0,0.89,,0,10,10,99,1,pseudoword,0,REAL,FALSA
,,,,,,,,,5ea6d2afae702d06452f2ea5,001,2025-04-30_14h40.16.977,empathy_intonation_perc,2024.1.4,Win32,59.95203837,,,,,,,,,,,,,,127,vien,,,,,,116.307,117.524,0,1,0.671,,0,11,11,126,1,pseudoword,0,REAL,FALSA
,,,,,,,,,5ea6d2afae702d06452f2ea5,001,2025-04-30_14h40.16.977,empathy_intonation_perc,2024.1.4,Win32,59.95203837,,,,,,,,,,,,,,180,pupica,,,,,,117.525,119.008,1,0,0.933,,0,12,12,179,1,pseudoword,0,REAL,FALSA
,,,,,,,,,5ea6d2afae702d06452f2ea5,001,2025-04-30_14h40.16.977,empathy_intonation_perc,2024.1.4,Win32,59.95203837,,,,,,,,,,,,,,182,desaro,,,,,,119.008,120.312,1,0,0.778,,0,13,13,181,1,pseudoword,0,REAL,FALSA
,,,,,,,,,5ea6d2afae702d06452f2ea5,001,2025-04-30_14h40.16.977,empathy_intonation_perc,2024.1.4,Win32,59.95203837,,,,,,,,,,,,,,123,arane,,,,,,120.313,121.444,0,1,0.592,,0,14,14,122,1,pseudoword,0,REAL,FALSA
,,,,,,,,,5ea6d2afae702d06452f2ea5,001,2025-04-30_14h40.16.977,empathy_intonation_perc,2024.1.4,Win32,59.95203837,,,,,,,,,,,,,,48,pelvis,,,,,,121.445,124.081,1,0,2.106,,0,15,15,47,1,two_way_cognate,1,REAL,FALSA
,,,,,,,,,5ea6d2afae702d06452f2ea5,001,2025-04-30_14h40.16.977,empathy_intonation_perc,2024.1.4,Win32,59.95203837,,,,,,,,,,,,,,171,gotro,,,,,,124.081,125.181,0,1,0.57,,0,16,16,170,1,pseudoword,0,REAL,FALSA
,,,,,,,,,5ea6d2afae702d06452f2ea5,001,2025-04-30_14h40.16.977,empathy_intonation_perc,2024.1.4,Win32,59.95203837,,,,,,,,,,,,,,106,diebro,,,,,,125.182,126.316,0,1,0.608,,0,17,17,105,1,pseudoword,0,REAL,FALSA
,,,,,,,,,5ea6d2afae702d06452f2ea5,001,2025-04-30_14h40.16.977,empathy_intonation_perc,2024.1.4,Win32,59.95203837,,,,,,,,,,,,,,33,collar,,,,,,126.317,127.851,1,0,0.984,,0,18,18,32,1,two_way_cognate,1,REAL,FALSA
,,,,,,,,,5ea6d2afae702d06452f2ea5,001,2025-04-30_14h40.16.977,empathy_intonation_perc,2024.1.4,Win32,59.95203837,,,,,,,,,,,,,,192,próces,,,,,,127.852,129.135,1,0,0.756,,0,19,19,191,1,pseudoword,0,REAL,FALSA
,,,,,,,,,5ea6d2afae702d06452f2ea5,001,2025-04-30_14h40.16.977,empathy_intonation_perc,2024.1.4,Win32,59.95203837,,,,,,,,,,,,,,12,dogma,,,,,,129.136,130.238,0,1,0.568,,0,20,20,11,1,three_way_cognate,1,REAL,FALSA
,,,,,,,,,5ea6d2afae702d06452f2ea5,001,2025-04-30_14h40.16.977,empathy_intonation_perc,2024.1.4,Win32,59.95203837,,,,,,,,,,,,,,144,diroco,,,,,,130.24,131.538,0,1,0.746,,0,21,21,143,1,pseudoword,0,REAL,FALSA
,,,,,,,,,5ea6d2afae702d06452f2ea5,001,2025-04-30_14h40.16.977,empathy_intonation_perc,2024.1.4,Win32,59.95203837,,,,,,,,,,,,,,2,tumor,,,,,,131.539,132.855,1,0,0.77,,0,22,22,1,1,three_way_cognate,1,REAL,FALSA
,,,,,,,,,5ea6d2afae702d06452f2ea5,001,2025-04-30_14h40.16.977,empathy_intonation_perc,2024.1.4,Win32,59.95203837,,,,,,,,,,,,,,96,caro,,,,,,132.855,134.04,1,0,0.661,,0,23,23,95,1,non_cognate,1,REAL,FALSA
,,,,,,,,,5ea6d2afae702d06452f2ea5,001,2025-04-30_14h40.16.977,empathy_intonation_perc,2024.1.4,Win32,59.95203837,,,,,,,,,,,,,,186,rizate,,,,,,134.041,135.341,0,1,0.751,,0,24,24,185,1,pseudoword,0,REAL,FALSA
,,,,,,,,,5ea6d2afae702d06452f2ea5,001,2025-04-30_14h40.16.977,empathy_intonation_perc,2024.1.4,Win32,59.95203837,,,,,,,,,,,,,,132,nocó,,,,,,135.342,136.526,0,1,0.656,,0,25,25,131,1,pseudoword,0,REAL,FALSA
,,,,,,,,,5ea6d2afae702d06452f2ea5,001,2025-04-30_14h40.16.977,empathy_intonation_perc,2024.1.4,Win32,59.95203837,,,,,,,,,,,,,,153,golla,,,,,,136.527,139.062,0,1,1.99,,0,26,26,152,1,pseudoword,0,REAL,FALSA
,,,,,,,,,5ea6d2afae702d06452f2ea5,001,2025-04-30_14h40.16.977,empathy_intonation_perc,2024.1.4,Win32,59.95203837,,,,,,,,,,,,,,28,ardor,,,,,,139.063,140.563,1,0,0.949,,0,27,27,27,1,two_way_cognate,1,REAL,FALSA
,,,,,,,,,5ea6d2afae702d06452f2ea5,001,2025-04-30_14h40.16.977,empathy_intonation_perc,2024.1.4,Win32,59.95203837,,,,,,,,,,,,,,111,monue,,,,,,140.564,141.631,0,1,0.546,,0,28,28,110,1,pseudoword,0,REAL,FALSA
,,,,,,,,,5ea6d2afae702d06452f2ea5,001,2025-04-30_14h40.16.977,empathy_intonation_perc,2024.1.4,Win32,59.95203837,,,,,,,,,,,,,,134,molor,,,,,,141.632,143.032,0,1,0.858,,0,29,29,133,1,pseudoword,0,REAL,FALSA
,,,,,,,,,5ea6d2afae702d06452f2ea5,001,2025-04-30_14h40.16.977,empathy_intonation_perc,2024.1.4,Win32,59.95203837,,,,,,,,,,,,,,26,enigma,,,,,,143.033,144.301,1,0,0.742,,0,30,30,25,1,two_way_cognate,1,REAL,FALSA
,,,,,,,,,5ea6d2afae702d06452f2ea5,001,2025-04-30_14h40.16.977,empathy_intonation_perc,2024.1.4,Win32,59.95203837,,,,,,,,,,,,,,69,tiza,,,,,,144.302,145.501,0,1,0.664,,0,31,31,68,1,non_cognate,1,REAL,FALSA
,,,,,,,,,5ea6d2afae702d06452f2ea5,001,2025-04-30_14h40.16.977,empathy_intonation_perc,2024.1.4,Win32,59.95203837,,,,,,,,,,,,,,3,disco,,,,,,145.502,146.803,1,0,0.766,,0,32,32,2,1,three_way_cognate,1,REAL,FALSA
,,,,,,,,,5ea6d2afae702d06452f2ea5,001,2025-04-30_14h40.16.977,empathy_intonation_perc,2024.1.4,Win32,59.95203837,,,,,,,,,,,,,,35,aurora,,,,,,146.804,148.421,1,0,1.08,,0,33,33,34,1,two_way_cognate,1,REAL,FALSA
,,,,,,,,,5ea6d2afae702d06452f2ea5,001,2025-04-30_14h40.16.977,empathy_intonation_perc,2024.1.4,Win32,59.95203837,,,,,,,,,,,,,,103,vueras,,,,,,148.422,149.555,0,1,0.62,,0,34,34,102,1,pseudoword,0,REAL,FALSA
,,,,,,,,,5ea6d2afae702d06452f2ea5,001,2025-04-30_14h40.16.977,empathy_intonation_perc,2024.1.4,Win32,59.95203837,,,,,,,,,,,,,,74,ala,,,,,,149.556,151.474,0,1,1.4,,0,35,35,73,1,non_cognate,1,REAL,FALSA
,,,,,,,,,5ea6d2afae702d06452f2ea5,001,2025-04-30_14h40.16.977,empathy_intonation_perc,2024.1.4,Win32,59.95203837,,,,,,,,,,,,,,97,nocita,,,,,,151.475,152.892,0,1,0.869,,0,36,36,96,1,pseudoword,0,REAL,FALSA
,,,,,,,,,5ea6d2afae702d06452f2ea5,001,2025-04-30_14h40.16.977,empathy_intonation_perc,2024.1.4,Win32,59.95203837,,,,,,,,,,,,,,47,color,,,,,,152.893,154.076,1,0,0.633,,0,37,37,46,1,two_way_cognate,1,REAL,FALSA
,,,,,,,,,5ea6d2afae702d06452f2ea5,001,2025-04-30_14h40.16.977,empathy_intonation_perc,2024.1.4,Win32,59.95203837,,,,,,,,,,,,,,49,teñir,,,,,,154.077,155.378,1,0,0.785,,0,38,38,48,1,non_cognate,1,REAL,FALSA
,,,,,,,,,5ea6d2afae702d06452f2ea5,001,2025-04-30_14h40.16.977,empathy_intonation_perc,2024.1.4,Win32,59.95203837,,,,,,,,,,,,,,10,drama,,,,,,155.379,156.562,1,0,0.645,,0,39,39,9,1,three_way_cognate,1,REAL,FALSA
,,,,,,,,,5ea6d2afae702d06452f2ea5,001,2025-04-30_14h40.16.977,empathy_intonation_perc,2024.1.4,Win32,59.95203837,,,,,,,,,,,,,,44,editor,,,,,,156.563,157.78,1,0,0.69,,0,40,40,43,1,two_way_cognate,1,REAL,FALSA
,,,,,,,,,5ea6d2afae702d06452f2ea5,001,2025-04-30_14h40.16.977,empathy_intonation_perc,2024.1.4,Win32,59.95203837,,,,,,,,,,,,,,136,hueas,,,,,,157.781,158.965,0,1,0.661,,0,41,41,135,1,pseudoword,0,REAL,FALSA
,,,,,,,,,5ea6d2afae702d06452f2ea5,001,2025-04-30_14h40.16.977,empathy_intonation_perc,2024.1.4,Win32,59.95203837,,,,,,,,,,,,,,1,moral,,,,,,158.965,160.133,1,0,0.638,,0,42,42,0,1,three_way_cognate,1,REAL,FALSA
,,,,,,,,,5ea6d2afae702d06452f2ea5,001,2025-04-30_14h40.16.977,empathy_intonation_perc,2024.1.4,Win32,59.95203837,,,,,,,,,,,,,,160,fomeó,,,,,,160.134,161.251,0,1,0.577,,0,43,43,159,1,pseudoword,0,REAL,FALSA
,,,,,,,,,5ea6d2afae702d06452f2ea5,001,2025-04-30_14h40.16.977,empathy_intonation_perc,2024.1.4,Win32,59.95203837,,,,,,,,,,,,,,59,feo,,,,,,161.252,162.668,1,0,0.888,,0,44,44,58,1,non_cognate,1,REAL,FALSA
,,,,,,,,,5ea6d2afae702d06452f2ea5,001,2025-04-30_14h40.16.977,empathy_intonation_perc,2024.1.4,Win32,59.95203837,,,,,,,,,,,,,,102,coyo,,,,,,162.669,164.272,0,1,1.081,,0,45,45,101,1,pseudoword,0,REAL,FALSA
,,,,,,,,,5ea6d2afae702d06452f2ea5,001,2025-04-30_14h40.16.977,empathy_intonation_perc,2024.1.4,Win32,59.95203837,,,,,,,,,,,,,,32,animal,,,,,,164.275,165.737,1,0,0.926,,0,46,46,31,1,two_way_cognate,1,REAL,FALSA
,,,,,,,,,5ea6d2afae702d06452f2ea5,001,2025-04-30_14h40.16.977,empathy_intonation_perc,2024.1.4,Win32,59.95203837,,,,,,,,,,,,,,128,pelí,,,,,,165.738,167.14,1,0,0.881,,0,47,47,127,1,pseudoword,0,REAL,FALSA
,,,,,,,,,5ea6d2afae702d06452f2ea5,001,2025-04-30_14h40.16.977,empathy_intonation_perc,2024.1.4,Win32,59.95203837,,,,,,,,,,,,,,24,retina,,,,,,167.141,168.508,1,0,0.815,,0,48,48,23,1,three_way_cognate,1,REAL,FALSA
,,,,,,,,,5ea6d2afae702d06452f2ea5,001,2025-04-30_14h40.16.977,empathy_intonation_perc,2024.1.4,Win32,59.95203837,,,,,,,,,,,,,,82,brillo,,,,,,168.508,170.276,0,1,1.234,,0,49,49,81,1,non_cognate,1,REAL,FALSA
,,,,,,,,,5ea6d2afae702d06452f2ea5,001,2025-04-30_14h40.16.977,empathy_intonation_perc,2024.1.4,Win32,59.95203837,,,,,,,,,,,,,,85,enorme,,,,,,170.278,172.011,1,0,1.188,,0,50,50,84,1,non_cognate,1,REAL,FALSA
,,,,,,,,,5ea6d2afae702d06452f2ea5,001,2025-04-30_14h40.16.977,empathy_intonation_perc,2024.1.4,Win32,59.95203837,,,,,,,,,,,,,,30,fiscal,,,,,,172.012,173.429,1,0,0.886,,0,51,51,29,1,two_way_cognate,1,REAL,FALSA
,,,,,,,,,5ea6d2afae702d06452f2ea5,001,2025-04-30_14h40.16.977,empathy_intonation_perc,2024.1.4,Win32,59.95203837,,,,,,,,,,,,,,115,lidena,,,,,,173.43,174.781,0,1,0.802,,0,52,52,114,1,pseudoword,0,REAL,FALSA
,,,,,,,,,5ea6d2afae702d06452f2ea5,001,2025-04-30_14h40.16.977,empathy_intonation_perc,2024.1.4,Win32,59.95203837,,,,,,,,,,,,,,71,torta,,,,,,174.782,176.616,0,1,1.285,,0,53,53,70,1,non_cognate,1,REAL,FALSA
,,,,,,,,,5ea6d2afae702d06452f2ea5,001,2025-04-30_14h40.16.977,empathy_intonation_perc,2024.1.4,Win32,59.95203837,,,,,,,,,,,,,,5,extra,,,,,,176.617,177.95,1,0,0.791,,0,54,54,4,1,three_way_cognate,1,REAL,FALSA
,,,,,,,,,5ea6d2afae702d06452f2ea5,001,2025-04-30_14h40.16.977,empathy_intonation_perc,2024.1.4,Win32,59.95203837,,,,,,,,,,,,,,39,casual,,,,,,177.951,179.32,1,0,0.847,,0,55,55,38,1,two_way_cognate,1,REAL,FALSA
,,,,,,,,,5ea6d2afae702d06452f2ea5,001,2025-04-30_14h40.16.977,empathy_intonation_perc,2024.1.4,Win32,59.95203837,,,,,,,,,,,,,,148,gino,,,,,,179.321,181.671,1,0,1.816,,0,56,56,147,1,pseudoword,0,REAL,FALSA
,,,,,,,,,5ea6d2afae702d06452f2ea5,001,2025-04-30_14h40.16.977,empathy_intonation_perc,2024.1.4,Win32,59.95203837,,,,,,,,,,,,,,73,llevar,,,,,,181.672,182.888,1,0,0.688,,0,57,57,72,1,non_cognate,1,REAL,FALSA
,,,,,,,,,5ea6d2afae702d06452f2ea5,001,2025-04-30_14h40.16.977,empathy_intonation_perc,2024.1.4,Win32,59.95203837,,,,,,,,,,,,,,81,sacar,,,,,,182.889,184.156,1,0,0.741,,0,58,58,80,1,non_cognate,1,REAL,FALSA
,,,,,,,,,5ea6d2afae702d06452f2ea5,001,2025-04-30_14h40.16.977,empathy_intonation_perc,2024.1.4,Win32,59.95203837,,,,,,,,,,,,,,164,tecia,,,,,,184.157,185.458,0,1,0.752,,0,59,59,163,1,pseudoword,0,REAL,FALSA
,,,,,,,,,5ea6d2afae702d06452f2ea5,001,2025-04-30_14h40.16.977,empathy_intonation_perc,2024.1.4,Win32,59.95203837,,,,,,,,,,,,,,188,amplir,,,,,,185.459,187.026,0,1,1.021,,0,60,60,187,1,pseudoword,0,REAL,FALSA
,,,,,,,,,5ea6d2afae702d06452f2ea5,001,2025-04-30_14h40.16.977,empathy_intonation_perc,2024.1.4,Win32,59.95203837,,,,,,,,,,,,,,173,mibro,,,,,,187.027,188.227,0,1,0.657,,0,61,61,172,1,pseudoword,0,REAL,FALSA
,,,,,,,,,5ea6d2afae702d06452f2ea5,001,2025-04-30_14h40.16.977,empathy_intonation_perc,2024.1.4,Win32,59.95203837,,,,,,,,,,,,,,118,bará,,,,,,188.227,191.613,1,0,2.86,,0,62,62,117,1,pseudoword,0,REAL,FALSA
,,,,,,,,,5ea6d2afae702d06452f2ea5,001,2025-04-30_14h40.16.977,empathy_intonation_perc,2024.1.4,Win32,59.95203837,,,,,,,,,,,,,,51,listo,,,,,,191.614,192.731,1,0,0.592,,0,63,63,50,1,non_cognate,1,REAL,FALSA
,,,,,,,,,5ea6d2afae702d06452f2ea5,001,2025-04-30_14h40.16.977,empathy_intonation_perc,2024.1.4,Win32,59.95203837,,,,,,,,,,,,,,36,viable,,,,,,192.733,194.083,0,1,0.799,,0,64,64,35,1,two_way_cognate,1,REAL,FALSA
,,,,,,,,,5ea6d2afae702d06452f2ea5,001,2025-04-30_14h40.16.977,empathy_intonation_perc,2024.1.4,Win32,59.95203837,,,,,,,,,,,,,,91,equipo,,,,,,194.084,195.785,1,0,1.161,,0,65,65,90,1,non_cognate,1,REAL,FALSA
,,,,,,,,,5ea6d2afae702d06452f2ea5,001,2025-04-30_14h40.16.977,empathy_intonation_perc,2024.1.4,Win32,59.95203837,,,,,,,,,,,,,,43,honor,,,,,,195.785,197.003,1,0,0.679,,0,66,66,42,1,two_way_cognate,1,REAL,FALSA
,,,,,,,,,5ea6d2afae702d06452f2ea5,001,2025-04-30_14h40.16.977,empathy_intonation_perc,2024.1.4,Win32,59.95203837,,,,,,,,,,,,,,22,mango,,,,,,197.005,198.387,1,0,0.835,,0,67,67,21,1,three_way_cognate,1,REAL,FALSA
,,,,,,,,,5ea6d2afae702d06452f2ea5,001,2025-04-30_14h40.16.977,empathy_intonation_perc,2024.1.4,Win32,59.95203837,,,,,,,,,,,,,,150,cricó,,,,,,198.388,199.655,0,1,0.744,,0,68,68,149,1,pseudoword,0,REAL,FALSA
,,,,,,,,,5ea6d2afae702d06452f2ea5,001,2025-04-30_14h40.16.977,empathy_intonation_perc,2024.1.4,Win32,59.95203837,,,,,,,,,,,,,,126,tobre,,,,,,199.656,200.773,0,1,0.572,,0,69,69,125,1,pseudoword,0,REAL,FALSA
,,,,,,,,,5ea6d2afae702d06452f2ea5,001,2025-04-30_14h40.16.977,empathy_intonation_perc,2024.1.4,Win32,59.95203837,,,,,,,,,,,,,,149,emén,,,,,,200.775,201.907,0,1,0.599,,0,70,70,148,1,pseudoword,0,REAL,FALSA
,,,,,,,,,5ea6d2afae702d06452f2ea5,001,2025-04-30_14h40.16.977,empathy_intonation_perc,2024.1.4,Win32,59.95203837,,,,,,,,,,,,,,58,colcha,,,,,,201.909,202.975,0,1,0.521,,0,71,71,57,1,non_cognate,1,REAL,FALSA
,,,,,,,,,5ea6d2afae702d06452f2ea5,001,2025-04-30_14h40.16.977,empathy_intonation_perc,2024.1.4,Win32,59.95203837,,,,,,,,,,,,,,63,hilo,,,,,,202.976,204.16,0,1,0.651,,0,72,72,62,1,non_cognate,1,REAL,FALSA
,,,,,,,,,5ea6d2afae702d06452f2ea5,001,2025-04-30_14h40.16.977,empathy_intonation_perc,2024.1.4,Win32,59.95203837,,,,,,,,,,,,,,184,huenos,,,,,,204.161,205.444,0,1,0.75,,0,73,73,183,1,pseudoword,0,REAL,FALSA
,,,,,,,,,5ea6d2afae702d06452f2ea5,001,2025-04-30_14h40.16.977,empathy_intonation_perc,2024.1.4,Win32,59.95203837,,,,,,,,,,,,,,113,nasce,,,,,,205.445,206.796,0,1,0.799,,0,74,74,112,1,pseudoword,0,REAL,FALSA
,,,,,,,,,5ea6d2afae702d06452f2ea5,001,2025-04-30_14h40.16.977,empathy_intonation_perc,2024.1.4,Win32,59.95203837,,,,,,,,,,,,,,75,patada,,,,,,206.797,208.03,0,1,0.686,,0,75,75,74,1,non_cognate,1,REAL,FALSA
,,,,,,,,,5ea6d2afae702d06452f2ea5,001,2025-04-30_14h40.16.977,empathy_intonation_perc,2024.1.4,Win32,59.95203837,,,,,,,,,,,,,,7,albino,,,,,,208.032,209.498,1,0,0.926,,0,76,76,6,1,three_way_cognate,1,REAL,FALSA
,,,,,,,,,5ea6d2afae702d06452f2ea5,001,2025-04-30_14h40.16.977,empathy_intonation_perc,2024.1.4,Win32,59.95203837,,,,,,,,,,,,,,189,medium,,,,,,209.499,210.65,1,0,0.625,,0,77,77,188,1,pseudoword,0,REAL,FALSA
,,,,,,,,,5ea6d2afae702d06452f2ea5,001,2025-04-30_14h40.16.977,empathy_intonation_perc,2024.1.4,Win32,59.95203837,,,,,,,,,,,,,,56,pico,,,,,,210.651,212.367,1,0,1.181,,0,78,78,55,1,non_cognate,1,REAL,FALSA
,,,,,,,,,5ea6d2afae702d06452f2ea5,001,2025-04-30_14h40.16.977,empathy_intonation_perc,2024.1.4,Win32,59.95203837,,,,,,,,,,,,,,17,clan,,,,,,212.368,213.819,1,0,0.927,,0,79,79,16,1,three_way_cognate,1,REAL,FALSA
,,,,,,,,,5ea6d2afae702d06452f2ea5,001,2025-04-30_14h40.16.977,empathy_intonation_perc,2024.1.4,Win32,59.95203837,,,,,,,,,,,,,,87,muleta,,,,,,213.821,215.554,1,0,1.204,,0,80,80,86,1,non_cognate,1,REAL,FALSA
,,,,,,,,,5ea6d2afae702d06452f2ea5,001,2025-04-30_14h40.16.977,empathy_intonation_perc,2024.1.4,Win32,59.95203837,,,,,,,,,,,,,,166,anfia,,,,,,215.555,216.655,0,1,0.559,,0,81,81,165,1,pseudoword,0,REAL,FALSA
,,,,,,,,,5ea6d2afae702d06452f2ea5,001,2025-04-30_14h40.16.977,empathy_intonation_perc,2024.1.4,Win32,59.95203837,,,,,,,,,,,,,,176,gripar,,,,,,216.656,218.34,1,0,1.147,,0,82,82,175,1,pseudoword,0,REAL,FALSA
,,,,,,,,,5ea6d2afae702d06452f2ea5,001,2025-04-30_14h40.16.977,empathy_intonation_perc,2024.1.4,Win32,59.95203837,,,,,,,,,,,,,,89,muñeca,,,,,,218.342,219.641,1,0,0.762,,0,83,83,88,1,non_cognate,1,REAL,FALSA
,,,,,,,,,5ea6d2afae702d06452f2ea5,001,2025-04-30_14h40.16.977,empathy_intonation_perc,2024.1.4,Win32,59.95203837,,,,,,,,,,,,,,133,conso,,,,,,219.642,220.726,0,1,0.565,,0,84,84,132,1,pseudoword,0,REAL,FALSA
,,,,,,,,,5ea6d2afae702d06452f2ea5,001,2025-04-30_14h40.16.977,empathy_intonation_perc,2024.1.4,Win32,59.95203837,,,,,,,,,,,,,,131,fuar,,,,,,220.726,222.127,0,1,0.869,,0,85,85,130,1,pseudoword,0,REAL,FALSA
,,,,,,,,,5ea6d2afae702d06452f2ea5,001,2025-04-30_14h40.16.977,empathy_intonation_perc,2024.1.4,Win32,59.95203837,,,,,,,,,,,,,,121,barbs,,,,,,222.128,223.429,0,1,0.76,,0,86,86,120,1,pseudoword,0,REAL,FALSA
,,,,,,,,,5ea6d2afae702d06452f2ea5,001,2025-04-30_14h40.16.977,empathy_intonation_perc,2024.1.4,Win32,59.95203837,,,,,,,,,,,,,,15,test,,,,,,223.429,224.796,1,0,0.856,,0,87,87,14,1,three_way_cognate,1,REAL,FALSA
,,,,,,,,,5ea6d2afae702d06452f2ea5,001,2025-04-30_14h40.16.977,empathy_intonation_perc,2024.1.4,Win32,59.95203837,,,,,,,,,,,,,,13,plan,,,,,,224.798,225.998,1,0,0.653,,0,88,88,12,1,three_way_cognate,1,REAL,FALSA
,,,,,,,,,5ea6d2afae702d06452f2ea5,001,2025-04-30_14h40.16.977,empathy_intonation_perc,2024.1.4,Win32,59.95203837,,,,,,,,,,,,,,151,prías,,,,,,225.999,227.432,0,1,0.9,,0,89,89,150,1,pseudoword,0,REAL,FALSA
,,,,,,,,,5ea6d2afae702d06452f2ea5,001,2025-04-30_14h40.16.977,empathy_intonation_perc,2024.1.4,Win32,59.95203837,,,,,,,,,,,,,,129,vinzó,,,,,,227.433,228.517,0,1,0.558,,0,90,90,128,1,pseudoword,0,REAL,FALSA
,,,,,,,,,5ea6d2afae702d06452f2ea5,001,2025-04-30_14h40.16.977,empathy_intonation_perc,2024.1.4,Win32,59.95203837,,,,,,,,,,,,,,27,piano,,,,,,228.518,229.668,1,0,0.615,,0,91,91,26,1,two_way_cognate,1,REAL,FALSA
,,,,,,,,,5ea6d2afae702d06452f2ea5,001,2025-04-30_14h40.16.977,empathy_intonation_perc,2024.1.4,Win32,59.95203837,,,,,,,,,,,,,,29,clamor,,,,,,229.67,231.303,0,1,1.099,,0,92,92,28,1,two_way_cognate,1,REAL,FALSA
,,,,,,,,,5ea6d2afae702d06452f2ea5,001,2025-04-30_14h40.16.977,empathy_intonation_perc,2024.1.4,Win32,59.95203837,,,,,,,,,,,,,,40,pelvis,,,,,,231.303,232.404,0,1,0.573,,0,93,93,39,1,two_way_cognate,1,REAL,FALSA
,,,,,,,,,5ea6d2afae702d06452f2ea5,001,2025-04-30_14h40.16.977,empathy_intonation_perc,2024.1.4,Win32,59.95203837,,,,,,,,,,,,,,23,plural,,,,,,232.405,233.772,1,0,0.812,,0,94,94,22,1,three_way_cognate,1,REAL,FALSA
,,,,,,,,,5ea6d2afae702d06452f2ea5,001,2025-04-30_14h40.16.977,empathy_intonation_perc,2024.1.4,Win32,59.95203837,,,,,,,,,,,,,,61,aduana,,,,,,233.773,234.856,0,1,0.548,,0,95,95,60,1,non_cognate,1,REAL,FALSA
,,,,,,,,,5ea6d2afae702d06452f2ea5,001,2025-04-30_14h40.16.977,empathy_intonation_perc,2024.1.4,Win32,59.95203837,,,,,,,,,,,,,,76,chocar,,,,,,234.857,235.924,0,1,0.545,,0,96,96,75,1,non_cognate,1,REAL,FALSA
,,,,,,,,,5ea6d2afae702d06452f2ea5,001,2025-04-30_14h40.16.977,empathy_intonation_perc,2024.1.4,Win32,59.95203837,,,,,,,,,,,,,,77,suave,,,,,,235.926,237.327,0,1,0.876,,0,97,97,76,1,non_cognate,1,REAL,FALSA
,,,,,,,,,5ea6d2afae702d06452f2ea5,001,2025-04-30_14h40.16.977,empathy_intonation_perc,2024.1.4,Win32,59.95203837,,,,,,,,,,,,,,70,ánimo,,,,,,237.328,238.477,0,1,0.608,,0,98,98,69,1,non_cognate,1,REAL,FALSA
,,,,,,,,,5ea6d2afae702d06452f2ea5,001,2025-04-30_14h40.16.977,empathy_intonation_perc,2024.1.4,Win32,59.95203837,,,,,,,,,,,,,,125,ceme,,,,,,238.478,239.562,0,1,0.537,,0,99,99,124,1,pseudoword,0,REAL,FALSA
,,,,,,,,,5ea6d2afae702d06452f2ea5,001,2025-04-30_14h40.16.977,empathy_intonation_perc,2024.1.4,Win32,59.95203837,,,,,,,,,,,,,,46,mortal,,,,,,239.562,240.863,1,0,0.766,,0,100,100,45,1,two_way_cognate,1,REAL,FALSA
,,,,,,,,,5ea6d2afae702d06452f2ea5,001,2025-04-30_14h40.16.977,empathy_intonation_perc,2024.1.4,Win32,59.95203837,,,,,,,,,,,,,,112,samón,,,,,,240.863,242.03,0,1,0.637,,0,101,101,111,1,pseudoword,0,REAL,FALSA
,,,,,,,,,5ea6d2afae702d06452f2ea5,001,2025-04-30_14h40.16.977,empathy_intonation_perc,2024.1.4,Win32,59.95203837,,,,,,,,,,,,,,21,hotel,,,,,,242.031,243.949,1,0,1.369,,0,102,102,20,1,three_way_cognate,1,REAL,FALSA
,,,,,,,,,5ea6d2afae702d06452f2ea5,001,2025-04-30_14h40.16.977,empathy_intonation_perc,2024.1.4,Win32,59.95203837,,,,,,,,,,,,,,68,puñal,,,,,,243.95,245.116,0,1,0.622,,0,103,103,67,1,non_cognate,1,REAL,FALSA
,,,,,,,,,5ea6d2afae702d06452f2ea5,001,2025-04-30_14h40.16.977,empathy_intonation_perc,2024.1.4,Win32,59.95203837,,,,,,,,,,,,,,137,trugo,,,,,,245.117,246.234,0,1,0.569,,0,104,104,136,1,pseudoword,0,REAL,FALSA
,,,,,,,,,5ea6d2afae702d06452f2ea5,001,2025-04-30_14h40.16.977,empathy_intonation_perc,2024.1.4,Win32,59.95203837,,,,,,,,,,,,,,88,percha,,,,,,246.235,247.352,0,1,0.589,,0,105,105,87,1,non_cognate,1,REAL,FALSA
,,,,,,,,,5ea6d2afae702d06452f2ea5,001,2025-04-30_14h40.16.977,empathy_intonation_perc,2024.1.4,Win32,59.95203837,,,,,,,,,,,,,,41,pasta,,,,,,247.353,248.737,1,0,0.834,,0,106,106,40,1,two_way_cognate,1,REAL,FALSA
,,,,,,,,,5ea6d2afae702d06452f2ea5,001,2025-04-30_14h40.16.977,empathy_intonation_perc,2024.1.4,Win32,59.95203837,,,,,,,,,,,,,,124,lobe,,,,,,248.738,250.288,0,1,1.008,,0,107,107,123,1,pseudoword,0,REAL,FALSA
,,,,,,,,,5ea6d2afae702d06452f2ea5,001,2025-04-30_14h40.16.977,empathy_intonation_perc,2024.1.4,Win32,59.95203837,,,,,,,,,,,,,,145,rúo,,,,,,250.289,251.907,0,1,1.107,,0,108,108,144,1,pseudoword,0,REAL,FALSA
,,,,,,,,,5ea6d2afae702d06452f2ea5,001,2025-04-30_14h40.16.977,empathy_intonation_perc,2024.1.4,Win32,59.95203837,,,,,,,,,,,,,,177,entodo,,,,,,251.908,253.04,0,1,0.597,,0,109,109,176,1,pseudoword,0,REAL,FALSA
,,,,,,,,,5ea6d2afae702d06452f2ea5,001,2025-04-30_14h40.16.977,empathy_intonation_perc,2024.1.4,Win32,59.95203837,,,,,,,,,,,,,,140,chorde,,,,,,253.042,254.259,0,1,0.682,,0,110,110,139,1,pseudoword,0,REAL,FALSA
,,,,,,,,,5ea6d2afae702d06452f2ea5,001,2025-04-30_14h40.16.977,empathy_intonation_perc,2024.1.4,Win32,59.95203837,,,,,,,,,,,,,,130,dubo,,,,,,254.26,255.543,0,1,0.739,,0,111,111,129,1,pseudoword,0,REAL,FALSA
,,,,,,,,,5ea6d2afae702d06452f2ea5,001,2025-04-30_14h40.16.977,empathy_intonation_perc,2024.1.4,Win32,59.95203837,,,,,,,,,,,,,,50,sierra,,,,,,255.544,257.028,1,0,0.943,,0,112,112,49,1,non_cognate,1,REAL,FALSA
,,,,,,,,,5ea6d2afae702d06452f2ea5,001,2025-04-30_14h40.16.977,empathy_intonation_perc,2024.1.4,Win32,59.95203837,,,,,,,,,,,,,,158,babrá,,,,,,257.028,258.415,0,1,0.863,,0,113,113,157,1,pseudoword,0,REAL,FALSA
,,,,,,,,,5ea6d2afae702d06452f2ea5,001,2025-04-30_14h40.16.977,empathy_intonation_perc,2024.1.4,Win32,59.95203837,,,,,,,,,,,,,,117,morrá,,,,,,258.415,259.599,0,1,0.663,,0,114,114,116,1,pseudoword,0,REAL,FALSA
,,,,,,,,,5ea6d2afae702d06452f2ea5,001,2025-04-30_14h40.16.977,empathy_intonation_perc,2024.1.4,Win32,59.95203837,,,,,,,,,,,,,,93,tapa,,,,,,259.6,260.882,1,0,0.753,,0,115,115,92,1,non_cognate,1,REAL,FALSA
,,,,,,,,,5ea6d2afae702d06452f2ea5,001,2025-04-30_14h40.16.977,empathy_intonation_perc,2024.1.4,Win32,59.95203837,,,,,,,,,,,,,,67,llamar,,,,,,260.883,262.033,1,0,0.615,,0,116,116,66,1,non_cognate,1,REAL,FALSA
,,,,,,,,,5ea6d2afae702d06452f2ea5,001,2025-04-30_14h40.16.977,empathy_intonation_perc,2024.1.4,Win32,59.95203837,,,,,,,,,,,,,,165,chote,,,,,,262.034,263.135,0,1,0.572,,0,117,117,164,1,pseudoword,0,REAL,FALSA
,,,,,,,,,5ea6d2afae702d06452f2ea5,001,2025-04-30_14h40.16.977,empathy_intonation_perc,2024.1.4,Win32,59.95203837,,,,,,,,,,,,,,168,cobén,,,,,,263.136,264.253,0,1,0.567,,0,118,118,167,1,pseudoword,0,REAL,FALSA
,,,,,,,,,5ea6d2afae702d06452f2ea5,001,2025-04-30_14h40.16.977,empathy_intonation_perc,2024.1.4,Win32,59.95203837,,,,,,,,,,,,,,159,trcia,,,,,,264.256,265.386,0,1,0.58,,0,119,119,158,1,pseudoword,0,REAL,FALSA
,,,,,,,,,5ea6d2afae702d06452f2ea5,001,2025-04-30_14h40.16.977,empathy_intonation_perc,2024.1.4,Win32,59.95203837,,,,,,,,,,,,,,170,diabo,,,,,,265.387,267.405,0,1,1.486,,0,120,120,169,1,pseudoword,0,REAL,FALSA
,,,,,,,,,5ea6d2afae702d06452f2ea5,001,2025-04-30_14h40.16.977,empathy_intonation_perc,2024.1.4,Win32,59.95203837,,,,,,,,,,,,,,18,altar,,,,,,267.406,268.874,1,0,0.932,,0,121,121,17,1,three_way_cognate,1,REAL,FALSA
,,,,,,,,,5ea6d2afae702d06452f2ea5,001,2025-04-30_14h40.16.977,empathy_intonation_perc,2024.1.4,Win32,59.95203837,,,,,,,,,,,,,,162,cengo,,,,,,268.875,269.941,0,1,0.527,,0,122,122,161,1,pseudoword,0,REAL,FALSA
,,,,,,,,,5ea6d2afae702d06452f2ea5,001,2025-04-30_14h40.16.977,empathy_intonation_perc,2024.1.4,Win32,59.95203837,,,,,,,,,,,,,,52,blando,,,,,,269.943,271.342,0,1,0.864,,0,123,123,51,1,non_cognate,1,REAL,FALSA
,,,,,,,,,5ea6d2afae702d06452f2ea5,001,2025-04-30_14h40.16.977,empathy_intonation_perc,2024.1.4,Win32,59.95203837,,,,,,,,,,,,,,116,grigir,,,,,,271.343,272.493,0,1,0.618,,0,124,124,115,1,pseudoword,0,REAL,FALSA
,,,,,,,,,5ea6d2afae702d06452f2ea5,001,2025-04-30_14h40.16.977,empathy_intonation_perc,2024.1.4,Win32,59.95203837,,,,,,,,,,,,,,37,torso,,,,,,272.494,273.662,1,0,0.647,,0,125,125,36,1,two_way_cognate,1,REAL,FALSA
,,,,,,,,,5ea6d2afae702d06452f2ea5,001,2025-04-30_14h40.16.977,empathy_intonation_perc,2024.1.4,Win32,59.95203837,,,,,,,,,,,,,,38,halo,,,,,,273.663,275.013,0,1,0.813,,0,126,126,37,1,two_way_cognate,1,REAL,FALSA
,,,,,,,,,5ea6d2afae702d06452f2ea5,001,2025-04-30_14h40.16.977,empathy_intonation_perc,2024.1.4,Win32,59.95203837,,,,,,,,,,,,,,178,inichó,,,,,,275.013,276.381,0,1,0.844,,0,127,127,177,1,pseudoword,0,REAL,FALSA
,,,,,,,,,5ea6d2afae702d06452f2ea5,001,2025-04-30_14h40.16.977,empathy_intonation_perc,2024.1.4,Win32,59.95203837,,,,,,,,,,,,,,110,densó,,,,,,276.382,277.982,0,1,1.053,,0,128,128,109,1,pseudoword,0,REAL,FALSA
,,,,,,,,,5ea6d2afae702d06452f2ea5,001,2025-04-30_14h40.16.977,empathy_intonation_perc,2024.1.4,Win32,59.95203837,,,,,,,,,,,,,,190,asumie,,,,,,277.983,279,0,1,0.477,,0,129,129,189,1,pseudoword,0,REAL,FALSA
,,,,,,,,,5ea6d2afae702d06452f2ea5,001,2025-04-30_14h40.16.977,empathy_intonation_perc,2024.1.4,Win32,59.95203837,,,,,,,,,,,,,,84,aviso,,,,,,279.001,280.535,1,0,0.997,,0,130,130,83,1,non_cognate,1,REAL,FALSA
,,,,,,,,,5ea6d2afae702d06452f2ea5,001,2025-04-30_14h40.16.977,empathy_intonation_perc,2024.1.4,Win32,59.95203837,,,,,,,,,,,,,,174,pabea,,,,,,280.536,281.586,0,1,0.511,,0,131,131,173,1,pseudoword,0,REAL,FALSA
,,,,,,,,,5ea6d2afae702d06452f2ea5,001,2025-04-30_14h40.16.977,empathy_intonation_perc,2024.1.4,Win32,59.95203837,,,,,,,,,,,,,,157,seled,,,,,,281.587,282.687,0,1,0.567,,0,132,132,156,1,pseudoword,0,REAL,FALSA
,,,,,,,,,5ea6d2afae702d06452f2ea5,001,2025-04-30_14h40.16.977,empathy_intonation_perc,2024.1.4,Win32,59.95203837,,,,,,,,,,,,,,105,peniz,,,,,,282.688,283.771,0,1,0.546,,0,133,133,104,1,pseudoword,0,REAL,FALSA
,,,,,,,,,5ea6d2afae702d06452f2ea5,001,2025-04-30_14h40.16.977,empathy_intonation_perc,2024.1.4,Win32,59.95203837,,,,,,,,,,,,,,99,bugor,,,,,,283.772,284.973,0,1,0.674,,0,134,134,98,1,pseudoword,0,REAL,FALSA
,,,,,,,,,5ea6d2afae702d06452f2ea5,001,2025-04-30_14h40.16.977,empathy_intonation_perc,2024.1.4,Win32,59.95203837,,,,,,,,,,,,,,64,rizado,,,,,,284.974,286.241,0,1,0.734,,0,135,135,63,1,non_cognate,1,REAL,FALSA
,,,,,,,,,5ea6d2afae702d06452f2ea5,001,2025-04-30_14h40.16.977,empathy_intonation_perc,2024.1.4,Win32,59.95203837,,,,,,,,,,,,,,65,guerra,,,,,,286.241,287.575,1,0,0.814,,0,136,136,64,1,non_cognate,1,REAL,FALSA
,,,,,,,,,5ea6d2afae702d06452f2ea5,001,2025-04-30_14h40.16.977,empathy_intonation_perc,2024.1.4,Win32,59.95203837,,,,,,,,,,,,,,34,actor,,,,,,287.575,289.027,1,0,0.925,,0,137,137,33,1,two_way_cognate,1,REAL,FALSA
,,,,,,,,,5ea6d2afae702d06452f2ea5,001,2025-04-30_14h40.16.977,empathy_intonation_perc,2024.1.4,Win32,59.95203837,,,,,,,,,,,,,,172,dogue,,,,,,289.028,290.328,0,1,0.755,,0,138,138,171,1,pseudoword,0,REAL,FALSA
,,,,,,,,,5ea6d2afae702d06452f2ea5,001,2025-04-30_14h40.16.977,empathy_intonation_perc,2024.1.4,Win32,59.95203837,,,,,,,,,,,,,,191,frasis,,,,,,290.328,291.445,0,1,0.594,,0,139,139,190,1,pseudoword,0,REAL,FALSA
,,,,,,,,,5ea6d2afae702d06452f2ea5,001,2025-04-30_14h40.16.977,empathy_intonation_perc,2024.1.4,Win32,59.95203837,,,,,,,,,,,,,,72,rostro,,,,,,291.446,292.663,0,1,0.707,,0,140,140,71,1,non_cognate,1,REAL,FALSA
,,,,,,,,,5ea6d2afae702d06452f2ea5,001,2025-04-30_14h40.16.977,empathy_intonation_perc,2024.1.4,Win32,59.95203837,,,,,,,,,,,,,,95,listo,,,,,,292.665,293.983,1,0,0.786,,0,141,141,94,1,non_cognate,1,REAL,FALSA
,,,,,,,,,5ea6d2afae702d06452f2ea5,001,2025-04-30_14h40.16.977,empathy_intonation_perc,2024.1.4,Win32,59.95203837,,,,,,,,,,,,,,135,panté,,,,,,293.984,295.132,0,1,0.607,,0,142,142,134,1,pseudoword,0,REAL,FALSA
,,,,,,,,,5ea6d2afae702d06452f2ea5,001,2025-04-30_14h40.16.977,empathy_intonation_perc,2024.1.4,Win32,59.95203837,,,,,,,,,,,,,,141,virios,,,,,,295.133,296.234,0,1,0.575,,0,143,143,140,1,pseudoword,0,REAL,FALSA
,,,,,,,,,5ea6d2afae702d06452f2ea5,001,2025-04-30_14h40.16.977,empathy_intonation_perc,2024.1.4,Win32,59.95203837,,,,,,,,,,,,,,62,pegar,,,,,,296.235,297.453,0,1,0.673,,0,144,144,61,1,non_cognate,1,REAL,FALSA
,,,,,,,,,5ea6d2afae702d06452f2ea5,001,2025-04-30_14h40.16.977,empathy_intonation_perc,2024.1.4,Win32,59.95203837,,,,,,,,,,,,,,104,estulo,,,,,,297.456,298.636,0,1,0.637,,0,145,145,103,1,pseudoword,0,REAL,FALSA
,,,,,,,,,5ea6d2afae702d06452f2ea5,001,2025-04-30_14h40.16.977,empathy_intonation_perc,2024.1.4,Win32,59.95203837,,,,,,,,,,,,,,9,portal,,,,,,298.637,300.054,1,0,0.872,,0,146,146,8,1,three_way_cognate,1,REAL,FALSA
,,,,,,,,,5ea6d2afae702d06452f2ea5,001,2025-04-30_14h40.16.977,empathy_intonation_perc,2024.1.4,Win32,59.95203837,,,,,,,,,,,,,,80,cuenco,,,,,,300.055,301.255,0,1,0.668,,0,147,147,79,1,non_cognate,1,REAL,FALSA
,,,,,,,,,5ea6d2afae702d06452f2ea5,001,2025-04-30_14h40.16.977,empathy_intonation_perc,2024.1.4,Win32,59.95203837,,,,,,,,,,,,,,86,cuenco,,,,,,301.256,302.456,0,1,0.695,,0,148,148,85,1,non_cognate,1,REAL,FALSA
,,,,,,,,,5ea6d2afae702d06452f2ea5,001,2025-04-30_14h40.16.977,empathy_intonation_perc,2024.1.4,Win32,59.95203837,,,,,,,,,,,,,,108,jauda,,,,,,302.457,303.575,0,1,0.571,,0,149,149,107,1,pseudoword,0,REAL,FALSA
,,,,,,,,,5ea6d2afae702d06452f2ea5,001,2025-04-30_14h40.16.977,empathy_intonation_perc,2024.1.4,Win32,59.95203837,,,,,,,,,,,,,,55,maldad,,,,,,303.576,304.826,0,1,0.717,,0,150,150,54,1,non_cognate,1,REAL,FALSA
,,,,,,,,,5ea6d2afae702d06452f2ea5,001,2025-04-30_14h40.16.977,empathy_intonation_perc,2024.1.4,Win32,59.95203837,,,,,,,,,,,,,,119,esís,,,,,,304.827,305.993,0,1,0.631,,0,151,151,118,1,pseudoword,0,REAL,FALSA
,,,,,,,,,5ea6d2afae702d06452f2ea5,001,2025-04-30_14h40.16.977,empathy_intonation_perc,2024.1.4,Win32,59.95203837,,,,,,,,,,,,,,187,nomata,,,,,,305.994,307.027,0,1,0.512,,0,152,152,186,1,pseudoword,0,REAL,FALSA
,,,,,,,,,5ea6d2afae702d06452f2ea5,001,2025-04-30_14h40.16.977,empathy_intonation_perc,2024.1.4,Win32,59.95203837,,,,,,,,,,,,,,175,tradía,,,,,,307.029,308.195,0,1,0.635,,0,153,153,174,1,pseudoword,0,REAL,FALSA
,,,,,,,,,5ea6d2afae702d06452f2ea5,001,2025-04-30_14h40.16.977,empathy_intonation_perc,2024.1.4,Win32,59.95203837,,,,,,,,,,,,,,167,dobbo,,,,,,308.196,309.397,0,1,0.674,,0,154,154,166,1,pseudoword,0,REAL,FALSA
,,,,,,,,,5ea6d2afae702d06452f2ea5,001,2025-04-30_14h40.16.977,empathy_intonation_perc,2024.1.4,Win32,59.95203837,,,,,,,,,,,,,,154,harvé,,,,,,309.398,310.548,0,1,0.615,,0,155,155,153,1,pseudoword,0,REAL,FALSA
,,,,,,,,,5ea6d2afae702d06452f2ea5,001,2025-04-30_14h40.16.977,empathy_intonation_perc,2024.1.4,Win32,59.95203837,,,,,,,,,,,,,,142,parre,,,,,,310.548,311.666,0,1,0.584,,0,156,156,141,1,pseudoword,0,REAL,FALSA
,,,,,,,,,5ea6d2afae702d06452f2ea5,001,2025-04-30_14h40.16.977,empathy_intonation_perc,2024.1.4,Win32,59.95203837,,,,,,,,,,,,,,181,gravés,,,,,,311.666,312.951,0,1,0.764,,0,157,157,180,1,pseudoword,0,REAL,FALSA
,,,,,,,,,5ea6d2afae702d06452f2ea5,001,2025-04-30_14h40.16.977,empathy_intonation_perc,2024.1.4,Win32,59.95203837,,,,,,,,,,,,,,6,horror,,,,,,312.951,314.169,1,0,0.668,,0,158,158,5,1,three_way_cognate,1,REAL,FALSA
,,,,,,,,,5ea6d2afae702d06452f2ea5,001,2025-04-30_14h40.16.977,empathy_intonation_perc,2024.1.4,Win32,59.95203837,,,,,,,,,,,,,,92,flecha,,,,,,314.169,316.07,1,0,1.352,,0,159,159,91,1,non_cognate,1,REAL,FALSA
,,,,,,,,,5ea6d2afae702d06452f2ea5,001,2025-04-30_14h40.16.977,empathy_intonation_perc,2024.1.4,Win32,59.95203837,,,,,,,,,,,,,,42,rumor,,,,,,316.071,317.237,1,0,0.628,,0,160,160,41,1,two_way_cognate,1,REAL,FALSA
,,,,,,,,,5ea6d2afae702d06452f2ea5,001,2025-04-30_14h40.16.977,empathy_intonation_perc,2024.1.4,Win32,59.95203837,,,,,,,,,,,,,,54,tapón,,,,,,317.238,318.489,0,1,0.718,,0,161,161,53,1,non_cognate,1,REAL,FALSA
,,,,,,,,,5ea6d2afae702d06452f2ea5,001,2025-04-30_14h40.16.977,empathy_intonation_perc,2024.1.4,Win32,59.95203837,,,,,,,,,,,,,,57,regalo,,,,,,318.49,319.674,1,0,0.648,,0,162,162,56,1,non_cognate,1,REAL,FALSA
,,,,,,,,,5ea6d2afae702d06452f2ea5,001,2025-04-30_14h40.16.977,empathy_intonation_perc,2024.1.4,Win32,59.95203837,,,,,,,,,,,,,,109,laras,,,,,,319.675,320.791,0,1,0.574,,0,163,163,108,1,pseudoword,0,REAL,FALSA
,,,,,,,,,5ea6d2afae702d06452f2ea5,001,2025-04-30_14h40.16.977,empathy_intonation_perc,2024.1.4,Win32,59.95203837,,,,,,,,,,,,,,14,aura,,,,,,320.792,322.043,1,0,0.716,,0,164,164,13,1,three_way_cognate,1,REAL,FALSA
,,,,,,,,,5ea6d2afae702d06452f2ea5,001,2025-04-30_14h40.16.977,empathy_intonation_perc,2024.1.4,Win32,59.95203837,,,,,,,,,,,,,,31,civil,,,,,,322.043,323.244,1,0,0.689,,0,165,165,30,1,two_way_cognate,1,REAL,FALSA
,,,,,,,,,5ea6d2afae702d06452f2ea5,001,2025-04-30_14h40.16.977,empathy_intonation_perc,2024.1.4,Win32,59.95203837,,,,,,,,,,,,,,66,aleta,,,,,,323.245,324.979,0,1,1.187,,0,166,166,65,1,non_cognate,1,REAL,FALSA
,,,,,,,,,5ea6d2afae702d06452f2ea5,001,2025-04-30_14h40.16.977,empathy_intonation_perc,2024.1.4,Win32,59.95203837,,,,,,,,,,,,,,98,martir,,,,,,324.98,326.514,0,1,0.989,,0,167,167,97,1,pseudoword,0,REAL,FALSA
,,,,,,,,,5ea6d2afae702d06452f2ea5,001,2025-04-30_14h40.16.977,empathy_intonation_perc,2024.1.4,Win32,59.95203837,,,,,,,,,,,,,,20,trauma,,,,,,326.515,327.865,1,0,0.804,,0,168,168,19,1,three_way_cognate,1,REAL,FALSA
,,,,,,,,,5ea6d2afae702d06452f2ea5,001,2025-04-30_14h40.16.977,empathy_intonation_perc,2024.1.4,Win32,59.95203837,,,,,,,,,,,,,,79,suelo,,,,,,327.865,328.966,0,1,0.573,,0,169,169,78,1,non_cognate,1,REAL,FALSA
,,,,,,,,,5ea6d2afae702d06452f2ea5,001,2025-04-30_14h40.16.977,empathy_intonation_perc,2024.1.4,Win32,59.95203837,,,,,,,,,,,,,,53,punta,,,,,,328.967,330.285,1,0,0.8,,0,170,170,52,1,non_cognate,1,REAL,FALSA
,,,,,,,,,5ea6d2afae702d06452f2ea5,001,2025-04-30_14h40.16.977,empathy_intonation_perc,2024.1.4,Win32,59.95203837,,,,,,,,,,,,,,25,vigor,,,,,,330.288,333.12,1,0,2.296,,0,171,171,24,1,two_way_cognate,1,REAL,FALSA
,,,,,,,,,5ea6d2afae702d06452f2ea5,001,2025-04-30_14h40.16.977,empathy_intonation_perc,2024.1.4,Win32,59.95203837,,,,,,,,,,,,,,161,civas,,,,,,333.122,334.24,0,1,0.585,,0,172,172,160,1,pseudoword,0,REAL,FALSA
,,,,,,,,,5ea6d2afae702d06452f2ea5,001,2025-04-30_14h40.16.977,empathy_intonation_perc,2024.1.4,Win32,59.95203837,,,,,,,,,,,,,,4,flora,,,,,,334.241,335.406,1,0,0.624,,0,173,173,3,1,three_way_cognate,1,REAL,FALSA
,,,,,,,,,5ea6d2afae702d06452f2ea5,001,2025-04-30_14h40.16.977,empathy_intonation_perc,2024.1.4,Win32,59.95203837,,,,,,,,,,,,,,45,total,,,,,,335.407,336.724,1,0,0.781,,0,174,174,44,1,two_way_cognate,1,REAL,FALSA
,,,,,,,,,5ea6d2afae702d06452f2ea5,001,2025-04-30_14h40.16.977,empathy_intonation_perc,2024.1.4,Win32,59.95203837,,,,,,,,,,,,,,90,venado,,,,,,336.725,337.858,0,1,0.604,,0,175,175,89,1,non_cognate,1,REAL,FALSA
,,,,,,,,,5ea6d2afae702d06452f2ea5,001,2025-04-30_14h40.16.977,empathy_intonation_perc,2024.1.4,Win32,59.95203837,,,,,,,,,,,,,,19,mafia,,,,,,337.859,339.193,1,0,0.804,,0,176,176,18,1,three_way_cognate,1,REAL,FALSA
,,,,,,,,,5ea6d2afae702d06452f2ea5,001,2025-04-30_14h40.16.977,empathy_intonation_perc,2024.1.4,Win32,59.95203837,,,,,,,,,,,,,,185,aljizo,,,,,,339.194,340.294,0,1,0.575,,0,177,177,184,1,pseudoword,0,REAL,FALSA
,,,,,,,,,5ea6d2afae702d06452f2ea5,001,2025-04-30_14h40.16.977,empathy_intonation_perc,2024.1.4,Win32,59.95203837,,,,,,,,,,,,,,152,prave,,,,,,340.295,341.428,0,1,0.587,,0,178,178,151,1,pseudoword,0,REAL,FALSA
,,,,,,,,,5ea6d2afae702d06452f2ea5,001,2025-04-30_14h40.16.977,empathy_intonation_perc,2024.1.4,Win32,59.95203837,,,,,,,,,,,,,,163,llzan,,,,,,341.43,342.53,0,1,0.557,,0,179,179,162,1,pseudoword,0,REAL,FALSA
,,,,,,,,,5ea6d2afae702d06452f2ea5,001,2025-04-30_14h40.16.977,empathy_intonation_perc,2024.1.4,Win32,59.95203837,,,,,,,,,,,,,,83,hálito,,,,,,342.531,343.698,0,1,0.641,,0,180,180,82,1,non_cognate,1,REAL,FALSA
,,,,,,,,,5ea6d2afae702d06452f2ea5,001,2025-04-30_14h40.16.977,empathy_intonation_perc,2024.1.4,Win32,59.95203837,,,,,,,,,,,,,,94,forro,,,,,,343.698,345.216,1,0,0.995,,0,181,181,93,1,non_cognate,1,REAL,FALSA
,,,,,,,,,5ea6d2afae702d06452f2ea5,001,2025-04-30_14h40.16.977,empathy_intonation_perc,2024.1.4,Win32,59.95203837,,,,,,,,,,,,,,156,ozoso,,,,,,345.216,346.368,0,1,0.629,,0,182,182,155,1,pseudoword,0,REAL,FALSA
,,,,,,,,,5ea6d2afae702d06452f2ea5,001,2025-04-30_14h40.16.977,empathy_intonation_perc,2024.1.4,Win32,59.95203837,,,,,,,,,,,,,,101,losco,,,,,,346.368,347.801,0,1,0.886,,0,183,183,100,1,pseudoword,0,REAL,FALSA
,,,,,,,,,5ea6d2afae702d06452f2ea5,001,2025-04-30_14h40.16.977,empathy_intonation_perc,2024.1.4,Win32,59.95203837,,,,,,,,,,,,,,122,boñaz,,,,,,347.802,348.969,0,1,0.645,,0,184,184,121,1,pseudoword,0,REAL,FALSA
,,,,,,,,,5ea6d2afae702d06452f2ea5,001,2025-04-30_14h40.16.977,empathy_intonation_perc,2024.1.4,Win32,59.95203837,,,,,,,,,,,,,,60,siglo,,,,,,348.97,350.337,0,1,0.841,,0,185,185,59,1,non_cognate,1,REAL,FALSA
,,,,,,,,,5ea6d2afae702d06452f2ea5,001,2025-04-30_14h40.16.977,empathy_intonation_perc,2024.1.4,Win32,59.95203837,,,,,,,,,,,,,,139,sasos,,,,,,350.338,351.472,0,1,0.589,,0,186,186,138,1,pseudoword,0,REAL,FALSA
,,,,,,,,,5ea6d2afae702d06452f2ea5,001,2025-04-30_14h40.16.977,empathy_intonation_perc,2024.1.4,Win32,59.95203837,,,,,,,,,,,,,,107,plago,,,,,,351.473,353.206,1,0,1.194,,0,187,187,106,1,pseudoword,0,REAL,FALSA
,,,,,,,,,5ea6d2afae702d06452f2ea5,001,2025-04-30_14h40.16.977,empathy_intonation_perc,2024.1.4,Win32,59.95203837,,,,,,,,,,,,,,147,alla,,,,,,353.207,354.325,0,1,0.6,,0,188,188,146,1,pseudoword,0,REAL,FALSA
,,,,,,,,,5ea6d2afae702d06452f2ea5,001,2025-04-30_14h40.16.977,empathy_intonation_perc,2024.1.4,Win32,59.95203837,,,,,,,,,,,,,,179,suelet,,,,,,354.325,355.393,0,1,0.52,,0,189,189,178,1,pseudoword,0,REAL,FALSA
,,,,,,,,,5ea6d2afae702d06452f2ea5,001,2025-04-30_14h40.16.977,empathy_intonation_perc,2024.1.4,Win32,59.95203837,,,,,,,,,,,,,,16,chat,,,,,,355.393,357.06,0,1,1.143,,0,190,190,15,1,three_way_cognate,1,REAL,FALSA
,,,,,,,,,5ea6d2afae702d06452f2ea5,001,2025-04-30_14h40.16.977,empathy_intonation_perc,2024.1.4,Win32,59.95203837,,,,,,,,,,,,,,143,hurcos,,,,,,357.061,358.262,0,1,0.658,,0,191,191,142,1,pseudoword,0,REAL,FALSA
