lextale_instructions.started,lextale_instructions.stopped,lextale_instructions_loop.thisRepN,lextale_instructions_loop.thisTrialN,lextale_instructions_loop.thisN,lextale_instructions_loop.thisIndex,lextale_instructions_loop.ran,instructions_text,continue_text,participant,session,date,expName,psychopyVersion,OS,frameRate,lextale_practice.started,lextale_practice.stopped,key_resp_lextale_practice.keys,key_resp_lextale_practice.corr,key_resp_lextale_practice.rt,key_resp_lextale_practice.duration,lextale_practice_feedback.started,lextale_practice_feedback.stopped,lextale_practice_trials.thisRepN,lextale_practice_trials.thisTrialN,lextale_practice_trials.thisN,lextale_practice_trials.thisIndex,lextale_practice_trials.ran,stim,word,correct_response,prac_button_real,prac_button_false,lextale_check.started,lextale_check.stopped,lextale_trial.started,lextale_trial.stopped,key_resp_lextale_trial.keys,key_resp_lextale_trial.corr,key_resp_lextale_trial.rt,key_resp_lextale_trial.duration,lextail_trials.thisRepN,lextail_trials.thisTrialN,lextail_trials.thisN,lextail_trials.thisIndex,lextail_trials.ran,type,correct_reponse,button_real,button_false
0.001,4.128,0,0,0,0,1,"Este es un test de vocabulario en español. 
  
  A continuación vas a ver 90 secuencias de letras que parecen 'españolas'.
  
  Solo algunas de ellas son palabras de verdad.",(presiona la barra espaciadora para continuar),5ed2edb5b7f800107d47c777,001,2025-05-08_10h27.24.027,empathy_intonation_perc,2024.1.4,Win32,143.6781609,,,,,,,,,,,,,,,,,,,,,,,,,,,,,,,,,,,
4.129,6.277,0,1,1,1,1,"Por favor, señala las palabras que tú conoces (aquellas que estás convencido que son palabras españolas, incluso aunque no seas capaz de dar el significado preciso).",(presiona la barra espaciadora para continuar),5ed2edb5b7f800107d47c777,001,2025-05-08_10h27.24.027,empathy_intonation_perc,2024.1.4,Win32,143.6781609,,,,,,,,,,,,,,,,,,,,,,,,,,,,,,,,,,,
6.278,7.355,0,2,2,2,1,Pero cuidado: los errores se penalizan. Por eso no tiene sentido tratar de incrementar tu puntuación marcando como reales palabras que nunca has visto.,(presiona la barra espaciadora para continuar),5ed2edb5b7f800107d47c777,001,2025-05-08_10h27.24.027,empathy_intonation_perc,2024.1.4,Win32,143.6781609,,,,,,,,,,,,,,,,,,,,,,,,,,,,,,,,,,,
7.355,9.198,0,3,3,3,1,"Presiona la tecla 1 si piensas que es una palabra real y la tecla 
  0 si piensas que es una palabra falsa. 
  
  Vamos a practicar un poco...",(presiona la barra espaciadora para continuar),5ed2edb5b7f800107d47c777,001,2025-05-08_10h27.24.027,empathy_intonation_perc,2024.1.4,Win32,143.6781609,,,,,,,,,,,,,,,,,,,,,,,,,,,,,,,,,,,
,,,,,,,,,5ed2edb5b7f800107d47c777,001,2025-05-08_10h27.24.027,empathy_intonation_perc,2024.1.4,Win32,143.6781609,9.202,10.646,1,0,0.927,,10.646,11.641,0,0,0,0,1,0,depiste,0,REAL,FALSA,,,,,,,,,,,,,,,,,
,,,,,,,,,5ed2edb5b7f800107d47c777,001,2025-05-08_10h27.24.027,empathy_intonation_perc,2024.1.4,Win32,143.6781609,11.642,12.372,0,0,0.215,,12.372,13.373,0,1,1,1,1,0,sí,1,REAL,FALSA,,,,,,,,,,,,,,,,,
,,,,,,,,,5ed2edb5b7f800107d47c777,001,2025-05-08_10h27.24.027,empathy_intonation_perc,2024.1.4,Win32,143.6781609,13.374,14.041,0,1,0.153,,14.042,15.043,0,2,2,2,1,0,coné,0,REAL,FALSA,,,,,,,,,,,,,,,,,
,,,,,,,,,5ed2edb5b7f800107d47c777,001,2025-05-08_10h27.24.027,empathy_intonation_perc,2024.1.4,Win32,143.6781609,15.043,15.815,1,0,0.257,,15.815,16.811,0,3,3,3,1,0,calpar,0,REAL,FALSA,,,,,,,,,,,,,,,,,
,,,,,,,,,5ed2edb5b7f800107d47c777,001,2025-05-08_10h27.24.027,empathy_intonation_perc,2024.1.4,Win32,143.6781609,16.811,17.36,1,0,0.031,,17.36,18.355,0,4,4,4,1,0,joten,0,REAL,FALSA,,,,,,,,,,,,,,,,,
,,,,,,,,,5ed2edb5b7f800107d47c777,001,2025-05-08_10h27.24.027,empathy_intonation_perc,2024.1.4,Win32,143.6781609,18.356,18.897,1,1,0.031,,18.898,19.899,0,5,5,5,1,0,sacapuntas,1,REAL,FALSA,,,,,,,,,,,,,,,,,
,,,,,,,,,5ed2edb5b7f800107d47c777,001,2025-05-08_10h27.24.027,empathy_intonation_perc,2024.1.4,Win32,143.6781609,19.899,21.145,0,1,0.728,,21.145,22.147,0,6,6,6,1,0,priba,0,REAL,FALSA,,,,,,,,,,,,,,,,,
,,,,,,,,,5ed2edb5b7f800107d47c777,001,2025-05-08_10h27.24.027,empathy_intonation_perc,2024.1.4,Win32,143.6781609,22.147,22.772,0,1,0.114,,22.772,23.767,0,7,7,7,1,0,pelasula,0,REAL,FALSA,,,,,,,,,,,,,,,,,
,,,,,,,,,5ed2edb5b7f800107d47c777,001,2025-05-08_10h27.24.027,empathy_intonation_perc,2024.1.4,Win32,143.6781609,23.768,24.317,1,1,0.037,,24.317,25.312,0,8,8,8,1,0,bien,1,REAL,FALSA,,,,,,,,,,,,,,,,,
,,,,,,,,,5ed2edb5b7f800107d47c777,001,2025-05-08_10h27.24.027,empathy_intonation_perc,2024.1.4,Win32,143.6781609,25.312,26.439,1,1,0.61,,26.439,27.434,0,9,9,9,1,0,casa,1,REAL,FALSA,,,,,,,,,,,,,,,,,
,,,,,,,,,5ed2edb5b7f800107d47c777,001,2025-05-08_10h27.24.027,empathy_intonation_perc,2024.1.4,Win32,143.6781609,27.435,28.025,0,1,0.078,,28.025,29.021,0,10,10,10,1,0,lejo,0,REAL,FALSA,,,,,,,,,,,,,,,,,
,,,,,,,,,5ed2edb5b7f800107d47c777,001,2025-05-08_10h27.24.027,empathy_intonation_perc,2024.1.4,Win32,143.6781609,29.021,29.619,0,1,0.079,,29.619,30.621,0,11,11,11,1,0,pretantas,0,REAL,FALSA,,,,,,,,,,,,,,,,,
,,,,,,,,,5ed2edb5b7f800107d47c777,001,2025-05-08_10h27.24.027,empathy_intonation_perc,2024.1.4,Win32,143.6781609,,,,,,,,,,,,,,,,,,,30.621,31.845,,,,,,,,,,,,,,,
,,,,,,,,,5ed2edb5b7f800107d47c777,001,2025-05-08_10h27.24.027,empathy_intonation_perc,2024.1.4,Win32,143.6781609,,,,,,,,,,,,,,21,hotel,,,,,,31.863,32.653,1,0,0.262,,0,0,0,20,1,three_way_cognate,1,REAL,FALSA
,,,,,,,,,5ed2edb5b7f800107d47c777,001,2025-05-08_10h27.24.027,empathy_intonation_perc,2024.1.4,Win32,143.6781609,,,,,,,,,,,,,,108,jauda,,,,,,32.655,33.765,1,0,0.593,,0,1,1,107,1,pseudoword,0,REAL,FALSA
,,,,,,,,,5ed2edb5b7f800107d47c777,001,2025-05-08_10h27.24.027,empathy_intonation_perc,2024.1.4,Win32,143.6781609,,,,,,,,,,,,,,56,pico,,,,,,33.766,34.775,0,1,0.489,,0,2,2,55,1,non_cognate,1,REAL,FALSA
,,,,,,,,,5ed2edb5b7f800107d47c777,001,2025-05-08_10h27.24.027,empathy_intonation_perc,2024.1.4,Win32,143.6781609,,,,,,,,,,,,,,53,punta,,,,,,34.775,35.727,0,1,0.425,,0,3,3,52,1,non_cognate,1,REAL,FALSA
,,,,,,,,,5ed2edb5b7f800107d47c777,001,2025-05-08_10h27.24.027,empathy_intonation_perc,2024.1.4,Win32,143.6781609,,,,,,,,,,,,,,102,coyo,,,,,,35.728,36.625,1,0,0.375,,0,4,4,101,1,pseudoword,0,REAL,FALSA
,,,,,,,,,5ed2edb5b7f800107d47c777,001,2025-05-08_10h27.24.027,empathy_intonation_perc,2024.1.4,Win32,143.6781609,,,,,,,,,,,,,,137,trugo,,,,,,36.625,37.592,0,1,0.444,,0,5,5,136,1,pseudoword,0,REAL,FALSA
,,,,,,,,,5ed2edb5b7f800107d47c777,001,2025-05-08_10h27.24.027,empathy_intonation_perc,2024.1.4,Win32,143.6781609,,,,,,,,,,,,,,72,rostro,,,,,,37.592,38.517,1,0,0.402,,0,6,6,71,1,non_cognate,1,REAL,FALSA
,,,,,,,,,5ed2edb5b7f800107d47c777,001,2025-05-08_10h27.24.027,empathy_intonation_perc,2024.1.4,Win32,143.6781609,,,,,,,,,,,,,,92,flecha,,,,,,38.517,39.38,1,0,0.348,,0,7,7,91,1,non_cognate,1,REAL,FALSA
,,,,,,,,,5ed2edb5b7f800107d47c777,001,2025-05-08_10h27.24.027,empathy_intonation_perc,2024.1.4,Win32,143.6781609,,,,,,,,,,,,,,11,golf,,,,,,39.381,40.292,0,1,0.404,,0,8,8,10,1,three_way_cognate,1,REAL,FALSA
,,,,,,,,,5ed2edb5b7f800107d47c777,001,2025-05-08_10h27.24.027,empathy_intonation_perc,2024.1.4,Win32,143.6781609,,,,,,,,,,,,,,47,color,,,,,,40.293,41.106,0,1,0.291,,0,9,9,46,1,two_way_cognate,1,REAL,FALSA
,,,,,,,,,5ed2edb5b7f800107d47c777,001,2025-05-08_10h27.24.027,empathy_intonation_perc,2024.1.4,Win32,143.6781609,,,,,,,,,,,,,,165,chote,,,,,,41.106,41.988,1,0,0.372,,0,10,10,164,1,pseudoword,0,REAL,FALSA
,,,,,,,,,5ed2edb5b7f800107d47c777,001,2025-05-08_10h27.24.027,empathy_intonation_perc,2024.1.4,Win32,143.6781609,,,,,,,,,,,,,,71,torta,,,,,,41.99,42.803,1,0,0.3,,0,11,11,70,1,non_cognate,1,REAL,FALSA
,,,,,,,,,5ed2edb5b7f800107d47c777,001,2025-05-08_10h27.24.027,empathy_intonation_perc,2024.1.4,Win32,143.6781609,,,,,,,,,,,,,,121,barbs,,,,,,42.803,43.569,0,1,0.25,,0,12,12,120,1,pseudoword,0,REAL,FALSA
,,,,,,,,,5ed2edb5b7f800107d47c777,001,2025-05-08_10h27.24.027,empathy_intonation_perc,2024.1.4,Win32,143.6781609,,,,,,,,,,,,,,104,estulo,,,,,,43.569,44.459,0,1,0.372,,0,13,13,103,1,pseudoword,0,REAL,FALSA
,,,,,,,,,5ed2edb5b7f800107d47c777,001,2025-05-08_10h27.24.027,empathy_intonation_perc,2024.1.4,Win32,143.6781609,,,,,,,,,,,,,,25,vigor,,,,,,44.459,45.28,1,0,0.303,,0,14,14,24,1,two_way_cognate,1,REAL,FALSA
,,,,,,,,,5ed2edb5b7f800107d47c777,001,2025-05-08_10h27.24.027,empathy_intonation_perc,2024.1.4,Win32,143.6781609,,,,,,,,,,,,,,30,fiscal,,,,,,45.28,46.094,1,0,0.297,,0,15,15,29,1,two_way_cognate,1,REAL,FALSA
,,,,,,,,,5ed2edb5b7f800107d47c777,001,2025-05-08_10h27.24.027,empathy_intonation_perc,2024.1.4,Win32,143.6781609,,,,,,,,,,,,,,112,samón,,,,,,46.094,46.978,1,0,0.369,,0,16,16,111,1,pseudoword,0,REAL,FALSA
,,,,,,,,,5ed2edb5b7f800107d47c777,001,2025-05-08_10h27.24.027,empathy_intonation_perc,2024.1.4,Win32,143.6781609,,,,,,,,,,,,,,55,maldad,,,,,,46.978,47.778,0,1,0.288,,0,17,17,54,1,non_cognate,1,REAL,FALSA
,,,,,,,,,5ed2edb5b7f800107d47c777,001,2025-05-08_10h27.24.027,empathy_intonation_perc,2024.1.4,Win32,143.6781609,,,,,,,,,,,,,,78,rendir,,,,,,47.778,48.641,1,0,0.342,,0,18,18,77,1,non_cognate,1,REAL,FALSA
,,,,,,,,,5ed2edb5b7f800107d47c777,001,2025-05-08_10h27.24.027,empathy_intonation_perc,2024.1.4,Win32,143.6781609,,,,,,,,,,,,,,111,monue,,,,,,48.641,49.427,0,1,0.272,,0,19,19,110,1,pseudoword,0,REAL,FALSA
,,,,,,,,,5ed2edb5b7f800107d47c777,001,2025-05-08_10h27.24.027,empathy_intonation_perc,2024.1.4,Win32,143.6781609,,,,,,,,,,,,,,44,editor,,,,,,49.427,50.212,1,0,0.271,,0,20,20,43,1,two_way_cognate,1,REAL,FALSA
,,,,,,,,,5ed2edb5b7f800107d47c777,001,2025-05-08_10h27.24.027,empathy_intonation_perc,2024.1.4,Win32,143.6781609,,,,,,,,,,,,,,182,desaro,,,,,,50.214,51.026,0,1,0.306,,0,21,21,181,1,pseudoword,0,REAL,FALSA
,,,,,,,,,5ed2edb5b7f800107d47c777,001,2025-05-08_10h27.24.027,empathy_intonation_perc,2024.1.4,Win32,143.6781609,,,,,,,,,,,,,,127,vien,,,,,,51.027,51.806,1,0,0.269,,0,22,22,126,1,pseudoword,0,REAL,FALSA
,,,,,,,,,5ed2edb5b7f800107d47c777,001,2025-05-08_10h27.24.027,empathy_intonation_perc,2024.1.4,Win32,143.6781609,,,,,,,,,,,,,,149,emén,,,,,,51.806,52.543,0,1,0.231,,0,23,23,148,1,pseudoword,0,REAL,FALSA
,,,,,,,,,5ed2edb5b7f800107d47c777,001,2025-05-08_10h27.24.027,empathy_intonation_perc,2024.1.4,Win32,143.6781609,,,,,,,,,,,,,,180,pupica,,,,,,52.543,53.483,1,0,0.416,,0,24,24,179,1,pseudoword,0,REAL,FALSA
,,,,,,,,,5ed2edb5b7f800107d47c777,001,2025-05-08_10h27.24.027,empathy_intonation_perc,2024.1.4,Win32,143.6781609,,,,,,,,,,,,,,99,bugor,,,,,,53.483,54.389,0,1,0.388,,0,25,25,98,1,pseudoword,0,REAL,FALSA
,,,,,,,,,5ed2edb5b7f800107d47c777,001,2025-05-08_10h27.24.027,empathy_intonation_perc,2024.1.4,Win32,143.6781609,,,,,,,,,,,,,,167,dobbo,,,,,,54.389,55.347,1,0,0.437,,0,26,26,166,1,pseudoword,0,REAL,FALSA
,,,,,,,,,5ed2edb5b7f800107d47c777,001,2025-05-08_10h27.24.027,empathy_intonation_perc,2024.1.4,Win32,143.6781609,,,,,,,,,,,,,,140,chorde,,,,,,55.348,56.286,0,1,0.427,,0,27,27,139,1,pseudoword,0,REAL,FALSA
,,,,,,,,,5ed2edb5b7f800107d47c777,001,2025-05-08_10h27.24.027,empathy_intonation_perc,2024.1.4,Win32,143.6781609,,,,,,,,,,,,,,142,parre,,,,,,56.287,57.156,1,0,0.348,,0,28,28,141,1,pseudoword,0,REAL,FALSA
,,,,,,,,,5ed2edb5b7f800107d47c777,001,2025-05-08_10h27.24.027,empathy_intonation_perc,2024.1.4,Win32,143.6781609,,,,,,,,,,,,,,164,tecia,,,,,,57.156,58.165,0,1,0.495,,0,29,29,163,1,pseudoword,0,REAL,FALSA
,,,,,,,,,5ed2edb5b7f800107d47c777,001,2025-05-08_10h27.24.027,empathy_intonation_perc,2024.1.4,Win32,143.6781609,,,,,,,,,,,,,,82,brillo,,,,,,58.165,58.986,1,0,0.306,,0,30,30,81,1,non_cognate,1,REAL,FALSA
,,,,,,,,,5ed2edb5b7f800107d47c777,001,2025-05-08_10h27.24.027,empathy_intonation_perc,2024.1.4,Win32,143.6781609,,,,,,,,,,,,,,181,gravés,,,,,,58.986,59.752,1,0,0.245,,0,31,31,180,1,pseudoword,0,REAL,FALSA
,,,,,,,,,5ed2edb5b7f800107d47c777,001,2025-05-08_10h27.24.027,empathy_intonation_perc,2024.1.4,Win32,143.6781609,,,,,,,,,,,,,,84,aviso,,,,,,59.752,60.489,0,1,0.221,,0,32,32,83,1,non_cognate,1,REAL,FALSA
,,,,,,,,,5ed2edb5b7f800107d47c777,001,2025-05-08_10h27.24.027,empathy_intonation_perc,2024.1.4,Win32,143.6781609,,,,,,,,,,,,,,133,conso,,,,,,60.489,61.135,0,1,0.127,,0,33,33,132,1,pseudoword,0,REAL,FALSA
,,,,,,,,,5ed2edb5b7f800107d47c777,001,2025-05-08_10h27.24.027,empathy_intonation_perc,2024.1.4,Win32,143.6781609,,,,,,,,,,,,,,80,cuenco,,,,,,61.137,61.686,1,0,0.036,,0,34,34,79,1,non_cognate,1,REAL,FALSA
,,,,,,,,,5ed2edb5b7f800107d47c777,001,2025-05-08_10h27.24.027,empathy_intonation_perc,2024.1.4,Win32,143.6781609,,,,,,,,,,,,,,132,nocó,,,,,,61.686,62.319,1,0,0.118,,0,35,35,131,1,pseudoword,0,REAL,FALSA
,,,,,,,,,5ed2edb5b7f800107d47c777,001,2025-05-08_10h27.24.027,empathy_intonation_perc,2024.1.4,Win32,143.6781609,,,,,,,,,,,,,,86,cuenco,,,,,,62.319,62.944,0,1,0.116,,0,36,36,85,1,non_cognate,1,REAL,FALSA
,,,,,,,,,5ed2edb5b7f800107d47c777,001,2025-05-08_10h27.24.027,empathy_intonation_perc,2024.1.4,Win32,143.6781609,,,,,,,,,,,,,,124,lobe,,,,,,62.945,63.578,0,1,0.119,,0,37,37,123,1,pseudoword,0,REAL,FALSA
,,,,,,,,,5ed2edb5b7f800107d47c777,001,2025-05-08_10h27.24.027,empathy_intonation_perc,2024.1.4,Win32,143.6781609,,,,,,,,,,,,,,126,tobre,,,,,,63.578,64.155,1,0,0.06,,0,38,38,125,1,pseudoword,0,REAL,FALSA
,,,,,,,,,5ed2edb5b7f800107d47c777,001,2025-05-08_10h27.24.027,empathy_intonation_perc,2024.1.4,Win32,143.6781609,,,,,,,,,,,,,,19,mafia,,,,,,64.156,64.768,1,0,0.098,,0,39,39,18,1,three_way_cognate,1,REAL,FALSA
,,,,,,,,,5ed2edb5b7f800107d47c777,001,2025-05-08_10h27.24.027,empathy_intonation_perc,2024.1.4,Win32,143.6781609,,,,,,,,,,,,,,18,altar,,,,,,64.77,65.38,0,1,0.097,,0,40,40,17,1,three_way_cognate,1,REAL,FALSA
,,,,,,,,,5ed2edb5b7f800107d47c777,001,2025-05-08_10h27.24.027,empathy_intonation_perc,2024.1.4,Win32,143.6781609,,,,,,,,,,,,,,89,muñeca,,,,,,65.381,65.961,0,1,0.063,,0,41,41,88,1,non_cognate,1,REAL,FALSA
,,,,,,,,,5ed2edb5b7f800107d47c777,001,2025-05-08_10h27.24.027,empathy_intonation_perc,2024.1.4,Win32,143.6781609,,,,,,,,,,,,,,59,feo,,,,,,65.962,66.549,1,0,0.076,,0,42,42,58,1,non_cognate,1,REAL,FALSA
,,,,,,,,,5ed2edb5b7f800107d47c777,001,2025-05-08_10h27.24.027,empathy_intonation_perc,2024.1.4,Win32,143.6781609,,,,,,,,,,,,,,49,teñir,,,,,,66.549,67.203,1,0,0.134,,0,43,43,48,1,non_cognate,1,REAL,FALSA
,,,,,,,,,5ed2edb5b7f800107d47c777,001,2025-05-08_10h27.24.027,empathy_intonation_perc,2024.1.4,Win32,143.6781609,,,,,,,,,,,,,,157,seled,,,,,,67.204,67.731,0,1,0.013,,0,44,44,156,1,pseudoword,0,REAL,FALSA
,,,,,,,,,5ed2edb5b7f800107d47c777,001,2025-05-08_10h27.24.027,empathy_intonation_perc,2024.1.4,Win32,143.6781609,,,,,,,,,,,,,,7,albino,,,,,,67.732,68.253,1,0,0.017,,0,45,45,6,1,three_way_cognate,1,REAL,FALSA
,,,,,,,,,5ed2edb5b7f800107d47c777,001,2025-05-08_10h27.24.027,empathy_intonation_perc,2024.1.4,Win32,143.6781609,,,,,,,,,,,,,,97,nocita,,,,,,68.253,68.769,0,1,0.005,,0,46,46,96,1,pseudoword,0,REAL,FALSA
,,,,,,,,,5ed2edb5b7f800107d47c777,001,2025-05-08_10h27.24.027,empathy_intonation_perc,2024.1.4,Win32,143.6781609,,,,,,,,,,,,,,183,edioso,,,,,,68.769,69.304,1,0,0.015,,0,47,47,182,1,pseudoword,0,REAL,FALSA
,,,,,,,,,5ed2edb5b7f800107d47c777,001,2025-05-08_10h27.24.027,empathy_intonation_perc,2024.1.4,Win32,143.6781609,,,,,,,,,,,,,,125,ceme,,,,,,69.304,69.846,0,1,0.028,,0,48,48,124,1,pseudoword,0,REAL,FALSA
,,,,,,,,,5ed2edb5b7f800107d47c777,001,2025-05-08_10h27.24.027,empathy_intonation_perc,2024.1.4,Win32,143.6781609,,,,,,,,,,,,,,156,ozoso,,,,,,69.846,70.355,0,1,0,,0,49,49,155,1,pseudoword,0,REAL,FALSA
,,,,,,,,,5ed2edb5b7f800107d47c777,001,2025-05-08_10h27.24.027,empathy_intonation_perc,2024.1.4,Win32,143.6781609,,,,,,,,,,,,,,134,molor,,,,,,70.356,70.876,1,0,0.007,,0,50,50,133,1,pseudoword,0,REAL,FALSA
,,,,,,,,,5ed2edb5b7f800107d47c777,001,2025-05-08_10h27.24.027,empathy_intonation_perc,2024.1.4,Win32,143.6781609,,,,,,,,,,,,,,107,plago,,,,,,70.876,71.433,1,0,0.042,,0,51,51,106,1,pseudoword,0,REAL,FALSA
,,,,,,,,,5ed2edb5b7f800107d47c777,001,2025-05-08_10h27.24.027,empathy_intonation_perc,2024.1.4,Win32,143.6781609,,,,,,,,,,,,,,131,fuar,,,,,,71.433,71.947,0,1,0.001,,0,52,52,130,1,pseudoword,0,REAL,FALSA
,,,,,,,,,5ed2edb5b7f800107d47c777,001,2025-05-08_10h27.24.027,empathy_intonation_perc,2024.1.4,Win32,143.6781609,,,,,,,,,,,,,,42,rumor,,,,,,71.948,72.532,0,1,0.075,,0,53,53,41,1,two_way_cognate,1,REAL,FALSA
,,,,,,,,,5ed2edb5b7f800107d47c777,001,2025-05-08_10h27.24.027,empathy_intonation_perc,2024.1.4,Win32,143.6781609,,,,,,,,,,,,,,63,hilo,,,,,,72.533,73.117,1,0,0.074,,0,54,54,62,1,non_cognate,1,REAL,FALSA
,,,,,,,,,5ed2edb5b7f800107d47c777,001,2025-05-08_10h27.24.027,empathy_intonation_perc,2024.1.4,Win32,143.6781609,,,,,,,,,,,,,,17,clan,,,,,,73.117,73.931,1,0,0.292,,0,55,55,16,1,three_way_cognate,1,REAL,FALSA
,,,,,,,,,5ed2edb5b7f800107d47c777,001,2025-05-08_10h27.24.027,empathy_intonation_perc,2024.1.4,Win32,143.6781609,,,,,,,,,,,,,,81,sacar,,,,,,73.931,74.494,0,1,0.046,,0,56,56,80,1,non_cognate,1,REAL,FALSA
,,,,,,,,,5ed2edb5b7f800107d47c777,001,2025-05-08_10h27.24.027,empathy_intonation_perc,2024.1.4,Win32,143.6781609,,,,,,,,,,,,,,20,trauma,,,,,,74.494,75.064,1,0,0.054,,0,57,57,19,1,three_way_cognate,1,REAL,FALSA
,,,,,,,,,5ed2edb5b7f800107d47c777,001,2025-05-08_10h27.24.027,empathy_intonation_perc,2024.1.4,Win32,143.6781609,,,,,,,,,,,,,,145,rúo,,,,,,75.065,75.656,1,0,0.082,,0,58,58,144,1,pseudoword,0,REAL,FALSA
,,,,,,,,,5ed2edb5b7f800107d47c777,001,2025-05-08_10h27.24.027,empathy_intonation_perc,2024.1.4,Win32,143.6781609,,,,,,,,,,,,,,37,torso,,,,,,75.656,76.56,0,1,0.391,,0,59,59,36,1,two_way_cognate,1,REAL,FALSA
,,,,,,,,,5ed2edb5b7f800107d47c777,001,2025-05-08_10h27.24.027,empathy_intonation_perc,2024.1.4,Win32,143.6781609,,,,,,,,,,,,,,51,listo,,,,,,76.561,77.187,0,1,0.11,,0,60,60,50,1,non_cognate,1,REAL,FALSA
,,,,,,,,,5ed2edb5b7f800107d47c777,001,2025-05-08_10h27.24.027,empathy_intonation_perc,2024.1.4,Win32,143.6781609,,,,,,,,,,,,,,169,pitis,,,,,,77.187,77.876,1,0,0.174,,0,61,61,168,1,pseudoword,0,REAL,FALSA
,,,,,,,,,5ed2edb5b7f800107d47c777,001,2025-05-08_10h27.24.027,empathy_intonation_perc,2024.1.4,Win32,143.6781609,,,,,,,,,,,,,,9,portal,,,,,,77.876,78.502,0,1,0.112,,0,62,62,8,1,three_way_cognate,1,REAL,FALSA
,,,,,,,,,5ed2edb5b7f800107d47c777,001,2025-05-08_10h27.24.027,empathy_intonation_perc,2024.1.4,Win32,143.6781609,,,,,,,,,,,,,,141,virios,,,,,,78.502,79.018,1,0,0,,0,63,63,140,1,pseudoword,0,REAL,FALSA
,,,,,,,,,5ed2edb5b7f800107d47c777,001,2025-05-08_10h27.24.027,empathy_intonation_perc,2024.1.4,Win32,143.6781609,,,,,,,,,,,,,,4,flora,,,,,,79.018,79.685,1,0,0.146,,0,64,64,3,1,three_way_cognate,1,REAL,FALSA
,,,,,,,,,5ed2edb5b7f800107d47c777,001,2025-05-08_10h27.24.027,empathy_intonation_perc,2024.1.4,Win32,143.6781609,,,,,,,,,,,,,,136,hueas,,,,,,79.685,80.276,0,1,0.077,,0,65,65,135,1,pseudoword,0,REAL,FALSA
,,,,,,,,,5ed2edb5b7f800107d47c777,001,2025-05-08_10h27.24.027,empathy_intonation_perc,2024.1.4,Win32,143.6781609,,,,,,,,,,,,,,122,boñaz,,,,,,80.276,80.881,1,0,0.091,,0,66,66,121,1,pseudoword,0,REAL,FALSA
,,,,,,,,,5ed2edb5b7f800107d47c777,001,2025-05-08_10h27.24.027,empathy_intonation_perc,2024.1.4,Win32,143.6781609,,,,,,,,,,,,,,144,diroco,,,,,,80.881,81.507,0,1,0.11,,0,67,67,143,1,pseudoword,0,REAL,FALSA
,,,,,,,,,5ed2edb5b7f800107d47c777,001,2025-05-08_10h27.24.027,empathy_intonation_perc,2024.1.4,Win32,143.6781609,,,,,,,,,,,,,,13,plan,,,,,,81.508,82.077,1,0,0.049,,0,68,68,12,1,three_way_cognate,1,REAL,FALSA
,,,,,,,,,5ed2edb5b7f800107d47c777,001,2025-05-08_10h27.24.027,empathy_intonation_perc,2024.1.4,Win32,143.6781609,,,,,,,,,,,,,,113,nasce,,,,,,82.077,82.62,1,0,0.021,,0,69,69,112,1,pseudoword,0,REAL,FALSA
,,,,,,,,,5ed2edb5b7f800107d47c777,001,2025-05-08_10h27.24.027,empathy_intonation_perc,2024.1.4,Win32,143.6781609,,,,,,,,,,,,,,69,tiza,,,,,,82.62,83.156,0,1,0.028,,0,70,70,68,1,non_cognate,1,REAL,FALSA
,,,,,,,,,5ed2edb5b7f800107d47c777,001,2025-05-08_10h27.24.027,empathy_intonation_perc,2024.1.4,Win32,143.6781609,,,,,,,,,,,,,,76,chocar,,,,,,83.156,83.719,1,0,0.05,,0,71,71,75,1,non_cognate,1,REAL,FALSA
,,,,,,,,,5ed2edb5b7f800107d47c777,001,2025-05-08_10h27.24.027,empathy_intonation_perc,2024.1.4,Win32,143.6781609,,,,,,,,,,,,,,23,plural,,,,,,83.72,84.304,1,0,0.065,,0,72,72,22,1,three_way_cognate,1,REAL,FALSA
,,,,,,,,,5ed2edb5b7f800107d47c777,001,2025-05-08_10h27.24.027,empathy_intonation_perc,2024.1.4,Win32,143.6781609,,,,,,,,,,,,,,160,fomeó,,,,,,84.305,84.867,1,0,0.051,,0,73,73,159,1,pseudoword,0,REAL,FALSA
,,,,,,,,,5ed2edb5b7f800107d47c777,001,2025-05-08_10h27.24.027,empathy_intonation_perc,2024.1.4,Win32,143.6781609,,,,,,,,,,,,,,32,animal,,,,,,84.868,85.396,0,1,0.007,,0,74,74,31,1,two_way_cognate,1,REAL,FALSA
,,,,,,,,,5ed2edb5b7f800107d47c777,001,2025-05-08_10h27.24.027,empathy_intonation_perc,2024.1.4,Win32,143.6781609,,,,,,,,,,,,,,110,densó,,,,,,85.396,85.918,1,0,0.009,,0,75,75,109,1,pseudoword,0,REAL,FALSA
,,,,,,,,,5ed2edb5b7f800107d47c777,001,2025-05-08_10h27.24.027,empathy_intonation_perc,2024.1.4,Win32,143.6781609,,,,,,,,,,,,,,175,tradía,,,,,,85.918,86.537,0,1,0.108,,0,76,76,174,1,pseudoword,0,REAL,FALSA
,,,,,,,,,5ed2edb5b7f800107d47c777,001,2025-05-08_10h27.24.027,empathy_intonation_perc,2024.1.4,Win32,143.6781609,,,,,,,,,,,,,,190,asumie,,,,,,86.538,87.574,1,0,0.526,,0,77,77,189,1,pseudoword,0,REAL,FALSA
,,,,,,,,,5ed2edb5b7f800107d47c777,001,2025-05-08_10h27.24.027,empathy_intonation_perc,2024.1.4,Win32,143.6781609,,,,,,,,,,,,,,77,suave,,,,,,87.575,108.371,1,0,20.28,,0,78,78,76,1,non_cognate,1,REAL,FALSA
,,,,,,,,,5ed2edb5b7f800107d47c777,001,2025-05-08_10h27.24.027,empathy_intonation_perc,2024.1.4,Win32,143.6781609,,,,,,,,,,,,,,148,gino,,,,,,108.373,109.114,0,1,0.223,,0,79,79,147,1,pseudoword,0,REAL,FALSA
,,,,,,,,,5ed2edb5b7f800107d47c777,001,2025-05-08_10h27.24.027,empathy_intonation_perc,2024.1.4,Win32,143.6781609,,,,,,,,,,,,,,114,dibrea,,,,,,109.115,109.845,0,1,0.214,,0,80,80,113,1,pseudoword,0,REAL,FALSA
,,,,,,,,,5ed2edb5b7f800107d47c777,001,2025-05-08_10h27.24.027,empathy_intonation_perc,2024.1.4,Win32,143.6781609,,,,,,,,,,,,,,98,martir,,,,,,109.845,110.617,1,0,0.258,,0,81,81,97,1,pseudoword,0,REAL,FALSA
,,,,,,,,,5ed2edb5b7f800107d47c777,001,2025-05-08_10h27.24.027,empathy_intonation_perc,2024.1.4,Win32,143.6781609,,,,,,,,,,,,,,88,percha,,,,,,110.617,111.479,1,0,0.348,,0,82,82,87,1,non_cognate,1,REAL,FALSA
,,,,,,,,,5ed2edb5b7f800107d47c777,001,2025-05-08_10h27.24.027,empathy_intonation_perc,2024.1.4,Win32,143.6781609,,,,,,,,,,,,,,57,regalo,,,,,,111.48,112.169,1,0,0.178,,0,83,83,56,1,non_cognate,1,REAL,FALSA
,,,,,,,,,5ed2edb5b7f800107d47c777,001,2025-05-08_10h27.24.027,empathy_intonation_perc,2024.1.4,Win32,143.6781609,,,,,,,,,,,,,,174,pabea,,,,,,112.169,112.697,0,1,0.01,,0,84,84,173,1,pseudoword,0,REAL,FALSA
,,,,,,,,,5ed2edb5b7f800107d47c777,001,2025-05-08_10h27.24.027,empathy_intonation_perc,2024.1.4,Win32,143.6781609,,,,,,,,,,,,,,153,golla,,,,,,112.697,113.289,0,1,0.069,,0,85,85,152,1,pseudoword,0,REAL,FALSA
,,,,,,,,,5ed2edb5b7f800107d47c777,001,2025-05-08_10h27.24.027,empathy_intonation_perc,2024.1.4,Win32,143.6781609,,,,,,,,,,,,,,118,bará,,,,,,113.289,116.148,1,0,2.344,,0,86,86,117,1,pseudoword,0,REAL,FALSA
,,,,,,,,,5ed2edb5b7f800107d47c777,001,2025-05-08_10h27.24.027,empathy_intonation_perc,2024.1.4,Win32,143.6781609,,,,,,,,,,,,,,12,dogma,,,,,,116.149,116.893,0,1,0.226,,0,87,87,11,1,three_way_cognate,1,REAL,FALSA
,,,,,,,,,5ed2edb5b7f800107d47c777,001,2025-05-08_10h27.24.027,empathy_intonation_perc,2024.1.4,Win32,143.6781609,,,,,,,,,,,,,,129,vinzó,,,,,,116.893,117.679,1,0,0.265,,0,88,88,128,1,pseudoword,0,REAL,FALSA
,,,,,,,,,5ed2edb5b7f800107d47c777,001,2025-05-08_10h27.24.027,empathy_intonation_perc,2024.1.4,Win32,143.6781609,,,,,,,,,,,,,,48,pelvis,,,,,,117.68,118.577,1,0,0.387,,0,89,89,47,1,two_way_cognate,1,REAL,FALSA
,,,,,,,,,5ed2edb5b7f800107d47c777,001,2025-05-08_10h27.24.027,empathy_intonation_perc,2024.1.4,Win32,143.6781609,,,,,,,,,,,,,,117,morrá,,,,,,118.577,119.397,0,1,0.301,,0,90,90,116,1,pseudoword,0,REAL,FALSA
,,,,,,,,,5ed2edb5b7f800107d47c777,001,2025-05-08_10h27.24.027,empathy_intonation_perc,2024.1.4,Win32,143.6781609,,,,,,,,,,,,,,159,trcia,,,,,,119.397,120.197,0,1,0.289,,0,91,91,158,1,pseudoword,0,REAL,FALSA
,,,,,,,,,5ed2edb5b7f800107d47c777,001,2025-05-08_10h27.24.027,empathy_intonation_perc,2024.1.4,Win32,143.6781609,,,,,,,,,,,,,,186,rizate,,,,,,120.198,120.991,1,0,0.272,,0,92,92,185,1,pseudoword,0,REAL,FALSA
,,,,,,,,,5ed2edb5b7f800107d47c777,001,2025-05-08_10h27.24.027,empathy_intonation_perc,2024.1.4,Win32,143.6781609,,,,,,,,,,,,,,74,ala,,,,,,120.991,121.804,1,0,0.304,,0,93,93,73,1,non_cognate,1,REAL,FALSA
,,,,,,,,,5ed2edb5b7f800107d47c777,001,2025-05-08_10h27.24.027,empathy_intonation_perc,2024.1.4,Win32,143.6781609,,,,,,,,,,,,,,68,puñal,,,,,,121.804,122.514,0,1,0.197,,0,94,94,67,1,non_cognate,1,REAL,FALSA
,,,,,,,,,5ed2edb5b7f800107d47c777,001,2025-05-08_10h27.24.027,empathy_intonation_perc,2024.1.4,Win32,143.6781609,,,,,,,,,,,,,,43,honor,,,,,,122.515,123.237,1,0,0.21,,0,95,95,42,1,two_way_cognate,1,REAL,FALSA
,,,,,,,,,5ed2edb5b7f800107d47c777,001,2025-05-08_10h27.24.027,empathy_intonation_perc,2024.1.4,Win32,143.6781609,,,,,,,,,,,,,,166,anfia,,,,,,123.238,123.969,0,1,0.209,,0,96,96,165,1,pseudoword,0,REAL,FALSA
,,,,,,,,,5ed2edb5b7f800107d47c777,001,2025-05-08_10h27.24.027,empathy_intonation_perc,2024.1.4,Win32,143.6781609,,,,,,,,,,,,,,173,mibro,,,,,,123.969,124.719,1,0,0.242,,0,97,97,172,1,pseudoword,0,REAL,FALSA
,,,,,,,,,5ed2edb5b7f800107d47c777,001,2025-05-08_10h27.24.027,empathy_intonation_perc,2024.1.4,Win32,143.6781609,,,,,,,,,,,,,,168,cobén,,,,,,124.72,125.444,1,0,0.213,,0,98,98,167,1,pseudoword,0,REAL,FALSA
,,,,,,,,,5ed2edb5b7f800107d47c777,001,2025-05-08_10h27.24.027,empathy_intonation_perc,2024.1.4,Win32,143.6781609,,,,,,,,,,,,,,115,lidena,,,,,,125.444,126.167,0,1,0.208,,0,99,99,114,1,pseudoword,0,REAL,FALSA
,,,,,,,,,5ed2edb5b7f800107d47c777,001,2025-05-08_10h27.24.027,empathy_intonation_perc,2024.1.4,Win32,143.6781609,,,,,,,,,,,,,,138,tator,,,,,,126.167,126.89,0,1,0.202,,0,100,100,137,1,pseudoword,0,REAL,FALSA
,,,,,,,,,5ed2edb5b7f800107d47c777,001,2025-05-08_10h27.24.027,empathy_intonation_perc,2024.1.4,Win32,143.6781609,,,,,,,,,,,,,,96,caro,,,,,,126.891,127.663,1,0,0.253,,0,101,101,95,1,non_cognate,1,REAL,FALSA
,,,,,,,,,5ed2edb5b7f800107d47c777,001,2025-05-08_10h27.24.027,empathy_intonation_perc,2024.1.4,Win32,143.6781609,,,,,,,,,,,,,,2,tumor,,,,,,127.665,128.407,1,0,0.227,,0,102,102,1,1,three_way_cognate,1,REAL,FALSA
,,,,,,,,,5ed2edb5b7f800107d47c777,001,2025-05-08_10h27.24.027,empathy_intonation_perc,2024.1.4,Win32,143.6781609,,,,,,,,,,,,,,109,laras,,,,,,128.408,129.116,0,1,0.201,,0,103,103,108,1,pseudoword,0,REAL,FALSA
,,,,,,,,,5ed2edb5b7f800107d47c777,001,2025-05-08_10h27.24.027,empathy_intonation_perc,2024.1.4,Win32,143.6781609,,,,,,,,,,,,,,152,prave,,,,,,129.117,129.819,1,0,0.194,,0,104,104,151,1,pseudoword,0,REAL,FALSA
,,,,,,,,,5ed2edb5b7f800107d47c777,001,2025-05-08_10h27.24.027,empathy_intonation_perc,2024.1.4,Win32,143.6781609,,,,,,,,,,,,,,52,blando,,,,,,129.819,130.543,0,1,0.214,,0,105,105,51,1,non_cognate,1,REAL,FALSA
,,,,,,,,,5ed2edb5b7f800107d47c777,001,2025-05-08_10h27.24.027,empathy_intonation_perc,2024.1.4,Win32,143.6781609,,,,,,,,,,,,,,163,llzan,,,,,,130.543,131.169,1,0,0.114,,0,106,106,162,1,pseudoword,0,REAL,FALSA
,,,,,,,,,5ed2edb5b7f800107d47c777,001,2025-05-08_10h27.24.027,empathy_intonation_perc,2024.1.4,Win32,143.6781609,,,,,,,,,,,,,,8,kilo,,,,,,131.169,131.802,0,1,0.126,,0,107,107,7,1,three_way_cognate,1,REAL,FALSA
,,,,,,,,,5ed2edb5b7f800107d47c777,001,2025-05-08_10h27.24.027,empathy_intonation_perc,2024.1.4,Win32,143.6781609,,,,,,,,,,,,,,90,venado,,,,,,131.802,132.463,0,1,0.144,,0,108,108,89,1,non_cognate,1,REAL,FALSA
,,,,,,,,,5ed2edb5b7f800107d47c777,001,2025-05-08_10h27.24.027,empathy_intonation_perc,2024.1.4,Win32,143.6781609,,,,,,,,,,,,,,184,huenos,,,,,,132.464,133.11,1,0,0.132,,0,109,109,183,1,pseudoword,0,REAL,FALSA
,,,,,,,,,5ed2edb5b7f800107d47c777,001,2025-05-08_10h27.24.027,empathy_intonation_perc,2024.1.4,Win32,143.6781609,,,,,,,,,,,,,,94,forro,,,,,,133.111,133.799,1,0,0.18,,0,110,110,93,1,non_cognate,1,REAL,FALSA
,,,,,,,,,5ed2edb5b7f800107d47c777,001,2025-05-08_10h27.24.027,empathy_intonation_perc,2024.1.4,Win32,143.6781609,,,,,,,,,,,,,,38,halo,,,,,,133.799,134.384,0,1,0.068,,0,111,111,37,1,two_way_cognate,1,REAL,FALSA
,,,,,,,,,5ed2edb5b7f800107d47c777,001,2025-05-08_10h27.24.027,empathy_intonation_perc,2024.1.4,Win32,143.6781609,,,,,,,,,,,,,,65,guerra,,,,,,134.384,135.051,1,0,0.153,,0,112,112,64,1,non_cognate,1,REAL,FALSA
,,,,,,,,,5ed2edb5b7f800107d47c777,001,2025-05-08_10h27.24.027,empathy_intonation_perc,2024.1.4,Win32,143.6781609,,,,,,,,,,,,,,151,prías,,,,,,135.052,135.65,0,1,0.094,,0,113,113,150,1,pseudoword,0,REAL,FALSA
,,,,,,,,,5ed2edb5b7f800107d47c777,001,2025-05-08_10h27.24.027,empathy_intonation_perc,2024.1.4,Win32,143.6781609,,,,,,,,,,,,,,64,rizado,,,,,,135.65,136.283,1,0,0.126,,0,114,114,63,1,non_cognate,1,REAL,FALSA
,,,,,,,,,5ed2edb5b7f800107d47c777,001,2025-05-08_10h27.24.027,empathy_intonation_perc,2024.1.4,Win32,143.6781609,,,,,,,,,,,,,,70,ánimo,,,,,,136.283,136.867,0,1,0.068,,0,115,115,69,1,non_cognate,1,REAL,FALSA
,,,,,,,,,5ed2edb5b7f800107d47c777,001,2025-05-08_10h27.24.027,empathy_intonation_perc,2024.1.4,Win32,143.6781609,,,,,,,,,,,,,,3,disco,,,,,,136.867,137.466,1,0,0.077,,0,116,116,2,1,three_way_cognate,1,REAL,FALSA
,,,,,,,,,5ed2edb5b7f800107d47c777,001,2025-05-08_10h27.24.027,empathy_intonation_perc,2024.1.4,Win32,143.6781609,,,,,,,,,,,,,,172,dogue,,,,,,137.466,138.008,1,0,0.031,,0,117,117,171,1,pseudoword,0,REAL,FALSA
,,,,,,,,,5ed2edb5b7f800107d47c777,001,2025-05-08_10h27.24.027,empathy_intonation_perc,2024.1.4,Win32,143.6781609,,,,,,,,,,,,,,39,casual,,,,,,138.009,138.926,0,1,0.408,,0,118,118,38,1,two_way_cognate,1,REAL,FALSA
,,,,,,,,,5ed2edb5b7f800107d47c777,001,2025-05-08_10h27.24.027,empathy_intonation_perc,2024.1.4,Win32,143.6781609,,,,,,,,,,,,,,87,muleta,,,,,,138.927,139.456,1,0,0.016,,0,119,119,86,1,non_cognate,1,REAL,FALSA
,,,,,,,,,5ed2edb5b7f800107d47c777,001,2025-05-08_10h27.24.027,empathy_intonation_perc,2024.1.4,Win32,143.6781609,,,,,,,,,,,,,,50,sierra,,,,,,139.456,140.04,1,0,0.07,,0,120,120,49,1,non_cognate,1,REAL,FALSA
,,,,,,,,,5ed2edb5b7f800107d47c777,001,2025-05-08_10h27.24.027,empathy_intonation_perc,2024.1.4,Win32,143.6781609,,,,,,,,,,,,,,93,tapa,,,,,,140.04,140.625,0,1,0.067,,0,121,121,92,1,non_cognate,1,REAL,FALSA
,,,,,,,,,5ed2edb5b7f800107d47c777,001,2025-05-08_10h27.24.027,empathy_intonation_perc,2024.1.4,Win32,143.6781609,,,,,,,,,,,,,,10,drama,,,,,,140.627,141.229,0,1,0.081,,0,122,122,9,1,three_way_cognate,1,REAL,FALSA
,,,,,,,,,5ed2edb5b7f800107d47c777,001,2025-05-08_10h27.24.027,empathy_intonation_perc,2024.1.4,Win32,143.6781609,,,,,,,,,,,,,,6,horror,,,,,,141.23,141.814,1,0,0.077,,0,123,123,5,1,three_way_cognate,1,REAL,FALSA
,,,,,,,,,5ed2edb5b7f800107d47c777,001,2025-05-08_10h27.24.027,empathy_intonation_perc,2024.1.4,Win32,143.6781609,,,,,,,,,,,,,,58,colcha,,,,,,141.815,142.426,1,0,0.098,,0,124,124,57,1,non_cognate,1,REAL,FALSA
,,,,,,,,,5ed2edb5b7f800107d47c777,001,2025-05-08_10h27.24.027,empathy_intonation_perc,2024.1.4,Win32,143.6781609,,,,,,,,,,,,,,35,aurora,,,,,,142.427,142.958,0,1,0.009,,0,125,125,34,1,two_way_cognate,1,REAL,FALSA
,,,,,,,,,5ed2edb5b7f800107d47c777,001,2025-05-08_10h27.24.027,empathy_intonation_perc,2024.1.4,Win32,143.6781609,,,,,,,,,,,,,,187,nomata,,,,,,142.958,143.526,1,0,0.046,,0,126,126,186,1,pseudoword,0,REAL,FALSA
,,,,,,,,,5ed2edb5b7f800107d47c777,001,2025-05-08_10h27.24.027,empathy_intonation_perc,2024.1.4,Win32,143.6781609,,,,,,,,,,,,,,54,tapón,,,,,,143.526,144.075,1,0,0.029,,0,127,127,53,1,non_cognate,1,REAL,FALSA
,,,,,,,,,5ed2edb5b7f800107d47c777,001,2025-05-08_10h27.24.027,empathy_intonation_perc,2024.1.4,Win32,143.6781609,,,,,,,,,,,,,,95,listo,,,,,,144.076,144.611,0,1,0.022,,0,128,128,94,1,non_cognate,1,REAL,FALSA
,,,,,,,,,5ed2edb5b7f800107d47c777,001,2025-05-08_10h27.24.027,empathy_intonation_perc,2024.1.4,Win32,143.6781609,,,,,,,,,,,,,,178,inichó,,,,,,144.612,145.153,0,1,0.024,,0,129,129,177,1,pseudoword,0,REAL,FALSA
,,,,,,,,,5ed2edb5b7f800107d47c777,001,2025-05-08_10h27.24.027,empathy_intonation_perc,2024.1.4,Win32,143.6781609,,,,,,,,,,,,,,22,mango,,,,,,145.154,145.738,0,1,0.069,,0,130,130,21,1,three_way_cognate,1,REAL,FALSA
,,,,,,,,,5ed2edb5b7f800107d47c777,001,2025-05-08_10h27.24.027,empathy_intonation_perc,2024.1.4,Win32,143.6781609,,,,,,,,,,,,,,91,equipo,,,,,,145.738,146.336,1,0,0.086,,0,131,131,90,1,non_cognate,1,REAL,FALSA
,,,,,,,,,5ed2edb5b7f800107d47c777,001,2025-05-08_10h27.24.027,empathy_intonation_perc,2024.1.4,Win32,143.6781609,,,,,,,,,,,,,,116,grigir,,,,,,146.337,146.886,0,1,0.037,,0,132,132,115,1,pseudoword,0,REAL,FALSA
,,,,,,,,,5ed2edb5b7f800107d47c777,001,2025-05-08_10h27.24.027,empathy_intonation_perc,2024.1.4,Win32,143.6781609,,,,,,,,,,,,,,31,civil,,,,,,146.886,147.428,1,0,0.034,,0,133,133,30,1,two_way_cognate,1,REAL,FALSA
,,,,,,,,,5ed2edb5b7f800107d47c777,001,2025-05-08_10h27.24.027,empathy_intonation_perc,2024.1.4,Win32,143.6781609,,,,,,,,,,,,,,101,losco,,,,,,147.429,147.964,1,0,0.025,,0,134,134,100,1,pseudoword,0,REAL,FALSA
,,,,,,,,,5ed2edb5b7f800107d47c777,001,2025-05-08_10h27.24.027,empathy_intonation_perc,2024.1.4,Win32,143.6781609,,,,,,,,,,,,,,155,kugis,,,,,,147.964,148.493,0,1,0.016,,0,135,135,154,1,pseudoword,0,REAL,FALSA
,,,,,,,,,5ed2edb5b7f800107d47c777,001,2025-05-08_10h27.24.027,empathy_intonation_perc,2024.1.4,Win32,143.6781609,,,,,,,,,,,,,,130,dubo,,,,,,148.493,149.071,1,0,0.058,,0,136,136,129,1,pseudoword,0,REAL,FALSA
,,,,,,,,,5ed2edb5b7f800107d47c777,001,2025-05-08_10h27.24.027,empathy_intonation_perc,2024.1.4,Win32,143.6781609,,,,,,,,,,,,,,123,arane,,,,,,149.071,149.697,0,1,0.107,,0,137,137,122,1,pseudoword,0,REAL,FALSA
,,,,,,,,,5ed2edb5b7f800107d47c777,001,2025-05-08_10h27.24.027,empathy_intonation_perc,2024.1.4,Win32,143.6781609,,,,,,,,,,,,,,24,retina,,,,,,149.697,150.316,1,0,0.104,,0,138,138,23,1,three_way_cognate,1,REAL,FALSA
,,,,,,,,,5ed2edb5b7f800107d47c777,001,2025-05-08_10h27.24.027,empathy_intonation_perc,2024.1.4,Win32,143.6781609,,,,,,,,,,,,,,106,diebro,,,,,,150.316,150.942,1,0,0.111,,0,139,139,105,1,pseudoword,0,REAL,FALSA
,,,,,,,,,5ed2edb5b7f800107d47c777,001,2025-05-08_10h27.24.027,empathy_intonation_perc,2024.1.4,Win32,143.6781609,,,,,,,,,,,,,,28,ardor,,,,,,150.943,151.52,0,1,0.061,,0,140,140,27,1,two_way_cognate,1,REAL,FALSA
,,,,,,,,,5ed2edb5b7f800107d47c777,001,2025-05-08_10h27.24.027,empathy_intonation_perc,2024.1.4,Win32,143.6781609,,,,,,,,,,,,,,16,chat,,,,,,151.52,152.111,1,0,0.075,,0,141,141,15,1,three_way_cognate,1,REAL,FALSA
,,,,,,,,,5ed2edb5b7f800107d47c777,001,2025-05-08_10h27.24.027,empathy_intonation_perc,2024.1.4,Win32,143.6781609,,,,,,,,,,,,,,79,suelo,,,,,,152.111,152.758,1,0,0.131,,0,142,142,78,1,non_cognate,1,REAL,FALSA
,,,,,,,,,5ed2edb5b7f800107d47c777,001,2025-05-08_10h27.24.027,empathy_intonation_perc,2024.1.4,Win32,143.6781609,,,,,,,,,,,,,,171,gotro,,,,,,152.758,153.307,0,1,0.028,,0,143,143,170,1,pseudoword,0,REAL,FALSA
,,,,,,,,,5ed2edb5b7f800107d47c777,001,2025-05-08_10h27.24.027,empathy_intonation_perc,2024.1.4,Win32,143.6781609,,,,,,,,,,,,,,60,siglo,,,,,,153.309,153.857,1,0,0.02,,0,144,144,59,1,non_cognate,1,REAL,FALSA
,,,,,,,,,5ed2edb5b7f800107d47c777,001,2025-05-08_10h27.24.027,empathy_intonation_perc,2024.1.4,Win32,143.6781609,,,,,,,,,,,,,,73,llevar,,,,,,153.857,154.428,0,1,0.05,,0,145,145,72,1,non_cognate,1,REAL,FALSA
,,,,,,,,,5ed2edb5b7f800107d47c777,001,2025-05-08_10h27.24.027,empathy_intonation_perc,2024.1.4,Win32,143.6781609,,,,,,,,,,,,,,135,panté,,,,,,154.429,155.02,1,0,0.082,,0,146,146,134,1,pseudoword,0,REAL,FALSA
,,,,,,,,,5ed2edb5b7f800107d47c777,001,2025-05-08_10h27.24.027,empathy_intonation_perc,2024.1.4,Win32,143.6781609,,,,,,,,,,,,,,5,extra,,,,,,155.02,155.583,0,1,0.052,,0,147,147,4,1,three_way_cognate,1,REAL,FALSA
,,,,,,,,,5ed2edb5b7f800107d47c777,001,2025-05-08_10h27.24.027,empathy_intonation_perc,2024.1.4,Win32,143.6781609,,,,,,,,,,,,,,185,aljizo,,,,,,155.583,156.202,0,1,0.097,,0,148,148,184,1,pseudoword,0,REAL,FALSA
,,,,,,,,,5ed2edb5b7f800107d47c777,001,2025-05-08_10h27.24.027,empathy_intonation_perc,2024.1.4,Win32,143.6781609,,,,,,,,,,,,,,176,gripar,,,,,,156.202,156.821,1,0,0.096,,0,149,149,175,1,pseudoword,0,REAL,FALSA
,,,,,,,,,5ed2edb5b7f800107d47c777,001,2025-05-08_10h27.24.027,empathy_intonation_perc,2024.1.4,Win32,143.6781609,,,,,,,,,,,,,,33,collar,,,,,,156.822,157.434,0,1,0.09,,0,150,150,32,1,two_way_cognate,1,REAL,FALSA
,,,,,,,,,5ed2edb5b7f800107d47c777,001,2025-05-08_10h27.24.027,empathy_intonation_perc,2024.1.4,Win32,143.6781609,,,,,,,,,,,,,,15,test,,,,,,157.434,157.983,1,0,0.041,,0,151,151,14,1,three_way_cognate,1,REAL,FALSA
,,,,,,,,,5ed2edb5b7f800107d47c777,001,2025-05-08_10h27.24.027,empathy_intonation_perc,2024.1.4,Win32,143.6781609,,,,,,,,,,,,,,158,babrá,,,,,,157.983,158.943,0,1,0.436,,0,152,152,157,1,pseudoword,0,REAL,FALSA
,,,,,,,,,5ed2edb5b7f800107d47c777,001,2025-05-08_10h27.24.027,empathy_intonation_perc,2024.1.4,Win32,143.6781609,,,,,,,,,,,,,,75,patada,,,,,,158.943,160.537,1,0,1.07,,0,153,153,74,1,non_cognate,1,REAL,FALSA
,,,,,,,,,5ed2edb5b7f800107d47c777,001,2025-05-08_10h27.24.027,empathy_intonation_perc,2024.1.4,Win32,143.6781609,,,,,,,,,,,,,,66,aleta,,,,,,160.542,161.622,1,0,0.562,,0,154,154,65,1,non_cognate,1,REAL,FALSA
,,,,,,,,,5ed2edb5b7f800107d47c777,001,2025-05-08_10h27.24.027,empathy_intonation_perc,2024.1.4,Win32,143.6781609,,,,,,,,,,,,,,40,pelvis,,,,,,161.625,162.651,1,0,0.505,,0,155,155,39,1,two_way_cognate,1,REAL,FALSA
,,,,,,,,,5ed2edb5b7f800107d47c777,001,2025-05-08_10h27.24.027,empathy_intonation_perc,2024.1.4,Win32,143.6781609,,,,,,,,,,,,,,103,vueras,,,,,,162.652,163.654,1,0,0.49,,0,156,156,102,1,pseudoword,0,REAL,FALSA
,,,,,,,,,5ed2edb5b7f800107d47c777,001,2025-05-08_10h27.24.027,empathy_intonation_perc,2024.1.4,Win32,143.6781609,,,,,,,,,,,,,,46,mortal,,,,,,163.654,165.198,0,1,1.032,,0,157,157,45,1,two_way_cognate,1,REAL,FALSA
,,,,,,,,,5ed2edb5b7f800107d47c777,001,2025-05-08_10h27.24.027,empathy_intonation_perc,2024.1.4,Win32,143.6781609,,,,,,,,,,,,,,27,piano,,,,,,165.199,166.464,0,1,0.746,,0,158,158,26,1,two_way_cognate,1,REAL,FALSA
,,,,,,,,,5ed2edb5b7f800107d47c777,001,2025-05-08_10h27.24.027,empathy_intonation_perc,2024.1.4,Win32,143.6781609,,,,,,,,,,,,,,34,actor,,,,,,166.465,167.612,0,1,0.63,,0,159,159,33,1,two_way_cognate,1,REAL,FALSA
,,,,,,,,,5ed2edb5b7f800107d47c777,001,2025-05-08_10h27.24.027,empathy_intonation_perc,2024.1.4,Win32,143.6781609,,,,,,,,,,,,,,105,peniz,,,,,,167.612,168.767,1,0,0.634,,0,160,160,104,1,pseudoword,0,REAL,FALSA
,,,,,,,,,5ed2edb5b7f800107d47c777,001,2025-05-08_10h27.24.027,empathy_intonation_perc,2024.1.4,Win32,143.6781609,,,,,,,,,,,,,,179,suelet,,,,,,168.767,169.839,1,0,0.554,,0,161,161,178,1,pseudoword,0,REAL,FALSA
,,,,,,,,,5ed2edb5b7f800107d47c777,001,2025-05-08_10h27.24.027,empathy_intonation_perc,2024.1.4,Win32,143.6781609,,,,,,,,,,,,,,191,frasis,,,,,,169.839,170.944,1,0,0.589,,0,162,162,190,1,pseudoword,0,REAL,FALSA
,,,,,,,,,5ed2edb5b7f800107d47c777,001,2025-05-08_10h27.24.027,empathy_intonation_perc,2024.1.4,Win32,143.6781609,,,,,,,,,,,,,,41,pasta,,,,,,170.945,172.079,0,1,0.626,,0,163,163,40,1,two_way_cognate,1,REAL,FALSA
,,,,,,,,,5ed2edb5b7f800107d47c777,001,2025-05-08_10h27.24.027,empathy_intonation_perc,2024.1.4,Win32,143.6781609,,,,,,,,,,,,,,26,enigma,,,,,,172.079,173.324,1,0,0.733,,0,164,164,25,1,two_way_cognate,1,REAL,FALSA
,,,,,,,,,5ed2edb5b7f800107d47c777,001,2025-05-08_10h27.24.027,empathy_intonation_perc,2024.1.4,Win32,143.6781609,,,,,,,,,,,,,,100,épinas,,,,,,173.325,174.444,1,0,0.612,,0,165,165,99,1,pseudoword,0,REAL,FALSA
,,,,,,,,,5ed2edb5b7f800107d47c777,001,2025-05-08_10h27.24.027,empathy_intonation_perc,2024.1.4,Win32,143.6781609,,,,,,,,,,,,,,177,entodo,,,,,,174.444,175.543,1,0,0.579,,0,166,166,176,1,pseudoword,0,REAL,FALSA
,,,,,,,,,5ed2edb5b7f800107d47c777,001,2025-05-08_10h27.24.027,empathy_intonation_perc,2024.1.4,Win32,143.6781609,,,,,,,,,,,,,,161,civas,,,,,,175.543,177.186,1,0,1.132,,0,167,167,160,1,pseudoword,0,REAL,FALSA
,,,,,,,,,5ed2edb5b7f800107d47c777,001,2025-05-08_10h27.24.027,empathy_intonation_perc,2024.1.4,Win32,143.6781609,,,,,,,,,,,,,,62,pegar,,,,,,177.186,178.57,1,0,0.875,,0,168,168,61,1,non_cognate,1,REAL,FALSA
,,,,,,,,,5ed2edb5b7f800107d47c777,001,2025-05-08_10h27.24.027,empathy_intonation_perc,2024.1.4,Win32,143.6781609,,,,,,,,,,,,,,45,total,,,,,,178.57,179.662,0,1,0.578,,0,169,169,44,1,two_way_cognate,1,REAL,FALSA
,,,,,,,,,5ed2edb5b7f800107d47c777,001,2025-05-08_10h27.24.027,empathy_intonation_perc,2024.1.4,Win32,143.6781609,,,,,,,,,,,,,,162,cengo,,,,,,179.662,180.887,1,0,0.703,,0,170,170,161,1,pseudoword,0,REAL,FALSA
,,,,,,,,,5ed2edb5b7f800107d47c777,001,2025-05-08_10h27.24.027,empathy_intonation_perc,2024.1.4,Win32,143.6781609,,,,,,,,,,,,,,119,esís,,,,,,180.887,181.966,1,0,0.556,,0,171,171,118,1,pseudoword,0,REAL,FALSA
,,,,,,,,,5ed2edb5b7f800107d47c777,001,2025-05-08_10h27.24.027,empathy_intonation_perc,2024.1.4,Win32,143.6781609,,,,,,,,,,,,,,189,medium,,,,,,181.966,182.994,0,1,0.515,,0,172,172,188,1,pseudoword,0,REAL,FALSA
,,,,,,,,,5ed2edb5b7f800107d47c777,001,2025-05-08_10h27.24.027,empathy_intonation_perc,2024.1.4,Win32,143.6781609,,,,,,,,,,,,,,128,pelí,,,,,,182.995,184.115,1,0,0.615,,0,173,173,127,1,pseudoword,0,REAL,FALSA
,,,,,,,,,5ed2edb5b7f800107d47c777,001,2025-05-08_10h27.24.027,empathy_intonation_perc,2024.1.4,Win32,143.6781609,,,,,,,,,,,,,,67,llamar,,,,,,184.116,185.166,1,0,0.524,,0,174,174,66,1,non_cognate,1,REAL,FALSA
,,,,,,,,,5ed2edb5b7f800107d47c777,001,2025-05-08_10h27.24.027,empathy_intonation_perc,2024.1.4,Win32,143.6781609,,,,,,,,,,,,,,139,sasos,,,,,,185.166,186.181,1,0,0.496,,0,175,175,138,1,pseudoword,0,REAL,FALSA
,,,,,,,,,5ed2edb5b7f800107d47c777,001,2025-05-08_10h27.24.027,empathy_intonation_perc,2024.1.4,Win32,143.6781609,,,,,,,,,,,,,,83,hálito,,,,,,186.182,187.253,1,0,0.556,,0,176,176,82,1,non_cognate,1,REAL,FALSA
,,,,,,,,,5ed2edb5b7f800107d47c777,001,2025-05-08_10h27.24.027,empathy_intonation_perc,2024.1.4,Win32,143.6781609,,,,,,,,,,,,,,143,hurcos,,,,,,187.253,188.665,1,0,0.892,,0,177,177,142,1,pseudoword,0,REAL,FALSA
,,,,,,,,,5ed2edb5b7f800107d47c777,001,2025-05-08_10h27.24.027,empathy_intonation_perc,2024.1.4,Win32,143.6781609,,,,,,,,,,,,,,1,moral,,,,,,188.666,189.723,0,1,0.545,,0,178,178,0,1,three_way_cognate,1,REAL,FALSA
,,,,,,,,,5ed2edb5b7f800107d47c777,001,2025-05-08_10h27.24.027,empathy_intonation_perc,2024.1.4,Win32,143.6781609,,,,,,,,,,,,,,150,cricó,,,,,,189.723,190.752,1,0,0.517,,0,179,179,149,1,pseudoword,0,REAL,FALSA
,,,,,,,,,5ed2edb5b7f800107d47c777,001,2025-05-08_10h27.24.027,empathy_intonation_perc,2024.1.4,Win32,143.6781609,,,,,,,,,,,,,,154,harvé,,,,,,190.754,191.733,1,0,0.467,,0,180,180,153,1,pseudoword,0,REAL,FALSA
,,,,,,,,,5ed2edb5b7f800107d47c777,001,2025-05-08_10h27.24.027,empathy_intonation_perc,2024.1.4,Win32,143.6781609,,,,,,,,,,,,,,192,próces,,,,,,191.734,192.686,1,0,0.44,,0,181,181,191,1,pseudoword,0,REAL,FALSA
,,,,,,,,,5ed2edb5b7f800107d47c777,001,2025-05-08_10h27.24.027,empathy_intonation_perc,2024.1.4,Win32,143.6781609,,,,,,,,,,,,,,14,aura,,,,,,192.688,193.919,0,1,0.716,,0,182,182,13,1,three_way_cognate,1,REAL,FALSA
,,,,,,,,,5ed2edb5b7f800107d47c777,001,2025-05-08_10h27.24.027,empathy_intonation_perc,2024.1.4,Win32,143.6781609,,,,,,,,,,,,,,61,aduana,,,,,,193.922,195.122,1,0,0.685,,0,183,183,60,1,non_cognate,1,REAL,FALSA
,,,,,,,,,5ed2edb5b7f800107d47c777,001,2025-05-08_10h27.24.027,empathy_intonation_perc,2024.1.4,Win32,143.6781609,,,,,,,,,,,,,,147,alla,,,,,,195.123,196.291,1,0,0.653,,0,184,184,146,1,pseudoword,0,REAL,FALSA
,,,,,,,,,5ed2edb5b7f800107d47c777,001,2025-05-08_10h27.24.027,empathy_intonation_perc,2024.1.4,Win32,143.6781609,,,,,,,,,,,,,,36,viable,,,,,,196.291,197.592,0,1,0.792,,0,185,185,35,1,two_way_cognate,1,REAL,FALSA
,,,,,,,,,5ed2edb5b7f800107d47c777,001,2025-05-08_10h27.24.027,empathy_intonation_perc,2024.1.4,Win32,143.6781609,,,,,,,,,,,,,,29,clamor,,,,,,197.592,199.025,0,1,0.919,,0,186,186,28,1,two_way_cognate,1,REAL,FALSA
,,,,,,,,,5ed2edb5b7f800107d47c777,001,2025-05-08_10h27.24.027,empathy_intonation_perc,2024.1.4,Win32,143.6781609,,,,,,,,,,,,,,146,gió,,,,,,199.026,200.076,1,0,0.544,,0,187,187,145,1,pseudoword,0,REAL,FALSA
,,,,,,,,,5ed2edb5b7f800107d47c777,001,2025-05-08_10h27.24.027,empathy_intonation_perc,2024.1.4,Win32,143.6781609,,,,,,,,,,,,,,170,diabo,,,,,,200.077,201.571,1,0,0.972,,0,188,188,169,1,pseudoword,0,REAL,FALSA
,,,,,,,,,5ed2edb5b7f800107d47c777,001,2025-05-08_10h27.24.027,empathy_intonation_perc,2024.1.4,Win32,143.6781609,,,,,,,,,,,,,,188,amplir,,,,,,201.572,202.657,1,0,0.567,,0,189,189,187,1,pseudoword,0,REAL,FALSA
,,,,,,,,,5ed2edb5b7f800107d47c777,001,2025-05-08_10h27.24.027,empathy_intonation_perc,2024.1.4,Win32,143.6781609,,,,,,,,,,,,,,85,enorme,,,,,,202.657,204.007,1,0,0.836,,0,190,190,84,1,non_cognate,1,REAL,FALSA
,,,,,,,,,5ed2edb5b7f800107d47c777,001,2025-05-08_10h27.24.027,empathy_intonation_perc,2024.1.4,Win32,143.6781609,,,,,,,,,,,,,,120,mauja,,,,,,204.007,205.189,1,0,0.67,,0,191,191,119,1,pseudoword,0,REAL,FALSA
