lextale_instructions.started,lextale_instructions.stopped,lextale_instructions_loop.thisRepN,lextale_instructions_loop.thisTrialN,lextale_instructions_loop.thisN,lextale_instructions_loop.thisIndex,lextale_instructions_loop.ran,instructions_text,continue_text,participant,session,date,expName,psychopyVersion,OS,frameRate,lextale_practice.started,lextale_practice.stopped,key_resp_lextale_practice.keys,key_resp_lextale_practice.corr,key_resp_lextale_practice.rt,key_resp_lextale_practice.duration,lextale_practice_feedback.started,lextale_practice_feedback.stopped,lextale_practice_trials.thisRepN,lextale_practice_trials.thisTrialN,lextale_practice_trials.thisN,lextale_practice_trials.thisIndex,lextale_practice_trials.ran,stim,word,correct_response,prac_button_real,prac_button_false,lextale_check.started,lextale_check.stopped,lextale_trial.started,lextale_trial.stopped,key_resp_lextale_trial.keys,key_resp_lextale_trial.corr,key_resp_lextale_trial.rt,key_resp_lextale_trial.duration,lextail_trials.thisRepN,lextail_trials.thisTrialN,lextail_trials.thisN,lextail_trials.thisIndex,lextail_trials.ran,type,correct_reponse,button_real,button_false
0.003,1.456,0,0,0,0,1,"Este es un test de vocabulario en español. 
  
  A continuación vas a ver 90 secuencias de letras que parecen 'españolas'.
  
  Solo algunas de ellas son palabras de verdad.",(presiona la barra espaciadora para continuar),5ee7fbc114d0a60f9b076fb6,001,2025-04-30_12h22.54.880,empathy_intonation_perc,2024.1.4,Win32,60.0240096,,,,,,,,,,,,,,,,,,,,,,,,,,,,,,,,,,,
1.458,1.906,0,1,1,1,1,"Por favor, señala las palabras que tú conoces (aquellas que estás convencido que son palabras españolas, incluso aunque no seas capaz de dar el significado preciso).",(presiona la barra espaciadora para continuar),5ee7fbc114d0a60f9b076fb6,001,2025-04-30_12h22.54.880,empathy_intonation_perc,2024.1.4,Win32,60.0240096,,,,,,,,,,,,,,,,,,,,,,,,,,,,,,,,,,,
1.907,2.239,0,2,2,2,1,Pero cuidado: los errores se penalizan. Por eso no tiene sentido tratar de incrementar tu puntuación marcando como reales palabras que nunca has visto.,(presiona la barra espaciadora para continuar),5ee7fbc114d0a60f9b076fb6,001,2025-04-30_12h22.54.880,empathy_intonation_perc,2024.1.4,Win32,60.0240096,,,,,,,,,,,,,,,,,,,,,,,,,,,,,,,,,,,
2.24,2.638,0,3,3,3,1,"Presiona la tecla 1 si piensas que es una palabra real y la tecla 
  0 si piensas que es una palabra falsa. 
  
  Vamos a practicar un poco...",(presiona la barra espaciadora para continuar),5ee7fbc114d0a60f9b076fb6,001,2025-04-30_12h22.54.880,empathy_intonation_perc,2024.1.4,Win32,60.0240096,,,,,,,,,,,,,,,,,,,,,,,,,,,,,,,,,,,
,,,,,,,,,5ee7fbc114d0a60f9b076fb6,001,2025-04-30_12h22.54.880,empathy_intonation_perc,2024.1.4,Win32,60.0240096,2.642,5.339,0,1,2.157,,5.339,6.34,0,0,0,0,1,0,depiste,0,REAL,FALSA,,,,,,,,,,,,,,,,,
,,,,,,,,,5ee7fbc114d0a60f9b076fb6,001,2025-04-30_12h22.54.880,empathy_intonation_perc,2024.1.4,Win32,60.0240096,6.342,7.691,1,1,0.815,,7.691,8.689,0,1,1,1,1,0,sí,1,REAL,FALSA,,,,,,,,,,,,,,,,,
,,,,,,,,,5ee7fbc114d0a60f9b076fb6,001,2025-04-30_12h22.54.880,empathy_intonation_perc,2024.1.4,Win32,60.0240096,8.69,10.256,0,1,1.021,,10.256,11.256,0,2,2,2,1,0,coné,0,REAL,FALSA,,,,,,,,,,,,,,,,,
,,,,,,,,,5ee7fbc114d0a60f9b076fb6,001,2025-04-30_12h22.54.880,empathy_intonation_perc,2024.1.4,Win32,60.0240096,11.257,13.889,0,1,2.089,,13.889,14.89,0,3,3,3,1,0,calpar,0,REAL,FALSA,,,,,,,,,,,,,,,,,
,,,,,,,,,5ee7fbc114d0a60f9b076fb6,001,2025-04-30_12h22.54.880,empathy_intonation_perc,2024.1.4,Win32,60.0240096,14.89,16.673,0,1,1.244,,16.673,17.673,0,4,4,4,1,0,joten,0,REAL,FALSA,,,,,,,,,,,,,,,,,
,,,,,,,,,5ee7fbc114d0a60f9b076fb6,001,2025-04-30_12h22.54.880,empathy_intonation_perc,2024.1.4,Win32,60.0240096,17.673,19.189,1,1,0.968,,19.189,20.189,0,5,5,5,1,0,sacapuntas,1,REAL,FALSA,,,,,,,,,,,,,,,,,
,,,,,,,,,5ee7fbc114d0a60f9b076fb6,001,2025-04-30_12h22.54.880,empathy_intonation_perc,2024.1.4,Win32,60.0240096,20.19,21.573,1,0,0.851,,21.573,22.572,0,6,6,6,1,0,priba,0,REAL,FALSA,,,,,,,,,,,,,,,,,
,,,,,,,,,5ee7fbc114d0a60f9b076fb6,001,2025-04-30_12h22.54.880,empathy_intonation_perc,2024.1.4,Win32,60.0240096,22.573,24.856,1,0,1.734,,24.856,25.856,0,7,7,7,1,0,pelasula,0,REAL,FALSA,,,,,,,,,,,,,,,,,
,,,,,,,,,5ee7fbc114d0a60f9b076fb6,001,2025-04-30_12h22.54.880,empathy_intonation_perc,2024.1.4,Win32,60.0240096,25.857,27.106,1,1,0.706,,27.106,28.107,0,8,8,8,1,0,bien,1,REAL,FALSA,,,,,,,,,,,,,,,,,
,,,,,,,,,5ee7fbc114d0a60f9b076fb6,001,2025-04-30_12h22.54.880,empathy_intonation_perc,2024.1.4,Win32,60.0240096,28.107,29.375,1,1,0.724,,29.375,30.373,0,9,9,9,1,0,casa,1,REAL,FALSA,,,,,,,,,,,,,,,,,
,,,,,,,,,5ee7fbc114d0a60f9b076fb6,001,2025-04-30_12h22.54.880,empathy_intonation_perc,2024.1.4,Win32,60.0240096,30.376,32.106,1,0,1.196,,32.106,33.106,0,10,10,10,1,0,lejo,0,REAL,FALSA,,,,,,,,,,,,,,,,,
,,,,,,,,,5ee7fbc114d0a60f9b076fb6,001,2025-04-30_12h22.54.880,empathy_intonation_perc,2024.1.4,Win32,60.0240096,33.108,34.906,1,0,1.259,,34.907,35.906,0,11,11,11,1,0,pretantas,0,REAL,FALSA,,,,,,,,,,,,,,,,,
,,,,,,,,,5ee7fbc114d0a60f9b076fb6,001,2025-04-30_12h22.54.880,empathy_intonation_perc,2024.1.4,Win32,60.0240096,,,,,,,,,,,,,,,,,,,35.906,37.29,,,,,,,,,,,,,,,
,,,,,,,,,5ee7fbc114d0a60f9b076fb6,001,2025-04-30_12h22.54.880,empathy_intonation_perc,2024.1.4,Win32,60.0240096,,,,,,,,,,,,,,124,lobe,,,,,,37.302,38.972,0,1,1.137,,0,0,0,123,1,pseudoword,0,REAL,FALSA
,,,,,,,,,5ee7fbc114d0a60f9b076fb6,001,2025-04-30_12h22.54.880,empathy_intonation_perc,2024.1.4,Win32,60.0240096,,,,,,,,,,,,,,153,golla,,,,,,38.973,40.373,0,1,0.863,,0,1,1,152,1,pseudoword,0,REAL,FALSA
,,,,,,,,,5ee7fbc114d0a60f9b076fb6,001,2025-04-30_12h22.54.880,empathy_intonation_perc,2024.1.4,Win32,60.0240096,,,,,,,,,,,,,,100,épinas,,,,,,40.374,41.673,1,0,0.756,,0,2,2,99,1,pseudoword,0,REAL,FALSA
,,,,,,,,,5ee7fbc114d0a60f9b076fb6,001,2025-04-30_12h22.54.880,empathy_intonation_perc,2024.1.4,Win32,60.0240096,,,,,,,,,,,,,,147,alla,,,,,,41.674,42.84,1,0,0.64,,0,3,3,146,1,pseudoword,0,REAL,FALSA
,,,,,,,,,5ee7fbc114d0a60f9b076fb6,001,2025-04-30_12h22.54.880,empathy_intonation_perc,2024.1.4,Win32,60.0240096,,,,,,,,,,,,,,152,prave,,,,,,42.84,44.24,1,0,0.845,,0,4,4,151,1,pseudoword,0,REAL,FALSA
,,,,,,,,,5ee7fbc114d0a60f9b076fb6,001,2025-04-30_12h22.54.880,empathy_intonation_perc,2024.1.4,Win32,60.0240096,,,,,,,,,,,,,,190,asumie,,,,,,44.241,45.889,0,1,1.105,,0,5,5,189,1,pseudoword,0,REAL,FALSA
,,,,,,,,,5ee7fbc114d0a60f9b076fb6,001,2025-04-30_12h22.54.880,empathy_intonation_perc,2024.1.4,Win32,60.0240096,,,,,,,,,,,,,,81,sacar,,,,,,45.89,47.24,1,0,0.812,,0,6,6,80,1,non_cognate,1,REAL,FALSA
,,,,,,,,,5ee7fbc114d0a60f9b076fb6,001,2025-04-30_12h22.54.880,empathy_intonation_perc,2024.1.4,Win32,60.0240096,,,,,,,,,,,,,,73,llevar,,,,,,47.242,48.556,1,0,0.776,,0,7,7,72,1,non_cognate,1,REAL,FALSA
,,,,,,,,,5ee7fbc114d0a60f9b076fb6,001,2025-04-30_12h22.54.880,empathy_intonation_perc,2024.1.4,Win32,60.0240096,,,,,,,,,,,,,,113,nasce,,,,,,48.557,50.54,0,1,1.429,,0,8,8,112,1,pseudoword,0,REAL,FALSA
,,,,,,,,,5ee7fbc114d0a60f9b076fb6,001,2025-04-30_12h22.54.880,empathy_intonation_perc,2024.1.4,Win32,60.0240096,,,,,,,,,,,,,,145,rúo,,,,,,50.541,52.073,1,0,0.999,,0,9,9,144,1,pseudoword,0,REAL,FALSA
,,,,,,,,,5ee7fbc114d0a60f9b076fb6,001,2025-04-30_12h22.54.880,empathy_intonation_perc,2024.1.4,Win32,60.0240096,,,,,,,,,,,,,,134,molor,,,,,,52.074,53.773,0,1,1.149,,0,10,10,133,1,pseudoword,0,REAL,FALSA
,,,,,,,,,5ee7fbc114d0a60f9b076fb6,001,2025-04-30_12h22.54.880,empathy_intonation_perc,2024.1.4,Win32,60.0240096,,,,,,,,,,,,,,61,aduana,,,,,,53.773,55.889,1,0,1.568,,0,11,11,60,1,non_cognate,1,REAL,FALSA
,,,,,,,,,5ee7fbc114d0a60f9b076fb6,001,2025-04-30_12h22.54.880,empathy_intonation_perc,2024.1.4,Win32,60.0240096,,,,,,,,,,,,,,54,tapón,,,,,,55.89,58.79,0,1,2.368,,0,12,12,53,1,non_cognate,1,REAL,FALSA
,,,,,,,,,5ee7fbc114d0a60f9b076fb6,001,2025-04-30_12h22.54.880,empathy_intonation_perc,2024.1.4,Win32,60.0240096,,,,,,,,,,,,,,84,aviso,,,,,,58.791,60.14,1,0,0.802,,0,13,13,83,1,non_cognate,1,REAL,FALSA
,,,,,,,,,5ee7fbc114d0a60f9b076fb6,001,2025-04-30_12h22.54.880,empathy_intonation_perc,2024.1.4,Win32,60.0240096,,,,,,,,,,,,,,161,civas,,,,,,60.141,61.422,1,0,0.735,,0,14,14,160,1,pseudoword,0,REAL,FALSA
,,,,,,,,,5ee7fbc114d0a60f9b076fb6,001,2025-04-30_12h22.54.880,empathy_intonation_perc,2024.1.4,Win32,60.0240096,,,,,,,,,,,,,,128,pelí,,,,,,61.423,63.042,0,1,1.082,,0,15,15,127,1,pseudoword,0,REAL,FALSA
,,,,,,,,,5ee7fbc114d0a60f9b076fb6,001,2025-04-30_12h22.54.880,empathy_intonation_perc,2024.1.4,Win32,60.0240096,,,,,,,,,,,,,,87,muleta,,,,,,63.046,66.074,1,0,2.491,,0,16,16,86,1,non_cognate,1,REAL,FALSA
,,,,,,,,,5ee7fbc114d0a60f9b076fb6,001,2025-04-30_12h22.54.880,empathy_intonation_perc,2024.1.4,Win32,60.0240096,,,,,,,,,,,,,,79,suelo,,,,,,66.075,67.473,1,0,0.844,,0,17,17,78,1,non_cognate,1,REAL,FALSA
,,,,,,,,,5ee7fbc114d0a60f9b076fb6,001,2025-04-30_12h22.54.880,empathy_intonation_perc,2024.1.4,Win32,60.0240096,,,,,,,,,,,,,,60,siglo,,,,,,67.475,69.24,0,1,1.227,,0,18,18,59,1,non_cognate,1,REAL,FALSA
,,,,,,,,,5ee7fbc114d0a60f9b076fb6,001,2025-04-30_12h22.54.880,empathy_intonation_perc,2024.1.4,Win32,60.0240096,,,,,,,,,,,,,,192,próces,,,,,,69.241,70.706,1,0,0.915,,0,19,19,191,1,pseudoword,0,REAL,FALSA
,,,,,,,,,5ee7fbc114d0a60f9b076fb6,001,2025-04-30_12h22.54.880,empathy_intonation_perc,2024.1.4,Win32,60.0240096,,,,,,,,,,,,,,41,pasta,,,,,,70.707,73.123,0,1,1.885,,0,20,20,40,1,two_way_cognate,1,REAL,FALSA
,,,,,,,,,5ee7fbc114d0a60f9b076fb6,001,2025-04-30_12h22.54.880,empathy_intonation_perc,2024.1.4,Win32,60.0240096,,,,,,,,,,,,,,123,arane,,,,,,73.124,74.806,1,0,1.129,,0,21,21,122,1,pseudoword,0,REAL,FALSA
,,,,,,,,,5ee7fbc114d0a60f9b076fb6,001,2025-04-30_12h22.54.880,empathy_intonation_perc,2024.1.4,Win32,60.0240096,,,,,,,,,,,,,,31,civil,,,,,,74.806,76.573,1,0,1.256,,0,22,22,30,1,two_way_cognate,1,REAL,FALSA
,,,,,,,,,5ee7fbc114d0a60f9b076fb6,001,2025-04-30_12h22.54.880,empathy_intonation_perc,2024.1.4,Win32,60.0240096,,,,,,,,,,,,,,182,desaro,,,,,,76.574,80.407,1,0,3.282,,0,23,23,181,1,pseudoword,0,REAL,FALSA
,,,,,,,,,5ee7fbc114d0a60f9b076fb6,001,2025-04-30_12h22.54.880,empathy_intonation_perc,2024.1.4,Win32,60.0240096,,,,,,,,,,,,,,11,golf,,,,,,80.409,81.807,1,0,0.864,,0,24,24,10,1,three_way_cognate,1,REAL,FALSA
,,,,,,,,,5ee7fbc114d0a60f9b076fb6,001,2025-04-30_12h22.54.880,empathy_intonation_perc,2024.1.4,Win32,60.0240096,,,,,,,,,,,,,,158,babrá,,,,,,81.808,83.272,0,1,0.917,,0,25,25,157,1,pseudoword,0,REAL,FALSA
,,,,,,,,,5ee7fbc114d0a60f9b076fb6,001,2025-04-30_12h22.54.880,empathy_intonation_perc,2024.1.4,Win32,60.0240096,,,,,,,,,,,,,,1,moral,,,,,,83.273,84.59,1,0,0.785,,0,26,26,0,1,three_way_cognate,1,REAL,FALSA
,,,,,,,,,5ee7fbc114d0a60f9b076fb6,001,2025-04-30_12h22.54.880,empathy_intonation_perc,2024.1.4,Win32,60.0240096,,,,,,,,,,,,,,131,fuar,,,,,,84.592,86.573,1,0,1.456,,0,27,27,130,1,pseudoword,0,REAL,FALSA
,,,,,,,,,5ee7fbc114d0a60f9b076fb6,001,2025-04-30_12h22.54.880,empathy_intonation_perc,2024.1.4,Win32,60.0240096,,,,,,,,,,,,,,22,mango,,,,,,86.573,88.506,1,0,1.402,,0,28,28,21,1,three_way_cognate,1,REAL,FALSA
,,,,,,,,,5ee7fbc114d0a60f9b076fb6,001,2025-04-30_12h22.54.880,empathy_intonation_perc,2024.1.4,Win32,60.0240096,,,,,,,,,,,,,,136,hueas,,,,,,88.506,90.123,1,0,1.105,,0,29,29,135,1,pseudoword,0,REAL,FALSA
,,,,,,,,,5ee7fbc114d0a60f9b076fb6,001,2025-04-30_12h22.54.880,empathy_intonation_perc,2024.1.4,Win32,60.0240096,,,,,,,,,,,,,,80,cuenco,,,,,,90.124,92.473,1,0,1.814,,0,30,30,79,1,non_cognate,1,REAL,FALSA
,,,,,,,,,5ee7fbc114d0a60f9b076fb6,001,2025-04-30_12h22.54.880,empathy_intonation_perc,2024.1.4,Win32,60.0240096,,,,,,,,,,,,,,67,llamar,,,,,,92.474,93.725,1,0,0.717,,0,31,31,66,1,non_cognate,1,REAL,FALSA
,,,,,,,,,5ee7fbc114d0a60f9b076fb6,001,2025-04-30_12h22.54.880,empathy_intonation_perc,2024.1.4,Win32,60.0240096,,,,,,,,,,,,,,98,martir,,,,,,93.725,95.556,0,1,1.293,,0,32,32,97,1,pseudoword,0,REAL,FALSA
,,,,,,,,,5ee7fbc114d0a60f9b076fb6,001,2025-04-30_12h22.54.880,empathy_intonation_perc,2024.1.4,Win32,60.0240096,,,,,,,,,,,,,,72,rostro,,,,,,95.557,96.99,0,1,0.907,,0,33,33,71,1,non_cognate,1,REAL,FALSA
,,,,,,,,,5ee7fbc114d0a60f9b076fb6,001,2025-04-30_12h22.54.880,empathy_intonation_perc,2024.1.4,Win32,60.0240096,,,,,,,,,,,,,,99,bugor,,,,,,96.993,98.739,0,1,1.201,,0,34,34,98,1,pseudoword,0,REAL,FALSA
,,,,,,,,,5ee7fbc114d0a60f9b076fb6,001,2025-04-30_12h22.54.880,empathy_intonation_perc,2024.1.4,Win32,60.0240096,,,,,,,,,,,,,,20,trauma,,,,,,98.74,100.057,1,0,0.778,,0,35,35,19,1,three_way_cognate,1,REAL,FALSA
,,,,,,,,,5ee7fbc114d0a60f9b076fb6,001,2025-04-30_12h22.54.880,empathy_intonation_perc,2024.1.4,Win32,60.0240096,,,,,,,,,,,,,,75,patada,,,,,,100.057,101.506,1,0,0.901,,0,36,36,74,1,non_cognate,1,REAL,FALSA
,,,,,,,,,5ee7fbc114d0a60f9b076fb6,001,2025-04-30_12h22.54.880,empathy_intonation_perc,2024.1.4,Win32,60.0240096,,,,,,,,,,,,,,150,cricó,,,,,,101.507,103.906,0,1,1.863,,0,37,37,149,1,pseudoword,0,REAL,FALSA
,,,,,,,,,5ee7fbc114d0a60f9b076fb6,001,2025-04-30_12h22.54.880,empathy_intonation_perc,2024.1.4,Win32,60.0240096,,,,,,,,,,,,,,33,collar,,,,,,103.907,105.189,1,0,0.742,,0,38,38,32,1,two_way_cognate,1,REAL,FALSA
,,,,,,,,,5ee7fbc114d0a60f9b076fb6,001,2025-04-30_12h22.54.880,empathy_intonation_perc,2024.1.4,Win32,60.0240096,,,,,,,,,,,,,,88,percha,,,,,,105.191,106.474,1,0,0.742,,0,39,39,87,1,non_cognate,1,REAL,FALSA
,,,,,,,,,5ee7fbc114d0a60f9b076fb6,001,2025-04-30_12h22.54.880,empathy_intonation_perc,2024.1.4,Win32,60.0240096,,,,,,,,,,,,,,142,parre,,,,,,106.475,107.773,1,0,0.75,,0,40,40,141,1,pseudoword,0,REAL,FALSA
,,,,,,,,,5ee7fbc114d0a60f9b076fb6,001,2025-04-30_12h22.54.880,empathy_intonation_perc,2024.1.4,Win32,60.0240096,,,,,,,,,,,,,,58,colcha,,,,,,107.774,109.173,1,0,0.862,,0,41,41,57,1,non_cognate,1,REAL,FALSA
,,,,,,,,,5ee7fbc114d0a60f9b076fb6,001,2025-04-30_12h22.54.880,empathy_intonation_perc,2024.1.4,Win32,60.0240096,,,,,,,,,,,,,,62,pegar,,,,,,109.174,111.24,1,0,1.53,,0,42,42,61,1,non_cognate,1,REAL,FALSA
,,,,,,,,,5ee7fbc114d0a60f9b076fb6,001,2025-04-30_12h22.54.880,empathy_intonation_perc,2024.1.4,Win32,60.0240096,,,,,,,,,,,,,,43,honor,,,,,,111.24,112.589,1,0,0.81,,0,43,43,42,1,two_way_cognate,1,REAL,FALSA
,,,,,,,,,5ee7fbc114d0a60f9b076fb6,001,2025-04-30_12h22.54.880,empathy_intonation_perc,2024.1.4,Win32,60.0240096,,,,,,,,,,,,,,181,gravés,,,,,,112.59,114.072,1,0,0.951,,0,44,44,180,1,pseudoword,0,REAL,FALSA
,,,,,,,,,5ee7fbc114d0a60f9b076fb6,001,2025-04-30_12h22.54.880,empathy_intonation_perc,2024.1.4,Win32,60.0240096,,,,,,,,,,,,,,94,forro,,,,,,114.073,115.989,0,1,1.396,,0,45,45,93,1,non_cognate,1,REAL,FALSA
,,,,,,,,,5ee7fbc114d0a60f9b076fb6,001,2025-04-30_12h22.54.880,empathy_intonation_perc,2024.1.4,Win32,60.0240096,,,,,,,,,,,,,,24,retina,,,,,,115.989,117.306,1,0,0.801,,0,46,46,23,1,three_way_cognate,1,REAL,FALSA
,,,,,,,,,5ee7fbc114d0a60f9b076fb6,001,2025-04-30_12h22.54.880,empathy_intonation_perc,2024.1.4,Win32,60.0240096,,,,,,,,,,,,,,66,aleta,,,,,,117.307,120.056,1,0,2.208,,0,47,47,65,1,non_cognate,1,REAL,FALSA
,,,,,,,,,5ee7fbc114d0a60f9b076fb6,001,2025-04-30_12h22.54.880,empathy_intonation_perc,2024.1.4,Win32,60.0240096,,,,,,,,,,,,,,18,altar,,,,,,120.057,121.639,1,0,1.051,,0,48,48,17,1,three_way_cognate,1,REAL,FALSA
,,,,,,,,,5ee7fbc114d0a60f9b076fb6,001,2025-04-30_12h22.54.880,empathy_intonation_perc,2024.1.4,Win32,60.0240096,,,,,,,,,,,,,,51,listo,,,,,,121.64,123.623,1,0,1.44,,0,49,49,50,1,non_cognate,1,REAL,FALSA
,,,,,,,,,5ee7fbc114d0a60f9b076fb6,001,2025-04-30_12h22.54.880,empathy_intonation_perc,2024.1.4,Win32,60.0240096,,,,,,,,,,,,,,50,sierra,,,,,,123.623,124.89,1,0,0.722,,0,50,50,49,1,non_cognate,1,REAL,FALSA
,,,,,,,,,5ee7fbc114d0a60f9b076fb6,001,2025-04-30_12h22.54.880,empathy_intonation_perc,2024.1.4,Win32,60.0240096,,,,,,,,,,,,,,85,enorme,,,,,,124.891,127.007,0,1,1.588,,0,51,51,84,1,non_cognate,1,REAL,FALSA
,,,,,,,,,5ee7fbc114d0a60f9b076fb6,001,2025-04-30_12h22.54.880,empathy_intonation_perc,2024.1.4,Win32,60.0240096,,,,,,,,,,,,,,108,jauda,,,,,,127.008,131.424,0,1,3.872,,0,52,52,107,1,pseudoword,0,REAL,FALSA
,,,,,,,,,5ee7fbc114d0a60f9b076fb6,001,2025-04-30_12h22.54.880,empathy_intonation_perc,2024.1.4,Win32,60.0240096,,,,,,,,,,,,,,179,suelet,,,,,,131.427,132.973,0,1,1.005,,0,53,53,178,1,pseudoword,0,REAL,FALSA
,,,,,,,,,5ee7fbc114d0a60f9b076fb6,001,2025-04-30_12h22.54.880,empathy_intonation_perc,2024.1.4,Win32,60.0240096,,,,,,,,,,,,,,169,pitis,,,,,,132.974,134.723,1,0,1.199,,0,54,54,168,1,pseudoword,0,REAL,FALSA
,,,,,,,,,5ee7fbc114d0a60f9b076fb6,001,2025-04-30_12h22.54.880,empathy_intonation_perc,2024.1.4,Win32,60.0240096,,,,,,,,,,,,,,160,fomeó,,,,,,134.724,136.207,1,0,0.945,,0,55,55,159,1,pseudoword,0,REAL,FALSA
,,,,,,,,,5ee7fbc114d0a60f9b076fb6,001,2025-04-30_12h22.54.880,empathy_intonation_perc,2024.1.4,Win32,60.0240096,,,,,,,,,,,,,,149,emén,,,,,,136.208,137.807,0,1,1.058,,0,56,56,148,1,pseudoword,0,REAL,FALSA
,,,,,,,,,5ee7fbc114d0a60f9b076fb6,001,2025-04-30_12h22.54.880,empathy_intonation_perc,2024.1.4,Win32,60.0240096,,,,,,,,,,,,,,177,entodo,,,,,,137.807,139.406,1,0,1.051,,0,57,57,176,1,pseudoword,0,REAL,FALSA
,,,,,,,,,5ee7fbc114d0a60f9b076fb6,001,2025-04-30_12h22.54.880,empathy_intonation_perc,2024.1.4,Win32,60.0240096,,,,,,,,,,,,,,148,gino,,,,,,139.408,140.956,1,0,0.999,,0,58,58,147,1,pseudoword,0,REAL,FALSA
,,,,,,,,,5ee7fbc114d0a60f9b076fb6,001,2025-04-30_12h22.54.880,empathy_intonation_perc,2024.1.4,Win32,60.0240096,,,,,,,,,,,,,,168,cobén,,,,,,140.957,142.474,0,1,0.971,,0,59,59,167,1,pseudoword,0,REAL,FALSA
,,,,,,,,,5ee7fbc114d0a60f9b076fb6,001,2025-04-30_12h22.54.880,empathy_intonation_perc,2024.1.4,Win32,60.0240096,,,,,,,,,,,,,,104,estulo,,,,,,142.475,143.957,1,0,0.945,,0,60,60,103,1,pseudoword,0,REAL,FALSA
,,,,,,,,,5ee7fbc114d0a60f9b076fb6,001,2025-04-30_12h22.54.880,empathy_intonation_perc,2024.1.4,Win32,60.0240096,,,,,,,,,,,,,,65,guerra,,,,,,143.957,145.29,1,0,0.777,,0,61,61,64,1,non_cognate,1,REAL,FALSA
,,,,,,,,,5ee7fbc114d0a60f9b076fb6,001,2025-04-30_12h22.54.880,empathy_intonation_perc,2024.1.4,Win32,60.0240096,,,,,,,,,,,,,,21,hotel,,,,,,145.29,146.49,1,0,0.654,,0,62,62,20,1,three_way_cognate,1,REAL,FALSA
,,,,,,,,,5ee7fbc114d0a60f9b076fb6,001,2025-04-30_12h22.54.880,empathy_intonation_perc,2024.1.4,Win32,60.0240096,,,,,,,,,,,,,,125,ceme,,,,,,146.49,148.039,0,1,0.998,,0,63,63,124,1,pseudoword,0,REAL,FALSA
,,,,,,,,,5ee7fbc114d0a60f9b076fb6,001,2025-04-30_12h22.54.880,empathy_intonation_perc,2024.1.4,Win32,60.0240096,,,,,,,,,,,,,,174,pabea,,,,,,148.041,149.456,0,1,0.882,,0,64,64,173,1,pseudoword,0,REAL,FALSA
,,,,,,,,,5ee7fbc114d0a60f9b076fb6,001,2025-04-30_12h22.54.880,empathy_intonation_perc,2024.1.4,Win32,60.0240096,,,,,,,,,,,,,,42,rumor,,,,,,149.456,152.089,0,1,2.111,,0,65,65,41,1,two_way_cognate,1,REAL,FALSA
,,,,,,,,,5ee7fbc114d0a60f9b076fb6,001,2025-04-30_12h22.54.880,empathy_intonation_perc,2024.1.4,Win32,60.0240096,,,,,,,,,,,,,,39,casual,,,,,,152.09,154.224,1,0,1.604,,0,66,66,38,1,two_way_cognate,1,REAL,FALSA
,,,,,,,,,5ee7fbc114d0a60f9b076fb6,001,2025-04-30_12h22.54.880,empathy_intonation_perc,2024.1.4,Win32,60.0240096,,,,,,,,,,,,,,140,chorde,,,,,,154.225,156.906,1,0,2.136,,0,67,67,139,1,pseudoword,0,REAL,FALSA
,,,,,,,,,5ee7fbc114d0a60f9b076fb6,001,2025-04-30_12h22.54.880,empathy_intonation_perc,2024.1.4,Win32,60.0240096,,,,,,,,,,,,,,119,esís,,,,,,156.907,159.258,0,1,1.808,,0,68,68,118,1,pseudoword,0,REAL,FALSA
,,,,,,,,,5ee7fbc114d0a60f9b076fb6,001,2025-04-30_12h22.54.880,empathy_intonation_perc,2024.1.4,Win32,60.0240096,,,,,,,,,,,,,,186,rizate,,,,,,159.259,160.59,0,1,0.791,,0,69,69,185,1,pseudoword,0,REAL,FALSA
,,,,,,,,,5ee7fbc114d0a60f9b076fb6,001,2025-04-30_12h22.54.880,empathy_intonation_perc,2024.1.4,Win32,60.0240096,,,,,,,,,,,,,,10,drama,,,,,,160.591,161.94,1,0,0.798,,0,70,70,9,1,three_way_cognate,1,REAL,FALSA
,,,,,,,,,5ee7fbc114d0a60f9b076fb6,001,2025-04-30_12h22.54.880,empathy_intonation_perc,2024.1.4,Win32,60.0240096,,,,,,,,,,,,,,114,dibrea,,,,,,161.941,163.79,0,1,1.305,,0,71,71,113,1,pseudoword,0,REAL,FALSA
,,,,,,,,,5ee7fbc114d0a60f9b076fb6,001,2025-04-30_12h22.54.880,empathy_intonation_perc,2024.1.4,Win32,60.0240096,,,,,,,,,,,,,,191,frasis,,,,,,163.79,165.424,1,0,1.108,,0,72,72,190,1,pseudoword,0,REAL,FALSA
,,,,,,,,,5ee7fbc114d0a60f9b076fb6,001,2025-04-30_12h22.54.880,empathy_intonation_perc,2024.1.4,Win32,60.0240096,,,,,,,,,,,,,,111,monue,,,,,,165.427,166.757,1,0,0.79,,0,73,73,110,1,pseudoword,0,REAL,FALSA
,,,,,,,,,5ee7fbc114d0a60f9b076fb6,001,2025-04-30_12h22.54.880,empathy_intonation_perc,2024.1.4,Win32,60.0240096,,,,,,,,,,,,,,53,punta,,,,,,166.757,168.123,1,0,0.825,,0,74,74,52,1,non_cognate,1,REAL,FALSA
,,,,,,,,,5ee7fbc114d0a60f9b076fb6,001,2025-04-30_12h22.54.880,empathy_intonation_perc,2024.1.4,Win32,60.0240096,,,,,,,,,,,,,,159,trcia,,,,,,168.123,169.84,0,1,1.174,,0,75,75,158,1,pseudoword,0,REAL,FALSA
,,,,,,,,,5ee7fbc114d0a60f9b076fb6,001,2025-04-30_12h22.54.880,empathy_intonation_perc,2024.1.4,Win32,60.0240096,,,,,,,,,,,,,,155,kugis,,,,,,169.843,171.574,0,1,1.203,,0,76,76,154,1,pseudoword,0,REAL,FALSA
,,,,,,,,,5ee7fbc114d0a60f9b076fb6,001,2025-04-30_12h22.54.880,empathy_intonation_perc,2024.1.4,Win32,60.0240096,,,,,,,,,,,,,,122,boñaz,,,,,,171.575,172.973,1,0,0.855,,0,77,77,121,1,pseudoword,0,REAL,FALSA
,,,,,,,,,5ee7fbc114d0a60f9b076fb6,001,2025-04-30_12h22.54.880,empathy_intonation_perc,2024.1.4,Win32,60.0240096,,,,,,,,,,,,,,47,color,,,,,,172.974,176.023,1,0,2.503,,0,78,78,46,1,two_way_cognate,1,REAL,FALSA
,,,,,,,,,5ee7fbc114d0a60f9b076fb6,001,2025-04-30_12h22.54.880,empathy_intonation_perc,2024.1.4,Win32,60.0240096,,,,,,,,,,,,,,144,diroco,,,,,,176.024,177.807,0,1,1.249,,0,79,79,143,1,pseudoword,0,REAL,FALSA
,,,,,,,,,5ee7fbc114d0a60f9b076fb6,001,2025-04-30_12h22.54.880,empathy_intonation_perc,2024.1.4,Win32,60.0240096,,,,,,,,,,,,,,126,tobre,,,,,,177.807,179.423,1,0,1.082,,0,80,80,125,1,pseudoword,0,REAL,FALSA
,,,,,,,,,5ee7fbc114d0a60f9b076fb6,001,2025-04-30_12h22.54.880,empathy_intonation_perc,2024.1.4,Win32,60.0240096,,,,,,,,,,,,,,59,feo,,,,,,179.424,181.124,0,1,1.164,,0,81,81,58,1,non_cognate,1,REAL,FALSA
,,,,,,,,,5ee7fbc114d0a60f9b076fb6,001,2025-04-30_12h22.54.880,empathy_intonation_perc,2024.1.4,Win32,60.0240096,,,,,,,,,,,,,,14,aura,,,,,,181.124,182.94,1,0,1.263,,0,82,82,13,1,three_way_cognate,1,REAL,FALSA
,,,,,,,,,5ee7fbc114d0a60f9b076fb6,001,2025-04-30_12h22.54.880,empathy_intonation_perc,2024.1.4,Win32,60.0240096,,,,,,,,,,,,,,172,dogue,,,,,,182.941,184.624,0,1,1.141,,0,83,83,171,1,pseudoword,0,REAL,FALSA
,,,,,,,,,5ee7fbc114d0a60f9b076fb6,001,2025-04-30_12h22.54.880,empathy_intonation_perc,2024.1.4,Win32,60.0240096,,,,,,,,,,,,,,36,viable,,,,,,184.624,186.206,1,0,1.034,,0,84,84,35,1,two_way_cognate,1,REAL,FALSA
,,,,,,,,,5ee7fbc114d0a60f9b076fb6,001,2025-04-30_12h22.54.880,empathy_intonation_perc,2024.1.4,Win32,60.0240096,,,,,,,,,,,,,,71,torta,,,,,,186.206,187.991,1,0,1.261,,0,85,85,70,1,non_cognate,1,REAL,FALSA
,,,,,,,,,5ee7fbc114d0a60f9b076fb6,001,2025-04-30_12h22.54.880,empathy_intonation_perc,2024.1.4,Win32,60.0240096,,,,,,,,,,,,,,109,laras,,,,,,187.991,189.39,1,0,0.848,,0,86,86,108,1,pseudoword,0,REAL,FALSA
,,,,,,,,,5ee7fbc114d0a60f9b076fb6,001,2025-04-30_12h22.54.880,empathy_intonation_perc,2024.1.4,Win32,60.0240096,,,,,,,,,,,,,,183,edioso,,,,,,189.391,191.44,1,0,1.5,,0,87,87,182,1,pseudoword,0,REAL,FALSA
,,,,,,,,,5ee7fbc114d0a60f9b076fb6,001,2025-04-30_12h22.54.880,empathy_intonation_perc,2024.1.4,Win32,60.0240096,,,,,,,,,,,,,,135,panté,,,,,,191.44,193.624,0,1,1.647,,0,88,88,134,1,pseudoword,0,REAL,FALSA
,,,,,,,,,5ee7fbc114d0a60f9b076fb6,001,2025-04-30_12h22.54.880,empathy_intonation_perc,2024.1.4,Win32,60.0240096,,,,,,,,,,,,,,16,chat,,,,,,193.625,195.107,0,1,0.932,,0,89,89,15,1,three_way_cognate,1,REAL,FALSA
,,,,,,,,,5ee7fbc114d0a60f9b076fb6,001,2025-04-30_12h22.54.880,empathy_intonation_perc,2024.1.4,Win32,60.0240096,,,,,,,,,,,,,,45,total,,,,,,195.107,198.391,1,0,2.743,,0,90,90,44,1,two_way_cognate,1,REAL,FALSA
,,,,,,,,,5ee7fbc114d0a60f9b076fb6,001,2025-04-30_12h22.54.880,empathy_intonation_perc,2024.1.4,Win32,60.0240096,,,,,,,,,,,,,,103,vueras,,,,,,198.394,199.756,1,0,0.814,,0,91,91,102,1,pseudoword,0,REAL,FALSA
,,,,,,,,,5ee7fbc114d0a60f9b076fb6,001,2025-04-30_12h22.54.880,empathy_intonation_perc,2024.1.4,Win32,60.0240096,,,,,,,,,,,,,,52,blando,,,,,,199.757,201.573,0,1,1.276,,0,92,92,51,1,non_cognate,1,REAL,FALSA
,,,,,,,,,5ee7fbc114d0a60f9b076fb6,001,2025-04-30_12h22.54.880,empathy_intonation_perc,2024.1.4,Win32,60.0240096,,,,,,,,,,,,,,38,halo,,,,,,201.574,203.307,1,0,1.193,,0,93,93,37,1,two_way_cognate,1,REAL,FALSA
,,,,,,,,,5ee7fbc114d0a60f9b076fb6,001,2025-04-30_12h22.54.880,empathy_intonation_perc,2024.1.4,Win32,60.0240096,,,,,,,,,,,,,,90,venado,,,,,,203.309,205.557,1,0,1.711,,0,94,94,89,1,non_cognate,1,REAL,FALSA
,,,,,,,,,5ee7fbc114d0a60f9b076fb6,001,2025-04-30_12h22.54.880,empathy_intonation_perc,2024.1.4,Win32,60.0240096,,,,,,,,,,,,,,92,flecha,,,,,,205.558,207.639,0,1,1.537,,0,95,95,91,1,non_cognate,1,REAL,FALSA
,,,,,,,,,5ee7fbc114d0a60f9b076fb6,001,2025-04-30_12h22.54.880,empathy_intonation_perc,2024.1.4,Win32,60.0240096,,,,,,,,,,,,,,28,ardor,,,,,,207.641,210.99,1,0,2.813,,0,96,96,27,1,two_way_cognate,1,REAL,FALSA
,,,,,,,,,5ee7fbc114d0a60f9b076fb6,001,2025-04-30_12h22.54.880,empathy_intonation_perc,2024.1.4,Win32,60.0240096,,,,,,,,,,,,,,173,mibro,,,,,,210.991,212.407,0,1,0.877,,0,97,97,172,1,pseudoword,0,REAL,FALSA
,,,,,,,,,5ee7fbc114d0a60f9b076fb6,001,2025-04-30_12h22.54.880,empathy_intonation_perc,2024.1.4,Win32,60.0240096,,,,,,,,,,,,,,3,disco,,,,,,212.408,214.075,1,0,1.113,,0,98,98,2,1,three_way_cognate,1,REAL,FALSA
,,,,,,,,,5ee7fbc114d0a60f9b076fb6,001,2025-04-30_12h22.54.880,empathy_intonation_perc,2024.1.4,Win32,60.0240096,,,,,,,,,,,,,,101,losco,,,,,,214.076,216.206,1,0,1.585,,0,99,99,100,1,pseudoword,0,REAL,FALSA
,,,,,,,,,5ee7fbc114d0a60f9b076fb6,001,2025-04-30_12h22.54.880,empathy_intonation_perc,2024.1.4,Win32,60.0240096,,,,,,,,,,,,,,7,albino,,,,,,216.207,217.907,1,0,1.181,,0,100,100,6,1,three_way_cognate,1,REAL,FALSA
,,,,,,,,,5ee7fbc114d0a60f9b076fb6,001,2025-04-30_12h22.54.880,empathy_intonation_perc,2024.1.4,Win32,60.0240096,,,,,,,,,,,,,,19,mafia,,,,,,217.908,219.873,0,1,1.416,,0,101,101,18,1,three_way_cognate,1,REAL,FALSA
,,,,,,,,,5ee7fbc114d0a60f9b076fb6,001,2025-04-30_12h22.54.880,empathy_intonation_perc,2024.1.4,Win32,60.0240096,,,,,,,,,,,,,,27,piano,,,,,,219.874,221.441,1,0,1.021,,0,102,102,26,1,two_way_cognate,1,REAL,FALSA
,,,,,,,,,5ee7fbc114d0a60f9b076fb6,001,2025-04-30_12h22.54.880,empathy_intonation_perc,2024.1.4,Win32,60.0240096,,,,,,,,,,,,,,189,medium,,,,,,221.441,223.256,0,1,1.273,,0,103,103,188,1,pseudoword,0,REAL,FALSA
,,,,,,,,,5ee7fbc114d0a60f9b076fb6,001,2025-04-30_12h22.54.880,empathy_intonation_perc,2024.1.4,Win32,60.0240096,,,,,,,,,,,,,,154,harvé,,,,,,223.257,224.773,1,0,0.978,,0,104,104,153,1,pseudoword,0,REAL,FALSA
,,,,,,,,,5ee7fbc114d0a60f9b076fb6,001,2025-04-30_12h22.54.880,empathy_intonation_perc,2024.1.4,Win32,60.0240096,,,,,,,,,,,,,,40,pelvis,,,,,,224.774,228.79,0,1,3.469,,0,105,105,39,1,two_way_cognate,1,REAL,FALSA
,,,,,,,,,5ee7fbc114d0a60f9b076fb6,001,2025-04-30_12h22.54.880,empathy_intonation_perc,2024.1.4,Win32,60.0240096,,,,,,,,,,,,,,141,virios,,,,,,228.791,230.375,0,1,1.048,,0,106,106,140,1,pseudoword,0,REAL,FALSA
,,,,,,,,,5ee7fbc114d0a60f9b076fb6,001,2025-04-30_12h22.54.880,empathy_intonation_perc,2024.1.4,Win32,60.0240096,,,,,,,,,,,,,,70,ánimo,,,,,,230.375,232.259,1,0,1.345,,0,107,107,69,1,non_cognate,1,REAL,FALSA
,,,,,,,,,5ee7fbc114d0a60f9b076fb6,001,2025-04-30_12h22.54.880,empathy_intonation_perc,2024.1.4,Win32,60.0240096,,,,,,,,,,,,,,86,cuenco,,,,,,232.263,233.54,1,0,0.737,,0,108,108,85,1,non_cognate,1,REAL,FALSA
,,,,,,,,,5ee7fbc114d0a60f9b076fb6,001,2025-04-30_12h22.54.880,empathy_intonation_perc,2024.1.4,Win32,60.0240096,,,,,,,,,,,,,,127,vien,,,,,,233.541,235.222,1,0,1.132,,0,109,109,126,1,pseudoword,0,REAL,FALSA
,,,,,,,,,5ee7fbc114d0a60f9b076fb6,001,2025-04-30_12h22.54.880,empathy_intonation_perc,2024.1.4,Win32,60.0240096,,,,,,,,,,,,,,63,hilo,,,,,,235.224,236.774,0,1,1.02,,0,110,110,62,1,non_cognate,1,REAL,FALSA
,,,,,,,,,5ee7fbc114d0a60f9b076fb6,001,2025-04-30_12h22.54.880,empathy_intonation_perc,2024.1.4,Win32,60.0240096,,,,,,,,,,,,,,132,nocó,,,,,,236.774,238.507,0,1,1.192,,0,111,111,131,1,pseudoword,0,REAL,FALSA
,,,,,,,,,5ee7fbc114d0a60f9b076fb6,001,2025-04-30_12h22.54.880,empathy_intonation_perc,2024.1.4,Win32,60.0240096,,,,,,,,,,,,,,137,trugo,,,,,,238.507,240.056,0,1,1.004,,0,112,112,136,1,pseudoword,0,REAL,FALSA
,,,,,,,,,5ee7fbc114d0a60f9b076fb6,001,2025-04-30_12h22.54.880,empathy_intonation_perc,2024.1.4,Win32,60.0240096,,,,,,,,,,,,,,176,gripar,,,,,,240.057,241.44,1,0,0.833,,0,113,113,175,1,pseudoword,0,REAL,FALSA
,,,,,,,,,5ee7fbc114d0a60f9b076fb6,001,2025-04-30_12h22.54.880,empathy_intonation_perc,2024.1.4,Win32,60.0240096,,,,,,,,,,,,,,97,nocita,,,,,,241.441,243.323,0,1,1.334,,0,114,114,96,1,pseudoword,0,REAL,FALSA
,,,,,,,,,5ee7fbc114d0a60f9b076fb6,001,2025-04-30_12h22.54.880,empathy_intonation_perc,2024.1.4,Win32,60.0240096,,,,,,,,,,,,,,82,brillo,,,,,,243.324,245.673,0,1,1.81,,0,115,115,81,1,non_cognate,1,REAL,FALSA
,,,,,,,,,5ee7fbc114d0a60f9b076fb6,001,2025-04-30_12h22.54.880,empathy_intonation_perc,2024.1.4,Win32,60.0240096,,,,,,,,,,,,,,46,mortal,,,,,,245.674,247.156,1,0,0.931,,0,116,116,45,1,two_way_cognate,1,REAL,FALSA
,,,,,,,,,5ee7fbc114d0a60f9b076fb6,001,2025-04-30_12h22.54.880,empathy_intonation_perc,2024.1.4,Win32,60.0240096,,,,,,,,,,,,,,96,caro,,,,,,247.157,248.489,1,0,0.796,,0,117,117,95,1,non_cognate,1,REAL,FALSA
,,,,,,,,,5ee7fbc114d0a60f9b076fb6,001,2025-04-30_12h22.54.880,empathy_intonation_perc,2024.1.4,Win32,60.0240096,,,,,,,,,,,,,,118,bará,,,,,,248.49,250.757,0,1,1.723,,0,118,118,117,1,pseudoword,0,REAL,FALSA
,,,,,,,,,5ee7fbc114d0a60f9b076fb6,001,2025-04-30_12h22.54.880,empathy_intonation_perc,2024.1.4,Win32,60.0240096,,,,,,,,,,,,,,130,dubo,,,,,,250.757,252.09,0,1,0.81,,0,119,119,129,1,pseudoword,0,REAL,FALSA
,,,,,,,,,5ee7fbc114d0a60f9b076fb6,001,2025-04-30_12h22.54.880,empathy_intonation_perc,2024.1.4,Win32,60.0240096,,,,,,,,,,,,,,55,maldad,,,,,,252.09,254.224,1,0,1.614,,0,120,120,54,1,non_cognate,1,REAL,FALSA
,,,,,,,,,5ee7fbc114d0a60f9b076fb6,001,2025-04-30_12h22.54.880,empathy_intonation_perc,2024.1.4,Win32,60.0240096,,,,,,,,,,,,,,185,aljizo,,,,,,254.224,256.49,1,0,1.733,,0,121,121,184,1,pseudoword,0,REAL,FALSA
,,,,,,,,,5ee7fbc114d0a60f9b076fb6,001,2025-04-30_12h22.54.880,empathy_intonation_perc,2024.1.4,Win32,60.0240096,,,,,,,,,,,,,,89,muñeca,,,,,,256.491,258.906,1,0,1.878,,0,122,122,88,1,non_cognate,1,REAL,FALSA
,,,,,,,,,5ee7fbc114d0a60f9b076fb6,001,2025-04-30_12h22.54.880,empathy_intonation_perc,2024.1.4,Win32,60.0240096,,,,,,,,,,,,,,151,prías,,,,,,258.907,260.541,0,1,1.109,,0,123,123,150,1,pseudoword,0,REAL,FALSA
,,,,,,,,,5ee7fbc114d0a60f9b076fb6,001,2025-04-30_12h22.54.880,empathy_intonation_perc,2024.1.4,Win32,60.0240096,,,,,,,,,,,,,,162,cengo,,,,,,260.542,263.032,0,1,1.955,,0,124,124,161,1,pseudoword,0,REAL,FALSA
,,,,,,,,,5ee7fbc114d0a60f9b076fb6,001,2025-04-30_12h22.54.880,empathy_intonation_perc,2024.1.4,Win32,60.0240096,,,,,,,,,,,,,,13,plan,,,,,,263.033,264.868,1,0,1.304,,0,125,125,12,1,three_way_cognate,1,REAL,FALSA
,,,,,,,,,5ee7fbc114d0a60f9b076fb6,001,2025-04-30_12h22.54.880,empathy_intonation_perc,2024.1.4,Win32,60.0240096,,,,,,,,,,,,,,12,dogma,,,,,,264.868,266.373,0,1,0.975,,0,126,126,11,1,three_way_cognate,1,REAL,FALSA
,,,,,,,,,5ee7fbc114d0a60f9b076fb6,001,2025-04-30_12h22.54.880,empathy_intonation_perc,2024.1.4,Win32,60.0240096,,,,,,,,,,,,,,120,mauja,,,,,,266.376,268.924,0,1,2.004,,0,127,127,119,1,pseudoword,0,REAL,FALSA
,,,,,,,,,5ee7fbc114d0a60f9b076fb6,001,2025-04-30_12h22.54.880,empathy_intonation_perc,2024.1.4,Win32,60.0240096,,,,,,,,,,,,,,187,nomata,,,,,,268.924,270.99,0,1,1.531,,0,128,128,186,1,pseudoword,0,REAL,FALSA
,,,,,,,,,5ee7fbc114d0a60f9b076fb6,001,2025-04-30_12h22.54.880,empathy_intonation_perc,2024.1.4,Win32,60.0240096,,,,,,,,,,,,,,64,rizado,,,,,,270.99,272.256,1,0,0.715,,0,129,129,63,1,non_cognate,1,REAL,FALSA
,,,,,,,,,5ee7fbc114d0a60f9b076fb6,001,2025-04-30_12h22.54.880,empathy_intonation_perc,2024.1.4,Win32,60.0240096,,,,,,,,,,,,,,77,suave,,,,,,272.257,273.54,1,0,0.757,,0,130,130,76,1,non_cognate,1,REAL,FALSA
,,,,,,,,,5ee7fbc114d0a60f9b076fb6,001,2025-04-30_12h22.54.880,empathy_intonation_perc,2024.1.4,Win32,60.0240096,,,,,,,,,,,,,,164,tecia,,,,,,273.54,275.34,0,1,1.272,,0,131,131,163,1,pseudoword,0,REAL,FALSA
,,,,,,,,,5ee7fbc114d0a60f9b076fb6,001,2025-04-30_12h22.54.880,empathy_intonation_perc,2024.1.4,Win32,60.0240096,,,,,,,,,,,,,,48,pelvis,,,,,,275.341,276.643,0,1,0.758,,0,132,132,47,1,two_way_cognate,1,REAL,FALSA
,,,,,,,,,5ee7fbc114d0a60f9b076fb6,001,2025-04-30_12h22.54.880,empathy_intonation_perc,2024.1.4,Win32,60.0240096,,,,,,,,,,,,,,95,listo,,,,,,276.644,278.324,1,0,1.14,,0,133,133,94,1,non_cognate,1,REAL,FALSA
,,,,,,,,,5ee7fbc114d0a60f9b076fb6,001,2025-04-30_12h22.54.880,empathy_intonation_perc,2024.1.4,Win32,60.0240096,,,,,,,,,,,,,,170,diabo,,,,,,278.324,281.489,0,1,2.624,,0,134,134,169,1,pseudoword,0,REAL,FALSA
,,,,,,,,,5ee7fbc114d0a60f9b076fb6,001,2025-04-30_12h22.54.880,empathy_intonation_perc,2024.1.4,Win32,60.0240096,,,,,,,,,,,,,,74,ala,,,,,,281.49,283.707,1,0,1.698,,0,135,135,73,1,non_cognate,1,REAL,FALSA
,,,,,,,,,5ee7fbc114d0a60f9b076fb6,001,2025-04-30_12h22.54.880,empathy_intonation_perc,2024.1.4,Win32,60.0240096,,,,,,,,,,,,,,68,puñal,,,,,,283.708,286.473,1,0,2.215,,0,136,136,67,1,non_cognate,1,REAL,FALSA
,,,,,,,,,5ee7fbc114d0a60f9b076fb6,001,2025-04-30_12h22.54.880,empathy_intonation_perc,2024.1.4,Win32,60.0240096,,,,,,,,,,,,,,57,regalo,,,,,,286.475,288.29,0,1,1.278,,0,137,137,56,1,non_cognate,1,REAL,FALSA
,,,,,,,,,5ee7fbc114d0a60f9b076fb6,001,2025-04-30_12h22.54.880,empathy_intonation_perc,2024.1.4,Win32,60.0240096,,,,,,,,,,,,,,110,densó,,,,,,288.291,289.823,1,0,0.983,,0,138,138,109,1,pseudoword,0,REAL,FALSA
,,,,,,,,,5ee7fbc114d0a60f9b076fb6,001,2025-04-30_12h22.54.880,empathy_intonation_perc,2024.1.4,Win32,60.0240096,,,,,,,,,,,,,,129,vinzó,,,,,,289.824,291.307,0,1,0.951,,0,139,139,128,1,pseudoword,0,REAL,FALSA
,,,,,,,,,5ee7fbc114d0a60f9b076fb6,001,2025-04-30_12h22.54.880,empathy_intonation_perc,2024.1.4,Win32,60.0240096,,,,,,,,,,,,,,23,plural,,,,,,291.308,293.073,1,0,1.211,,0,140,140,22,1,three_way_cognate,1,REAL,FALSA
,,,,,,,,,5ee7fbc114d0a60f9b076fb6,001,2025-04-30_12h22.54.880,empathy_intonation_perc,2024.1.4,Win32,60.0240096,,,,,,,,,,,,,,143,hurcos,,,,,,293.074,296.124,0,1,2.498,,0,141,141,142,1,pseudoword,0,REAL,FALSA
,,,,,,,,,5ee7fbc114d0a60f9b076fb6,001,2025-04-30_12h22.54.880,empathy_intonation_perc,2024.1.4,Win32,60.0240096,,,,,,,,,,,,,,83,hálito,,,,,,296.125,297.924,1,0,1.261,,0,142,142,82,1,non_cognate,1,REAL,FALSA
,,,,,,,,,5ee7fbc114d0a60f9b076fb6,001,2025-04-30_12h22.54.880,empathy_intonation_perc,2024.1.4,Win32,60.0240096,,,,,,,,,,,,,,5,extra,,,,,,297.924,299.925,1,0,1.453,,0,143,143,4,1,three_way_cognate,1,REAL,FALSA
,,,,,,,,,5ee7fbc114d0a60f9b076fb6,001,2025-04-30_12h22.54.880,empathy_intonation_perc,2024.1.4,Win32,60.0240096,,,,,,,,,,,,,,56,pico,,,,,,299.929,302.257,1,0,1.791,,0,144,144,55,1,non_cognate,1,REAL,FALSA
,,,,,,,,,5ee7fbc114d0a60f9b076fb6,001,2025-04-30_12h22.54.880,empathy_intonation_perc,2024.1.4,Win32,60.0240096,,,,,,,,,,,,,,9,portal,,,,,,302.258,304.257,1,0,1.457,,0,145,145,8,1,three_way_cognate,1,REAL,FALSA
,,,,,,,,,5ee7fbc114d0a60f9b076fb6,001,2025-04-30_12h22.54.880,empathy_intonation_perc,2024.1.4,Win32,60.0240096,,,,,,,,,,,,,,49,teñir,,,,,,304.258,306.157,0,1,1.348,,0,146,146,48,1,non_cognate,1,REAL,FALSA
,,,,,,,,,5ee7fbc114d0a60f9b076fb6,001,2025-04-30_12h22.54.880,empathy_intonation_perc,2024.1.4,Win32,60.0240096,,,,,,,,,,,,,,78,rendir,,,,,,306.159,308.056,0,1,1.35,,0,147,147,77,1,non_cognate,1,REAL,FALSA
,,,,,,,,,5ee7fbc114d0a60f9b076fb6,001,2025-04-30_12h22.54.880,empathy_intonation_perc,2024.1.4,Win32,60.0240096,,,,,,,,,,,,,,157,seled,,,,,,308.058,309.656,0,1,1.068,,0,148,148,156,1,pseudoword,0,REAL,FALSA
,,,,,,,,,5ee7fbc114d0a60f9b076fb6,001,2025-04-30_12h22.54.880,empathy_intonation_perc,2024.1.4,Win32,60.0240096,,,,,,,,,,,,,,139,sasos,,,,,,309.657,311.607,0,1,1.408,,0,149,149,138,1,pseudoword,0,REAL,FALSA
,,,,,,,,,5ee7fbc114d0a60f9b076fb6,001,2025-04-30_12h22.54.880,empathy_intonation_perc,2024.1.4,Win32,60.0240096,,,,,,,,,,,,,,167,dobbo,,,,,,311.608,313.173,0,1,1.022,,0,150,150,166,1,pseudoword,0,REAL,FALSA
,,,,,,,,,5ee7fbc114d0a60f9b076fb6,001,2025-04-30_12h22.54.880,empathy_intonation_perc,2024.1.4,Win32,60.0240096,,,,,,,,,,,,,,138,tator,,,,,,313.175,314.891,0,1,1.165,,0,151,151,137,1,pseudoword,0,REAL,FALSA
,,,,,,,,,5ee7fbc114d0a60f9b076fb6,001,2025-04-30_12h22.54.880,empathy_intonation_perc,2024.1.4,Win32,60.0240096,,,,,,,,,,,,,,163,llzan,,,,,,314.892,319.556,0,1,4.118,,0,152,152,162,1,pseudoword,0,REAL,FALSA
,,,,,,,,,5ee7fbc114d0a60f9b076fb6,001,2025-04-30_12h22.54.880,empathy_intonation_perc,2024.1.4,Win32,60.0240096,,,,,,,,,,,,,,165,chote,,,,,,319.557,323.057,0,1,2.948,,0,153,153,164,1,pseudoword,0,REAL,FALSA
,,,,,,,,,5ee7fbc114d0a60f9b076fb6,001,2025-04-30_12h22.54.880,empathy_intonation_perc,2024.1.4,Win32,60.0240096,,,,,,,,,,,,,,106,diebro,,,,,,323.057,324.774,1,0,1.182,,0,154,154,105,1,pseudoword,0,REAL,FALSA
,,,,,,,,,5ee7fbc114d0a60f9b076fb6,001,2025-04-30_12h22.54.880,empathy_intonation_perc,2024.1.4,Win32,60.0240096,,,,,,,,,,,,,,93,tapa,,,,,,324.774,326.09,1,0,0.768,,0,155,155,92,1,non_cognate,1,REAL,FALSA
,,,,,,,,,5ee7fbc114d0a60f9b076fb6,001,2025-04-30_12h22.54.880,empathy_intonation_perc,2024.1.4,Win32,60.0240096,,,,,,,,,,,,,,26,enigma,,,,,,326.09,327.54,1,0,0.921,,0,156,156,25,1,two_way_cognate,1,REAL,FALSA
,,,,,,,,,5ee7fbc114d0a60f9b076fb6,001,2025-04-30_12h22.54.880,empathy_intonation_perc,2024.1.4,Win32,60.0240096,,,,,,,,,,,,,,166,anfia,,,,,,327.54,330.324,0,1,2.261,,0,157,157,165,1,pseudoword,0,REAL,FALSA
,,,,,,,,,5ee7fbc114d0a60f9b076fb6,001,2025-04-30_12h22.54.880,empathy_intonation_perc,2024.1.4,Win32,60.0240096,,,,,,,,,,,,,,180,pupica,,,,,,330.325,331.84,1,0,0.971,,0,158,158,179,1,pseudoword,0,REAL,FALSA
,,,,,,,,,5ee7fbc114d0a60f9b076fb6,001,2025-04-30_12h22.54.880,empathy_intonation_perc,2024.1.4,Win32,60.0240096,,,,,,,,,,,,,,4,flora,,,,,,331.841,333.076,1,0,0.696,,0,159,159,3,1,three_way_cognate,1,REAL,FALSA
,,,,,,,,,5ee7fbc114d0a60f9b076fb6,001,2025-04-30_12h22.54.880,empathy_intonation_perc,2024.1.4,Win32,60.0240096,,,,,,,,,,,,,,105,peniz,,,,,,333.079,334.524,0,1,0.901,,0,160,160,104,1,pseudoword,0,REAL,FALSA
,,,,,,,,,5ee7fbc114d0a60f9b076fb6,001,2025-04-30_12h22.54.880,empathy_intonation_perc,2024.1.4,Win32,60.0240096,,,,,,,,,,,,,,69,tiza,,,,,,334.524,336.556,0,1,1.502,,0,161,161,68,1,non_cognate,1,REAL,FALSA
,,,,,,,,,5ee7fbc114d0a60f9b076fb6,001,2025-04-30_12h22.54.880,empathy_intonation_perc,2024.1.4,Win32,60.0240096,,,,,,,,,,,,,,133,conso,,,,,,336.557,338.141,1,0,1.046,,0,162,162,132,1,pseudoword,0,REAL,FALSA
,,,,,,,,,5ee7fbc114d0a60f9b076fb6,001,2025-04-30_12h22.54.880,empathy_intonation_perc,2024.1.4,Win32,60.0240096,,,,,,,,,,,,,,6,horror,,,,,,338.143,339.524,1,0,0.838,,0,163,163,5,1,three_way_cognate,1,REAL,FALSA
,,,,,,,,,5ee7fbc114d0a60f9b076fb6,001,2025-04-30_12h22.54.880,empathy_intonation_perc,2024.1.4,Win32,60.0240096,,,,,,,,,,,,,,29,clamor,,,,,,339.524,340.957,1,0,0.881,,0,164,164,28,1,two_way_cognate,1,REAL,FALSA
,,,,,,,,,5ee7fbc114d0a60f9b076fb6,001,2025-04-30_12h22.54.880,empathy_intonation_perc,2024.1.4,Win32,60.0240096,,,,,,,,,,,,,,34,actor,,,,,,340.957,342.641,0,1,1.149,,0,165,165,33,1,two_way_cognate,1,REAL,FALSA
,,,,,,,,,5ee7fbc114d0a60f9b076fb6,001,2025-04-30_12h22.54.880,empathy_intonation_perc,2024.1.4,Win32,60.0240096,,,,,,,,,,,,,,91,equipo,,,,,,342.643,344.707,1,0,1.522,,0,166,166,90,1,non_cognate,1,REAL,FALSA
,,,,,,,,,5ee7fbc114d0a60f9b076fb6,001,2025-04-30_12h22.54.880,empathy_intonation_perc,2024.1.4,Win32,60.0240096,,,,,,,,,,,,,,37,torso,,,,,,344.708,346.157,1,0,0.899,,0,167,167,36,1,two_way_cognate,1,REAL,FALSA
,,,,,,,,,5ee7fbc114d0a60f9b076fb6,001,2025-04-30_12h22.54.880,empathy_intonation_perc,2024.1.4,Win32,60.0240096,,,,,,,,,,,,,,184,huenos,,,,,,346.158,347.507,1,0,0.802,,0,168,168,183,1,pseudoword,0,REAL,FALSA
,,,,,,,,,5ee7fbc114d0a60f9b076fb6,001,2025-04-30_12h22.54.880,empathy_intonation_perc,2024.1.4,Win32,60.0240096,,,,,,,,,,,,,,188,amplir,,,,,,347.508,349.158,1,0,1.12,,0,169,169,187,1,pseudoword,0,REAL,FALSA
,,,,,,,,,5ee7fbc114d0a60f9b076fb6,001,2025-04-30_12h22.54.880,empathy_intonation_perc,2024.1.4,Win32,60.0240096,,,,,,,,,,,,,,116,grigir,,,,,,349.159,350.757,0,1,1.048,,0,170,170,115,1,pseudoword,0,REAL,FALSA
,,,,,,,,,5ee7fbc114d0a60f9b076fb6,001,2025-04-30_12h22.54.880,empathy_intonation_perc,2024.1.4,Win32,60.0240096,,,,,,,,,,,,,,8,kilo,,,,,,350.758,352.074,1,0,0.782,,0,171,171,7,1,three_way_cognate,1,REAL,FALSA
,,,,,,,,,5ee7fbc114d0a60f9b076fb6,001,2025-04-30_12h22.54.880,empathy_intonation_perc,2024.1.4,Win32,60.0240096,,,,,,,,,,,,,,117,morrá,,,,,,352.074,353.54,0,1,0.931,,0,172,172,116,1,pseudoword,0,REAL,FALSA
,,,,,,,,,5ee7fbc114d0a60f9b076fb6,001,2025-04-30_12h22.54.880,empathy_intonation_perc,2024.1.4,Win32,60.0240096,,,,,,,,,,,,,,107,plago,,,,,,353.541,355.506,1,0,1.42,,0,173,173,106,1,pseudoword,0,REAL,FALSA
,,,,,,,,,5ee7fbc114d0a60f9b076fb6,001,2025-04-30_12h22.54.880,empathy_intonation_perc,2024.1.4,Win32,60.0240096,,,,,,,,,,,,,,146,gió,,,,,,355.507,358.024,0,1,2.005,,0,174,174,145,1,pseudoword,0,REAL,FALSA
,,,,,,,,,5ee7fbc114d0a60f9b076fb6,001,2025-04-30_12h22.54.880,empathy_intonation_perc,2024.1.4,Win32,60.0240096,,,,,,,,,,,,,,121,barbs,,,,,,358.024,359.64,0,1,1.088,,0,175,175,120,1,pseudoword,0,REAL,FALSA
,,,,,,,,,5ee7fbc114d0a60f9b076fb6,001,2025-04-30_12h22.54.880,empathy_intonation_perc,2024.1.4,Win32,60.0240096,,,,,,,,,,,,,,171,gotro,,,,,,359.641,361.607,0,1,1.422,,0,176,176,170,1,pseudoword,0,REAL,FALSA
,,,,,,,,,5ee7fbc114d0a60f9b076fb6,001,2025-04-30_12h22.54.880,empathy_intonation_perc,2024.1.4,Win32,60.0240096,,,,,,,,,,,,,,76,chocar,,,,,,361.607,363.907,1,0,1.773,,0,177,177,75,1,non_cognate,1,REAL,FALSA
,,,,,,,,,5ee7fbc114d0a60f9b076fb6,001,2025-04-30_12h22.54.880,empathy_intonation_perc,2024.1.4,Win32,60.0240096,,,,,,,,,,,,,,25,vigor,,,,,,363.909,365.173,1,0,0.718,,0,178,178,24,1,two_way_cognate,1,REAL,FALSA
,,,,,,,,,5ee7fbc114d0a60f9b076fb6,001,2025-04-30_12h22.54.880,empathy_intonation_perc,2024.1.4,Win32,60.0240096,,,,,,,,,,,,,,156,ozoso,,,,,,365.174,367.875,0,1,2.149,,0,179,179,155,1,pseudoword,0,REAL,FALSA
,,,,,,,,,5ee7fbc114d0a60f9b076fb6,001,2025-04-30_12h22.54.880,empathy_intonation_perc,2024.1.4,Win32,60.0240096,,,,,,,,,,,,,,115,lidena,,,,,,367.878,369.491,0,1,1.066,,0,180,180,114,1,pseudoword,0,REAL,FALSA
,,,,,,,,,5ee7fbc114d0a60f9b076fb6,001,2025-04-30_12h22.54.880,empathy_intonation_perc,2024.1.4,Win32,60.0240096,,,,,,,,,,,,,,35,aurora,,,,,,369.492,371.091,1,0,1.052,,0,181,181,34,1,two_way_cognate,1,REAL,FALSA
,,,,,,,,,5ee7fbc114d0a60f9b076fb6,001,2025-04-30_12h22.54.880,empathy_intonation_perc,2024.1.4,Win32,60.0240096,,,,,,,,,,,,,,15,test,,,,,,371.093,373.24,1,0,1.615,,0,182,182,14,1,three_way_cognate,1,REAL,FALSA
,,,,,,,,,5ee7fbc114d0a60f9b076fb6,001,2025-04-30_12h22.54.880,empathy_intonation_perc,2024.1.4,Win32,60.0240096,,,,,,,,,,,,,,17,clan,,,,,,373.241,375.574,0,1,1.783,,0,183,183,16,1,three_way_cognate,1,REAL,FALSA
,,,,,,,,,5ee7fbc114d0a60f9b076fb6,001,2025-04-30_12h22.54.880,empathy_intonation_perc,2024.1.4,Win32,60.0240096,,,,,,,,,,,,,,112,samón,,,,,,375.576,377.024,1,0,0.907,,0,184,184,111,1,pseudoword,0,REAL,FALSA
,,,,,,,,,5ee7fbc114d0a60f9b076fb6,001,2025-04-30_12h22.54.880,empathy_intonation_perc,2024.1.4,Win32,60.0240096,,,,,,,,,,,,,,30,fiscal,,,,,,377.024,378.591,1,0,1.034,,0,185,185,29,1,two_way_cognate,1,REAL,FALSA
,,,,,,,,,5ee7fbc114d0a60f9b076fb6,001,2025-04-30_12h22.54.880,empathy_intonation_perc,2024.1.4,Win32,60.0240096,,,,,,,,,,,,,,32,animal,,,,,,378.591,380.374,1,0,1.24,,0,186,186,31,1,two_way_cognate,1,REAL,FALSA
,,,,,,,,,5ee7fbc114d0a60f9b076fb6,001,2025-04-30_12h22.54.880,empathy_intonation_perc,2024.1.4,Win32,60.0240096,,,,,,,,,,,,,,178,inichó,,,,,,380.375,382.207,1,0,1.285,,0,187,187,177,1,pseudoword,0,REAL,FALSA
,,,,,,,,,5ee7fbc114d0a60f9b076fb6,001,2025-04-30_12h22.54.880,empathy_intonation_perc,2024.1.4,Win32,60.0240096,,,,,,,,,,,,,,102,coyo,,,,,,382.208,384.007,1,0,1.265,,0,188,188,101,1,pseudoword,0,REAL,FALSA
,,,,,,,,,5ee7fbc114d0a60f9b076fb6,001,2025-04-30_12h22.54.880,empathy_intonation_perc,2024.1.4,Win32,60.0240096,,,,,,,,,,,,,,2,tumor,,,,,,384.008,385.758,1,0,1.217,,0,189,189,1,1,three_way_cognate,1,REAL,FALSA
,,,,,,,,,5ee7fbc114d0a60f9b076fb6,001,2025-04-30_12h22.54.880,empathy_intonation_perc,2024.1.4,Win32,60.0240096,,,,,,,,,,,,,,175,tradía,,,,,,385.759,387.874,1,0,1.573,,0,190,190,174,1,pseudoword,0,REAL,FALSA
,,,,,,,,,5ee7fbc114d0a60f9b076fb6,001,2025-04-30_12h22.54.880,empathy_intonation_perc,2024.1.4,Win32,60.0240096,,,,,,,,,,,,,,44,editor,,,,,,387.875,389.974,0,1,1.556,,0,191,191,43,1,two_way_cognate,1,REAL,FALSA
