lextale_instructions.started,lextale_instructions.stopped,lextale_instructions_loop.thisRepN,lextale_instructions_loop.thisTrialN,lextale_instructions_loop.thisN,lextale_instructions_loop.thisIndex,lextale_instructions_loop.ran,instructions_text,continue_text,participant,session,date,expName,psychopyVersion,OS,frameRate,lextale_practice.started,lextale_practice.stopped,key_resp_lextale_practice.keys,key_resp_lextale_practice.corr,key_resp_lextale_practice.rt,key_resp_lextale_practice.duration,lextale_practice_feedback.started,lextale_practice_feedback.stopped,lextale_practice_trials.thisRepN,lextale_practice_trials.thisTrialN,lextale_practice_trials.thisN,lextale_practice_trials.thisIndex,lextale_practice_trials.ran,stim,word,correct_response,prac_button_real,prac_button_false,lextale_check.started,lextale_check.stopped,lextale_trial.started,lextale_trial.stopped,key_resp_lextale_trial.keys,key_resp_lextale_trial.corr,key_resp_lextale_trial.rt,key_resp_lextale_trial.duration,lextail_trials.thisRepN,lextail_trials.thisTrialN,lextail_trials.thisN,lextail_trials.thisIndex,lextail_trials.ran,type,correct_reponse,button_real,button_false
0.004,42.907,0,0,0,0,1,"Este es un test de vocabulario en español. 
  
  A continuación vas a ver 90 secuencias de letras que parecen 'españolas'.
  
  Solo algunas de ellas son palabras de verdad.",(presiona la barra espaciadora para continuar),5f56506b2a8fb805ac024015,001,2025-04-30_18h48.21.660,empathy_intonation_perc,2024.1.4,Win32,60.0240096,,,,,,,,,,,,,,,,,,,,,,,,,,,,,,,,,,,
42.911,65.119,0,1,1,1,1,"Por favor, señala las palabras que tú conoces (aquellas que estás convencido que son palabras españolas, incluso aunque no seas capaz de dar el significado preciso).",(presiona la barra espaciadora para continuar),5f56506b2a8fb805ac024015,001,2025-04-30_18h48.21.660,empathy_intonation_perc,2024.1.4,Win32,60.0240096,,,,,,,,,,,,,,,,,,,,,,,,,,,,,,,,,,,
65.12,93.73,0,2,2,2,1,Pero cuidado: los errores se penalizan. Por eso no tiene sentido tratar de incrementar tu puntuación marcando como reales palabras que nunca has visto.,(presiona la barra espaciadora para continuar),5f56506b2a8fb805ac024015,001,2025-04-30_18h48.21.660,empathy_intonation_perc,2024.1.4,Win32,60.0240096,,,,,,,,,,,,,,,,,,,,,,,,,,,,,,,,,,,
93.735,120.225,0,3,3,3,1,"Presiona la tecla 1 si piensas que es una palabra real y la tecla 
  0 si piensas que es una palabra falsa. 
  
  Vamos a practicar un poco...",(presiona la barra espaciadora para continuar),5f56506b2a8fb805ac024015,001,2025-04-30_18h48.21.660,empathy_intonation_perc,2024.1.4,Win32,60.0240096,,,,,,,,,,,,,,,,,,,,,,,,,,,,,,,,,,,
,,,,,,,,,5f56506b2a8fb805ac024015,001,2025-04-30_18h48.21.660,empathy_intonation_perc,2024.1.4,Win32,60.0240096,120.233,122.458,1,0,1.684,,122.458,123.458,0,0,0,0,1,0,depiste,0,REAL,FALSA,,,,,,,,,,,,,,,,,
,,,,,,,,,5f56506b2a8fb805ac024015,001,2025-04-30_18h48.21.660,empathy_intonation_perc,2024.1.4,Win32,60.0240096,123.459,125.924,1,1,1.934,,125.924,126.923,0,1,1,1,1,0,sí,1,REAL,FALSA,,,,,,,,,,,,,,,,,
,,,,,,,,,5f56506b2a8fb805ac024015,001,2025-04-30_18h48.21.660,empathy_intonation_perc,2024.1.4,Win32,60.0240096,126.924,129.157,0,1,1.698,,129.157,130.157,0,2,2,2,1,0,coné,0,REAL,FALSA,,,,,,,,,,,,,,,,,
,,,,,,,,,5f56506b2a8fb805ac024015,001,2025-04-30_18h48.21.660,empathy_intonation_perc,2024.1.4,Win32,60.0240096,130.16,131.689,0,1,0.987,,131.689,132.69,0,3,3,3,1,0,calpar,0,REAL,FALSA,,,,,,,,,,,,,,,,,
,,,,,,,,,5f56506b2a8fb805ac024015,001,2025-04-30_18h48.21.660,empathy_intonation_perc,2024.1.4,Win32,60.0240096,132.69,134.006,0,1,0.767,,134.006,135.005,0,4,4,4,1,0,joten,0,REAL,FALSA,,,,,,,,,,,,,,,,,
,,,,,,,,,5f56506b2a8fb805ac024015,001,2025-04-30_18h48.21.660,empathy_intonation_perc,2024.1.4,Win32,60.0240096,135.006,136.872,0,0,1.312,,136.872,137.872,0,5,5,5,1,0,sacapuntas,1,REAL,FALSA,,,,,,,,,,,,,,,,,
,,,,,,,,,5f56506b2a8fb805ac024015,001,2025-04-30_18h48.21.660,empathy_intonation_perc,2024.1.4,Win32,60.0240096,137.872,141.088,1,0,2.669,,141.088,142.088,0,6,6,6,1,0,priba,0,REAL,FALSA,,,,,,,,,,,,,,,,,
,,,,,,,,,5f56506b2a8fb805ac024015,001,2025-04-30_18h48.21.660,empathy_intonation_perc,2024.1.4,Win32,60.0240096,142.088,143.538,0,1,0.903,,143.538,144.537,0,7,7,7,1,0,pelasula,0,REAL,FALSA,,,,,,,,,,,,,,,,,
,,,,,,,,,5f56506b2a8fb805ac024015,001,2025-04-30_18h48.21.660,empathy_intonation_perc,2024.1.4,Win32,60.0240096,144.537,145.737,1,1,0.672,,145.737,146.737,0,8,8,8,1,0,bien,1,REAL,FALSA,,,,,,,,,,,,,,,,,
,,,,,,,,,5f56506b2a8fb805ac024015,001,2025-04-30_18h48.21.660,empathy_intonation_perc,2024.1.4,Win32,60.0240096,146.737,147.92,1,1,0.629,,147.92,148.92,0,9,9,9,1,0,casa,1,REAL,FALSA,,,,,,,,,,,,,,,,,
,,,,,,,,,5f56506b2a8fb805ac024015,001,2025-04-30_18h48.21.660,empathy_intonation_perc,2024.1.4,Win32,60.0240096,148.92,150.485,1,0,1.022,,150.485,151.486,0,10,10,10,1,0,lejo,0,REAL,FALSA,,,,,,,,,,,,,,,,,
,,,,,,,,,5f56506b2a8fb805ac024015,001,2025-04-30_18h48.21.660,empathy_intonation_perc,2024.1.4,Win32,60.0240096,151.486,153.452,0,1,1.411,,153.452,154.452,0,11,11,11,1,0,pretantas,0,REAL,FALSA,,,,,,,,,,,,,,,,,
,,,,,,,,,5f56506b2a8fb805ac024015,001,2025-04-30_18h48.21.660,empathy_intonation_perc,2024.1.4,Win32,60.0240096,,,,,,,,,,,,,,,,,,,154.452,158.251,,,,,,,,,,,,,,,
,,,,,,,,,5f56506b2a8fb805ac024015,001,2025-04-30_18h48.21.660,empathy_intonation_perc,2024.1.4,Win32,60.0240096,,,,,,,,,,,,,,13,plan,,,,,,158.265,160.818,1,0,2.007,,0,0,0,12,1,three_way_cognate,1,REAL,FALSA
,,,,,,,,,5f56506b2a8fb805ac024015,001,2025-04-30_18h48.21.660,empathy_intonation_perc,2024.1.4,Win32,60.0240096,,,,,,,,,,,,,,189,medium,,,,,,160.823,163.034,1,0,1.667,,0,1,1,188,1,pseudoword,0,REAL,FALSA
,,,,,,,,,5f56506b2a8fb805ac024015,001,2025-04-30_18h48.21.660,empathy_intonation_perc,2024.1.4,Win32,60.0240096,,,,,,,,,,,,,,30,fiscal,,,,,,163.034,164.733,0,1,1.167,,0,2,2,29,1,two_way_cognate,1,REAL,FALSA
,,,,,,,,,5f56506b2a8fb805ac024015,001,2025-04-30_18h48.21.660,empathy_intonation_perc,2024.1.4,Win32,60.0240096,,,,,,,,,,,,,,10,drama,,,,,,164.733,166.732,1,0,1.466,,0,3,3,9,1,three_way_cognate,1,REAL,FALSA
,,,,,,,,,5f56506b2a8fb805ac024015,001,2025-04-30_18h48.21.660,empathy_intonation_perc,2024.1.4,Win32,60.0240096,,,,,,,,,,,,,,93,tapa,,,,,,166.733,168.432,1,0,1.154,,0,4,4,92,1,non_cognate,1,REAL,FALSA
,,,,,,,,,5f56506b2a8fb805ac024015,001,2025-04-30_18h48.21.660,empathy_intonation_perc,2024.1.4,Win32,60.0240096,,,,,,,,,,,,,,103,vueras,,,,,,168.432,169.798,0,1,0.835,,0,5,5,102,1,pseudoword,0,REAL,FALSA
,,,,,,,,,5f56506b2a8fb805ac024015,001,2025-04-30_18h48.21.660,empathy_intonation_perc,2024.1.4,Win32,60.0240096,,,,,,,,,,,,,,149,emén,,,,,,169.799,171.064,0,1,0.722,,0,6,6,148,1,pseudoword,0,REAL,FALSA
,,,,,,,,,5f56506b2a8fb805ac024015,001,2025-04-30_18h48.21.660,empathy_intonation_perc,2024.1.4,Win32,60.0240096,,,,,,,,,,,,,,34,actor,,,,,,171.065,173.148,1,0,1.537,,0,7,7,33,1,two_way_cognate,1,REAL,FALSA
,,,,,,,,,5f56506b2a8fb805ac024015,001,2025-04-30_18h48.21.660,empathy_intonation_perc,2024.1.4,Win32,60.0240096,,,,,,,,,,,,,,43,honor,,,,,,173.149,175.914,0,1,2.216,,0,8,8,42,1,two_way_cognate,1,REAL,FALSA
,,,,,,,,,5f56506b2a8fb805ac024015,001,2025-04-30_18h48.21.660,empathy_intonation_perc,2024.1.4,Win32,60.0240096,,,,,,,,,,,,,,61,aduana,,,,,,175.914,177.931,0,1,1.481,,0,9,9,60,1,non_cognate,1,REAL,FALSA
,,,,,,,,,5f56506b2a8fb805ac024015,001,2025-04-30_18h48.21.660,empathy_intonation_perc,2024.1.4,Win32,60.0240096,,,,,,,,,,,,,,172,dogue,,,,,,177.931,179.63,0,1,1.155,,0,10,10,171,1,pseudoword,0,REAL,FALSA
,,,,,,,,,5f56506b2a8fb805ac024015,001,2025-04-30_18h48.21.660,empathy_intonation_perc,2024.1.4,Win32,60.0240096,,,,,,,,,,,,,,87,muleta,,,,,,179.631,180.864,0,1,0.676,,0,11,11,86,1,non_cognate,1,REAL,FALSA
,,,,,,,,,5f56506b2a8fb805ac024015,001,2025-04-30_18h48.21.660,empathy_intonation_perc,2024.1.4,Win32,60.0240096,,,,,,,,,,,,,,78,rendir,,,,,,180.865,183.396,1,0,1.985,,0,12,12,77,1,non_cognate,1,REAL,FALSA
,,,,,,,,,5f56506b2a8fb805ac024015,001,2025-04-30_18h48.21.660,empathy_intonation_perc,2024.1.4,Win32,60.0240096,,,,,,,,,,,,,,6,horror,,,,,,183.397,185.329,1,0,1.384,,0,13,13,5,1,three_way_cognate,1,REAL,FALSA
,,,,,,,,,5f56506b2a8fb805ac024015,001,2025-04-30_18h48.21.660,empathy_intonation_perc,2024.1.4,Win32,60.0240096,,,,,,,,,,,,,,41,pasta,,,,,,185.329,186.529,1,0,0.669,,0,14,14,40,1,two_way_cognate,1,REAL,FALSA
,,,,,,,,,5f56506b2a8fb805ac024015,001,2025-04-30_18h48.21.660,empathy_intonation_perc,2024.1.4,Win32,60.0240096,,,,,,,,,,,,,,91,equipo,,,,,,186.529,189.878,1,0,2.821,,0,15,15,90,1,non_cognate,1,REAL,FALSA
,,,,,,,,,5f56506b2a8fb805ac024015,001,2025-04-30_18h48.21.660,empathy_intonation_perc,2024.1.4,Win32,60.0240096,,,,,,,,,,,,,,52,blando,,,,,,189.879,192.744,0,1,2.316,,0,16,16,51,1,non_cognate,1,REAL,FALSA
,,,,,,,,,5f56506b2a8fb805ac024015,001,2025-04-30_18h48.21.660,empathy_intonation_perc,2024.1.4,Win32,60.0240096,,,,,,,,,,,,,,123,arane,,,,,,192.751,194.077,0,1,0.786,,0,17,17,122,1,pseudoword,0,REAL,FALSA
,,,,,,,,,5f56506b2a8fb805ac024015,001,2025-04-30_18h48.21.660,empathy_intonation_perc,2024.1.4,Win32,60.0240096,,,,,,,,,,,,,,188,amplir,,,,,,194.077,195.544,0,1,0.934,,0,18,18,187,1,pseudoword,0,REAL,FALSA
,,,,,,,,,5f56506b2a8fb805ac024015,001,2025-04-30_18h48.21.660,empathy_intonation_perc,2024.1.4,Win32,60.0240096,,,,,,,,,,,,,,23,plural,,,,,,195.544,197.026,1,0,0.953,,0,19,19,22,1,three_way_cognate,1,REAL,FALSA
,,,,,,,,,5f56506b2a8fb805ac024015,001,2025-04-30_18h48.21.660,empathy_intonation_perc,2024.1.4,Win32,60.0240096,,,,,,,,,,,,,,26,enigma,,,,,,197.027,198.843,0,1,1.266,,0,20,20,25,1,two_way_cognate,1,REAL,FALSA
,,,,,,,,,5f56506b2a8fb805ac024015,001,2025-04-30_18h48.21.660,empathy_intonation_perc,2024.1.4,Win32,60.0240096,,,,,,,,,,,,,,96,caro,,,,,,198.843,201.059,1,0,1.679,,0,21,21,95,1,non_cognate,1,REAL,FALSA
,,,,,,,,,5f56506b2a8fb805ac024015,001,2025-04-30_18h48.21.660,empathy_intonation_perc,2024.1.4,Win32,60.0240096,,,,,,,,,,,,,,40,pelvis,,,,,,201.062,203.308,0,1,1.703,,0,22,22,39,1,two_way_cognate,1,REAL,FALSA
,,,,,,,,,5f56506b2a8fb805ac024015,001,2025-04-30_18h48.21.660,empathy_intonation_perc,2024.1.4,Win32,60.0240096,,,,,,,,,,,,,,181,gravés,,,,,,203.309,204.692,0,1,0.836,,0,23,23,180,1,pseudoword,0,REAL,FALSA
,,,,,,,,,5f56506b2a8fb805ac024015,001,2025-04-30_18h48.21.660,empathy_intonation_perc,2024.1.4,Win32,60.0240096,,,,,,,,,,,,,,75,patada,,,,,,204.692,206.225,0,1,1,,0,24,24,74,1,non_cognate,1,REAL,FALSA
,,,,,,,,,5f56506b2a8fb805ac024015,001,2025-04-30_18h48.21.660,empathy_intonation_perc,2024.1.4,Win32,60.0240096,,,,,,,,,,,,,,144,diroco,,,,,,206.225,207.708,0,1,0.953,,0,25,25,143,1,pseudoword,0,REAL,FALSA
,,,,,,,,,5f56506b2a8fb805ac024015,001,2025-04-30_18h48.21.660,empathy_intonation_perc,2024.1.4,Win32,60.0240096,,,,,,,,,,,,,,192,próces,,,,,,207.708,209.608,1,0,1.37,,0,26,26,191,1,pseudoword,0,REAL,FALSA
,,,,,,,,,5f56506b2a8fb805ac024015,001,2025-04-30_18h48.21.660,empathy_intonation_perc,2024.1.4,Win32,60.0240096,,,,,,,,,,,,,,110,densó,,,,,,209.608,211.557,0,1,1.403,,0,27,27,109,1,pseudoword,0,REAL,FALSA
,,,,,,,,,5f56506b2a8fb805ac024015,001,2025-04-30_18h48.21.660,empathy_intonation_perc,2024.1.4,Win32,60.0240096,,,,,,,,,,,,,,158,babrá,,,,,,211.558,213.14,0,1,1.036,,0,28,28,157,1,pseudoword,0,REAL,FALSA
,,,,,,,,,5f56506b2a8fb805ac024015,001,2025-04-30_18h48.21.660,empathy_intonation_perc,2024.1.4,Win32,60.0240096,,,,,,,,,,,,,,45,total,,,,,,213.141,214.623,1,0,0.938,,0,29,29,44,1,two_way_cognate,1,REAL,FALSA
,,,,,,,,,5f56506b2a8fb805ac024015,001,2025-04-30_18h48.21.660,empathy_intonation_perc,2024.1.4,Win32,60.0240096,,,,,,,,,,,,,,173,mibro,,,,,,214.624,216.273,0,1,1.115,,0,30,30,172,1,pseudoword,0,REAL,FALSA
,,,,,,,,,5f56506b2a8fb805ac024015,001,2025-04-30_18h48.21.660,empathy_intonation_perc,2024.1.4,Win32,60.0240096,,,,,,,,,,,,,,162,cengo,,,,,,216.273,217.773,0,1,0.953,,0,31,31,161,1,pseudoword,0,REAL,FALSA
,,,,,,,,,5f56506b2a8fb805ac024015,001,2025-04-30_18h48.21.660,empathy_intonation_perc,2024.1.4,Win32,60.0240096,,,,,,,,,,,,,,49,teñir,,,,,,217.773,220.389,0,1,2.07,,0,32,32,48,1,non_cognate,1,REAL,FALSA
,,,,,,,,,5f56506b2a8fb805ac024015,001,2025-04-30_18h48.21.660,empathy_intonation_perc,2024.1.4,Win32,60.0240096,,,,,,,,,,,,,,117,morrá,,,,,,220.389,222.255,0,1,1.321,,0,33,33,116,1,pseudoword,0,REAL,FALSA
,,,,,,,,,5f56506b2a8fb805ac024015,001,2025-04-30_18h48.21.660,empathy_intonation_perc,2024.1.4,Win32,60.0240096,,,,,,,,,,,,,,121,barbs,,,,,,222.256,223.555,0,1,0.746,,0,34,34,120,1,pseudoword,0,REAL,FALSA
,,,,,,,,,5f56506b2a8fb805ac024015,001,2025-04-30_18h48.21.660,empathy_intonation_perc,2024.1.4,Win32,60.0240096,,,,,,,,,,,,,,55,maldad,,,,,,223.555,225.355,0,1,1.272,,0,35,35,54,1,non_cognate,1,REAL,FALSA
,,,,,,,,,5f56506b2a8fb805ac024015,001,2025-04-30_18h48.21.660,empathy_intonation_perc,2024.1.4,Win32,60.0240096,,,,,,,,,,,,,,25,vigor,,,,,,225.359,227.121,1,0,1.218,,0,36,36,24,1,two_way_cognate,1,REAL,FALSA
,,,,,,,,,5f56506b2a8fb805ac024015,001,2025-04-30_18h48.21.660,empathy_intonation_perc,2024.1.4,Win32,60.0240096,,,,,,,,,,,,,,35,aurora,,,,,,227.121,228.953,1,0,1.302,,0,37,37,34,1,two_way_cognate,1,REAL,FALSA
,,,,,,,,,5f56506b2a8fb805ac024015,001,2025-04-30_18h48.21.660,empathy_intonation_perc,2024.1.4,Win32,60.0240096,,,,,,,,,,,,,,134,molor,,,,,,228.954,230.453,0,1,0.97,,0,38,38,133,1,pseudoword,0,REAL,FALSA
,,,,,,,,,5f56506b2a8fb805ac024015,001,2025-04-30_18h48.21.660,empathy_intonation_perc,2024.1.4,Win32,60.0240096,,,,,,,,,,,,,,141,virios,,,,,,230.454,231.953,0,1,0.969,,0,39,39,140,1,pseudoword,0,REAL,FALSA
,,,,,,,,,5f56506b2a8fb805ac024015,001,2025-04-30_18h48.21.660,empathy_intonation_perc,2024.1.4,Win32,60.0240096,,,,,,,,,,,,,,125,ceme,,,,,,231.953,233.273,0,1,0.79,,0,40,40,124,1,pseudoword,0,REAL,FALSA
,,,,,,,,,5f56506b2a8fb805ac024015,001,2025-04-30_18h48.21.660,empathy_intonation_perc,2024.1.4,Win32,60.0240096,,,,,,,,,,,,,,182,desaro,,,,,,233.273,234.703,0,1,0.886,,0,41,41,181,1,pseudoword,0,REAL,FALSA
,,,,,,,,,5f56506b2a8fb805ac024015,001,2025-04-30_18h48.21.660,empathy_intonation_perc,2024.1.4,Win32,60.0240096,,,,,,,,,,,,,,9,portal,,,,,,234.703,236.002,1,0,0.763,,0,42,42,8,1,three_way_cognate,1,REAL,FALSA
,,,,,,,,,5f56506b2a8fb805ac024015,001,2025-04-30_18h48.21.660,empathy_intonation_perc,2024.1.4,Win32,60.0240096,,,,,,,,,,,,,,38,halo,,,,,,236.003,237.486,0,1,0.946,,0,43,43,37,1,two_way_cognate,1,REAL,FALSA
,,,,,,,,,5f56506b2a8fb805ac024015,001,2025-04-30_18h48.21.660,empathy_intonation_perc,2024.1.4,Win32,60.0240096,,,,,,,,,,,,,,85,enorme,,,,,,237.486,240.801,1,0,2.768,,0,44,44,84,1,non_cognate,1,REAL,FALSA
,,,,,,,,,5f56506b2a8fb805ac024015,001,2025-04-30_18h48.21.660,empathy_intonation_perc,2024.1.4,Win32,60.0240096,,,,,,,,,,,,,,70,ánimo,,,,,,240.801,244.567,0,1,3.235,,0,45,45,69,1,non_cognate,1,REAL,FALSA
,,,,,,,,,5f56506b2a8fb805ac024015,001,2025-04-30_18h48.21.660,empathy_intonation_perc,2024.1.4,Win32,60.0240096,,,,,,,,,,,,,,154,harvé,,,,,,244.568,245.917,0,1,0.797,,0,46,46,153,1,pseudoword,0,REAL,FALSA
,,,,,,,,,5f56506b2a8fb805ac024015,001,2025-04-30_18h48.21.660,empathy_intonation_perc,2024.1.4,Win32,60.0240096,,,,,,,,,,,,,,99,bugor,,,,,,245.917,247.266,0,1,0.822,,0,47,47,98,1,pseudoword,0,REAL,FALSA
,,,,,,,,,5f56506b2a8fb805ac024015,001,2025-04-30_18h48.21.660,empathy_intonation_perc,2024.1.4,Win32,60.0240096,,,,,,,,,,,,,,136,hueas,,,,,,247.267,248.483,0,1,0.684,,0,48,48,135,1,pseudoword,0,REAL,FALSA
,,,,,,,,,5f56506b2a8fb805ac024015,001,2025-04-30_18h48.21.660,empathy_intonation_perc,2024.1.4,Win32,60.0240096,,,,,,,,,,,,,,11,golf,,,,,,248.484,250.333,0,1,1.314,,0,49,49,10,1,three_way_cognate,1,REAL,FALSA
,,,,,,,,,5f56506b2a8fb805ac024015,001,2025-04-30_18h48.21.660,empathy_intonation_perc,2024.1.4,Win32,60.0240096,,,,,,,,,,,,,,164,tecia,,,,,,250.333,251.999,0,1,1.13,,0,50,50,163,1,pseudoword,0,REAL,FALSA
,,,,,,,,,5f56506b2a8fb805ac024015,001,2025-04-30_18h48.21.660,empathy_intonation_perc,2024.1.4,Win32,60.0240096,,,,,,,,,,,,,,36,viable,,,,,,252,253.549,1,0,1.004,,0,51,51,35,1,two_way_cognate,1,REAL,FALSA
,,,,,,,,,5f56506b2a8fb805ac024015,001,2025-04-30_18h48.21.660,empathy_intonation_perc,2024.1.4,Win32,60.0240096,,,,,,,,,,,,,,22,mango,,,,,,253.549,255.115,1,0,1.014,,0,52,52,21,1,three_way_cognate,1,REAL,FALSA
,,,,,,,,,5f56506b2a8fb805ac024015,001,2025-04-30_18h48.21.660,empathy_intonation_perc,2024.1.4,Win32,60.0240096,,,,,,,,,,,,,,54,tapón,,,,,,255.116,256.6,0,1,0.935,,0,53,53,53,1,non_cognate,1,REAL,FALSA
,,,,,,,,,5f56506b2a8fb805ac024015,001,2025-04-30_18h48.21.660,empathy_intonation_perc,2024.1.4,Win32,60.0240096,,,,,,,,,,,,,,77,suave,,,,,,256.604,258.831,0,1,1.687,,0,54,54,76,1,non_cognate,1,REAL,FALSA
,,,,,,,,,5f56506b2a8fb805ac024015,001,2025-04-30_18h48.21.660,empathy_intonation_perc,2024.1.4,Win32,60.0240096,,,,,,,,,,,,,,179,suelet,,,,,,258.831,260.414,0,1,1.045,,0,55,55,178,1,pseudoword,0,REAL,FALSA
,,,,,,,,,5f56506b2a8fb805ac024015,001,2025-04-30_18h48.21.660,empathy_intonation_perc,2024.1.4,Win32,60.0240096,,,,,,,,,,,,,,109,laras,,,,,,260.415,261.664,0,1,0.714,,0,56,56,108,1,pseudoword,0,REAL,FALSA
,,,,,,,,,5f56506b2a8fb805ac024015,001,2025-04-30_18h48.21.660,empathy_intonation_perc,2024.1.4,Win32,60.0240096,,,,,,,,,,,,,,145,rúo,,,,,,261.664,262.881,0,1,0.681,,0,57,57,144,1,pseudoword,0,REAL,FALSA
,,,,,,,,,5f56506b2a8fb805ac024015,001,2025-04-30_18h48.21.660,empathy_intonation_perc,2024.1.4,Win32,60.0240096,,,,,,,,,,,,,,59,feo,,,,,,262.881,264.113,0,1,0.685,,0,58,58,58,1,non_cognate,1,REAL,FALSA
,,,,,,,,,5f56506b2a8fb805ac024015,001,2025-04-30_18h48.21.660,empathy_intonation_perc,2024.1.4,Win32,60.0240096,,,,,,,,,,,,,,50,sierra,,,,,,264.114,265.649,1,0,0.988,,0,59,59,49,1,non_cognate,1,REAL,FALSA
,,,,,,,,,5f56506b2a8fb805ac024015,001,2025-04-30_18h48.21.660,empathy_intonation_perc,2024.1.4,Win32,60.0240096,,,,,,,,,,,,,,143,hurcos,,,,,,265.65,267.196,0,1,1.001,,0,60,60,142,1,pseudoword,0,REAL,FALSA
,,,,,,,,,5f56506b2a8fb805ac024015,001,2025-04-30_18h48.21.660,empathy_intonation_perc,2024.1.4,Win32,60.0240096,,,,,,,,,,,,,,27,piano,,,,,,267.196,268.763,1,0,1.033,,0,61,61,26,1,two_way_cognate,1,REAL,FALSA
,,,,,,,,,5f56506b2a8fb805ac024015,001,2025-04-30_18h48.21.660,empathy_intonation_perc,2024.1.4,Win32,60.0240096,,,,,,,,,,,,,,159,trcia,,,,,,268.763,270.079,0,1,0.769,,0,62,62,158,1,pseudoword,0,REAL,FALSA
,,,,,,,,,5f56506b2a8fb805ac024015,001,2025-04-30_18h48.21.660,empathy_intonation_perc,2024.1.4,Win32,60.0240096,,,,,,,,,,,,,,95,listo,,,,,,270.08,271.562,1,0,0.933,,0,63,63,94,1,non_cognate,1,REAL,FALSA
,,,,,,,,,5f56506b2a8fb805ac024015,001,2025-04-30_18h48.21.660,empathy_intonation_perc,2024.1.4,Win32,60.0240096,,,,,,,,,,,,,,135,panté,,,,,,271.563,272.995,0,1,0.895,,0,64,64,134,1,pseudoword,0,REAL,FALSA
,,,,,,,,,5f56506b2a8fb805ac024015,001,2025-04-30_18h48.21.660,empathy_intonation_perc,2024.1.4,Win32,60.0240096,,,,,,,,,,,,,,166,anfia,,,,,,272.996,275.261,0,1,1.72,,0,65,65,165,1,pseudoword,0,REAL,FALSA
,,,,,,,,,5f56506b2a8fb805ac024015,001,2025-04-30_18h48.21.660,empathy_intonation_perc,2024.1.4,Win32,60.0240096,,,,,,,,,,,,,,155,kugis,,,,,,275.261,276.378,0,1,0.578,,0,66,66,154,1,pseudoword,0,REAL,FALSA
,,,,,,,,,5f56506b2a8fb805ac024015,001,2025-04-30_18h48.21.660,empathy_intonation_perc,2024.1.4,Win32,60.0240096,,,,,,,,,,,,,,178,inichó,,,,,,276.378,277.577,0,1,0.653,,0,67,67,177,1,pseudoword,0,REAL,FALSA
,,,,,,,,,5f56506b2a8fb805ac024015,001,2025-04-30_18h48.21.660,empathy_intonation_perc,2024.1.4,Win32,60.0240096,,,,,,,,,,,,,,133,conso,,,,,,277.577,278.844,0,1,0.74,,0,68,68,132,1,pseudoword,0,REAL,FALSA
,,,,,,,,,5f56506b2a8fb805ac024015,001,2025-04-30_18h48.21.660,empathy_intonation_perc,2024.1.4,Win32,60.0240096,,,,,,,,,,,,,,5,extra,,,,,,278.844,280.16,1,0,0.788,,0,69,69,4,1,three_way_cognate,1,REAL,FALSA
,,,,,,,,,5f56506b2a8fb805ac024015,001,2025-04-30_18h48.21.660,empathy_intonation_perc,2024.1.4,Win32,60.0240096,,,,,,,,,,,,,,53,punta,,,,,,280.161,281.577,1,0,0.87,,0,70,70,52,1,non_cognate,1,REAL,FALSA
,,,,,,,,,5f56506b2a8fb805ac024015,001,2025-04-30_18h48.21.660,empathy_intonation_perc,2024.1.4,Win32,60.0240096,,,,,,,,,,,,,,21,hotel,,,,,,281.577,283.043,1,0,0.92,,0,71,71,20,1,three_way_cognate,1,REAL,FALSA
,,,,,,,,,5f56506b2a8fb805ac024015,001,2025-04-30_18h48.21.660,empathy_intonation_perc,2024.1.4,Win32,60.0240096,,,,,,,,,,,,,,58,colcha,,,,,,283.043,284.626,0,1,1.046,,0,72,72,57,1,non_cognate,1,REAL,FALSA
,,,,,,,,,5f56506b2a8fb805ac024015,001,2025-04-30_18h48.21.660,empathy_intonation_perc,2024.1.4,Win32,60.0240096,,,,,,,,,,,,,,31,civil,,,,,,284.626,286.242,1,0,1.082,,0,73,73,30,1,two_way_cognate,1,REAL,FALSA
,,,,,,,,,5f56506b2a8fb805ac024015,001,2025-04-30_18h48.21.660,empathy_intonation_perc,2024.1.4,Win32,60.0240096,,,,,,,,,,,,,,107,plago,,,,,,286.243,287.675,0,1,0.885,,0,74,74,106,1,pseudoword,0,REAL,FALSA
,,,,,,,,,5f56506b2a8fb805ac024015,001,2025-04-30_18h48.21.660,empathy_intonation_perc,2024.1.4,Win32,60.0240096,,,,,,,,,,,,,,46,mortal,,,,,,287.675,289.175,0,1,0.966,,0,75,75,45,1,two_way_cognate,1,REAL,FALSA
,,,,,,,,,5f56506b2a8fb805ac024015,001,2025-04-30_18h48.21.660,empathy_intonation_perc,2024.1.4,Win32,60.0240096,,,,,,,,,,,,,,12,dogma,,,,,,289.179,291.041,0,1,1.311,,0,76,76,11,1,three_way_cognate,1,REAL,FALSA
,,,,,,,,,5f56506b2a8fb805ac024015,001,2025-04-30_18h48.21.660,empathy_intonation_perc,2024.1.4,Win32,60.0240096,,,,,,,,,,,,,,98,martir,,,,,,291.042,292.775,0,1,1.193,,0,77,77,97,1,pseudoword,0,REAL,FALSA
,,,,,,,,,5f56506b2a8fb805ac024015,001,2025-04-30_18h48.21.660,empathy_intonation_perc,2024.1.4,Win32,60.0240096,,,,,,,,,,,,,,148,gino,,,,,,292.775,294.074,0,1,0.764,,0,78,78,147,1,pseudoword,0,REAL,FALSA
,,,,,,,,,5f56506b2a8fb805ac024015,001,2025-04-30_18h48.21.660,empathy_intonation_perc,2024.1.4,Win32,60.0240096,,,,,,,,,,,,,,161,civas,,,,,,294.075,295.424,0,1,0.812,,0,79,79,160,1,pseudoword,0,REAL,FALSA
,,,,,,,,,5f56506b2a8fb805ac024015,001,2025-04-30_18h48.21.660,empathy_intonation_perc,2024.1.4,Win32,60.0240096,,,,,,,,,,,,,,175,tradía,,,,,,295.425,296.758,0,1,0.785,,0,80,80,174,1,pseudoword,0,REAL,FALSA
,,,,,,,,,5f56506b2a8fb805ac024015,001,2025-04-30_18h48.21.660,empathy_intonation_perc,2024.1.4,Win32,60.0240096,,,,,,,,,,,,,,129,vinzó,,,,,,296.758,298.457,0,1,1.147,,0,81,81,128,1,pseudoword,0,REAL,FALSA
,,,,,,,,,5f56506b2a8fb805ac024015,001,2025-04-30_18h48.21.660,empathy_intonation_perc,2024.1.4,Win32,60.0240096,,,,,,,,,,,,,,106,diebro,,,,,,298.457,299.79,0,1,0.801,,0,82,82,105,1,pseudoword,0,REAL,FALSA
,,,,,,,,,5f56506b2a8fb805ac024015,001,2025-04-30_18h48.21.660,empathy_intonation_perc,2024.1.4,Win32,60.0240096,,,,,,,,,,,,,,177,entodo,,,,,,299.79,301.024,0,1,0.714,,0,83,83,176,1,pseudoword,0,REAL,FALSA
,,,,,,,,,5f56506b2a8fb805ac024015,001,2025-04-30_18h48.21.660,empathy_intonation_perc,2024.1.4,Win32,60.0240096,,,,,,,,,,,,,,48,pelvis,,,,,,301.025,302.39,0,1,0.82,,0,84,84,47,1,two_way_cognate,1,REAL,FALSA
,,,,,,,,,5f56506b2a8fb805ac024015,001,2025-04-30_18h48.21.660,empathy_intonation_perc,2024.1.4,Win32,60.0240096,,,,,,,,,,,,,,15,test,,,,,,302.39,304.639,1,0,1.733,,0,85,85,14,1,three_way_cognate,1,REAL,FALSA
,,,,,,,,,5f56506b2a8fb805ac024015,001,2025-04-30_18h48.21.660,empathy_intonation_perc,2024.1.4,Win32,60.0240096,,,,,,,,,,,,,,184,huenos,,,,,,304.64,306.106,0,1,0.921,,0,86,86,183,1,pseudoword,0,REAL,FALSA
,,,,,,,,,5f56506b2a8fb805ac024015,001,2025-04-30_18h48.21.660,empathy_intonation_perc,2024.1.4,Win32,60.0240096,,,,,,,,,,,,,,80,cuenco,,,,,,306.106,307.938,0,1,1.299,,0,87,87,79,1,non_cognate,1,REAL,FALSA
,,,,,,,,,5f56506b2a8fb805ac024015,001,2025-04-30_18h48.21.660,empathy_intonation_perc,2024.1.4,Win32,60.0240096,,,,,,,,,,,,,,137,trugo,,,,,,307.939,309.504,0,1,1.034,,0,88,88,136,1,pseudoword,0,REAL,FALSA
,,,,,,,,,5f56506b2a8fb805ac024015,001,2025-04-30_18h48.21.660,empathy_intonation_perc,2024.1.4,Win32,60.0240096,,,,,,,,,,,,,,39,casual,,,,,,309.505,311.471,0,1,1.418,,0,89,89,38,1,two_way_cognate,1,REAL,FALSA
,,,,,,,,,5f56506b2a8fb805ac024015,001,2025-04-30_18h48.21.660,empathy_intonation_perc,2024.1.4,Win32,60.0240096,,,,,,,,,,,,,,170,diabo,,,,,,311.471,313.187,0,1,1.197,,0,90,90,169,1,pseudoword,0,REAL,FALSA
,,,,,,,,,5f56506b2a8fb805ac024015,001,2025-04-30_18h48.21.660,empathy_intonation_perc,2024.1.4,Win32,60.0240096,,,,,,,,,,,,,,118,bará,,,,,,313.188,314.67,0,1,0.952,,0,91,91,117,1,pseudoword,0,REAL,FALSA
,,,,,,,,,5f56506b2a8fb805ac024015,001,2025-04-30_18h48.21.660,empathy_intonation_perc,2024.1.4,Win32,60.0240096,,,,,,,,,,,,,,132,nocó,,,,,,314.67,315.937,0,1,0.737,,0,92,92,131,1,pseudoword,0,REAL,FALSA
,,,,,,,,,5f56506b2a8fb805ac024015,001,2025-04-30_18h48.21.660,empathy_intonation_perc,2024.1.4,Win32,60.0240096,,,,,,,,,,,,,,151,prías,,,,,,315.937,317.287,0,1,0.816,,0,93,93,150,1,pseudoword,0,REAL,FALSA
,,,,,,,,,5f56506b2a8fb805ac024015,001,2025-04-30_18h48.21.660,empathy_intonation_perc,2024.1.4,Win32,60.0240096,,,,,,,,,,,,,,64,rizado,,,,,,317.287,318.503,0,1,0.661,,0,94,94,63,1,non_cognate,1,REAL,FALSA
,,,,,,,,,5f56506b2a8fb805ac024015,001,2025-04-30_18h48.21.660,empathy_intonation_perc,2024.1.4,Win32,60.0240096,,,,,,,,,,,,,,42,rumor,,,,,,318.503,319.853,0,1,0.813,,0,95,95,41,1,two_way_cognate,1,REAL,FALSA
,,,,,,,,,5f56506b2a8fb805ac024015,001,2025-04-30_18h48.21.660,empathy_intonation_perc,2024.1.4,Win32,60.0240096,,,,,,,,,,,,,,169,pitis,,,,,,319.853,321.21,0,1,0.803,,0,96,96,168,1,pseudoword,0,REAL,FALSA
,,,,,,,,,5f56506b2a8fb805ac024015,001,2025-04-30_18h48.21.660,empathy_intonation_perc,2024.1.4,Win32,60.0240096,,,,,,,,,,,,,,28,ardor,,,,,,321.21,322.502,0,1,0.755,,0,97,97,27,1,two_way_cognate,1,REAL,FALSA
,,,,,,,,,5f56506b2a8fb805ac024015,001,2025-04-30_18h48.21.660,empathy_intonation_perc,2024.1.4,Win32,60.0240096,,,,,,,,,,,,,,128,pelí,,,,,,322.505,323.719,0,1,0.669,,0,98,98,127,1,pseudoword,0,REAL,FALSA
,,,,,,,,,5f56506b2a8fb805ac024015,001,2025-04-30_18h48.21.660,empathy_intonation_perc,2024.1.4,Win32,60.0240096,,,,,,,,,,,,,,114,dibrea,,,,,,323.719,324.919,0,1,0.644,,0,99,99,113,1,pseudoword,0,REAL,FALSA
,,,,,,,,,5f56506b2a8fb805ac024015,001,2025-04-30_18h48.21.660,empathy_intonation_perc,2024.1.4,Win32,60.0240096,,,,,,,,,,,,,,7,albino,,,,,,324.919,326.102,0,1,0.631,,0,100,100,6,1,three_way_cognate,1,REAL,FALSA
,,,,,,,,,5f56506b2a8fb805ac024015,001,2025-04-30_18h48.21.660,empathy_intonation_perc,2024.1.4,Win32,60.0240096,,,,,,,,,,,,,,60,siglo,,,,,,326.102,327.268,0,1,0.618,,0,101,101,59,1,non_cognate,1,REAL,FALSA
,,,,,,,,,5f56506b2a8fb805ac024015,001,2025-04-30_18h48.21.660,empathy_intonation_perc,2024.1.4,Win32,60.0240096,,,,,,,,,,,,,,17,clan,,,,,,327.269,328.501,0,1,0.685,,0,102,102,16,1,three_way_cognate,1,REAL,FALSA
,,,,,,,,,5f56506b2a8fb805ac024015,001,2025-04-30_18h48.21.660,empathy_intonation_perc,2024.1.4,Win32,60.0240096,,,,,,,,,,,,,,71,torta,,,,,,328.501,331,0,1,1.968,,0,103,103,70,1,non_cognate,1,REAL,FALSA
,,,,,,,,,5f56506b2a8fb805ac024015,001,2025-04-30_18h48.21.660,empathy_intonation_perc,2024.1.4,Win32,60.0240096,,,,,,,,,,,,,,119,esís,,,,,,331.001,332.217,0,1,0.672,,0,104,104,118,1,pseudoword,0,REAL,FALSA
,,,,,,,,,5f56506b2a8fb805ac024015,001,2025-04-30_18h48.21.660,empathy_intonation_perc,2024.1.4,Win32,60.0240096,,,,,,,,,,,,,,67,llamar,,,,,,332.217,334.067,1,0,1.305,,0,105,105,66,1,non_cognate,1,REAL,FALSA
,,,,,,,,,5f56506b2a8fb805ac024015,001,2025-04-30_18h48.21.660,empathy_intonation_perc,2024.1.4,Win32,60.0240096,,,,,,,,,,,,,,20,trauma,,,,,,334.067,337.232,1,0,2.611,,0,106,106,19,1,three_way_cognate,1,REAL,FALSA
,,,,,,,,,5f56506b2a8fb805ac024015,001,2025-04-30_18h48.21.660,empathy_intonation_perc,2024.1.4,Win32,60.0240096,,,,,,,,,,,,,,101,losco,,,,,,337.233,338.532,0,1,0.753,,0,107,107,100,1,pseudoword,0,REAL,FALSA
,,,,,,,,,5f56506b2a8fb805ac024015,001,2025-04-30_18h48.21.660,empathy_intonation_perc,2024.1.4,Win32,60.0240096,,,,,,,,,,,,,,97,nocita,,,,,,338.532,339.982,0,1,0.921,,0,108,108,96,1,pseudoword,0,REAL,FALSA
,,,,,,,,,5f56506b2a8fb805ac024015,001,2025-04-30_18h48.21.660,empathy_intonation_perc,2024.1.4,Win32,60.0240096,,,,,,,,,,,,,,185,aljizo,,,,,,339.982,341.482,0,1,0.969,,0,109,109,184,1,pseudoword,0,REAL,FALSA
,,,,,,,,,5f56506b2a8fb805ac024015,001,2025-04-30_18h48.21.660,empathy_intonation_perc,2024.1.4,Win32,60.0240096,,,,,,,,,,,,,,83,hálito,,,,,,341.482,342.798,0,1,0.768,,0,110,110,82,1,non_cognate,1,REAL,FALSA
,,,,,,,,,5f56506b2a8fb805ac024015,001,2025-04-30_18h48.21.660,empathy_intonation_perc,2024.1.4,Win32,60.0240096,,,,,,,,,,,,,,66,aleta,,,,,,342.799,344.081,0,1,0.734,,0,111,111,65,1,non_cognate,1,REAL,FALSA
,,,,,,,,,5f56506b2a8fb805ac024015,001,2025-04-30_18h48.21.660,empathy_intonation_perc,2024.1.4,Win32,60.0240096,,,,,,,,,,,,,,73,llevar,,,,,,344.081,346.764,1,0,2.152,,0,112,112,72,1,non_cognate,1,REAL,FALSA
,,,,,,,,,5f56506b2a8fb805ac024015,001,2025-04-30_18h48.21.660,empathy_intonation_perc,2024.1.4,Win32,60.0240096,,,,,,,,,,,,,,8,kilo,,,,,,346.764,348.213,1,0,0.919,,0,113,113,7,1,three_way_cognate,1,REAL,FALSA
,,,,,,,,,5f56506b2a8fb805ac024015,001,2025-04-30_18h48.21.660,empathy_intonation_perc,2024.1.4,Win32,60.0240096,,,,,,,,,,,,,,147,alla,,,,,,348.214,349.963,0,1,1.215,,0,114,114,146,1,pseudoword,0,REAL,FALSA
,,,,,,,,,5f56506b2a8fb805ac024015,001,2025-04-30_18h48.21.660,empathy_intonation_perc,2024.1.4,Win32,60.0240096,,,,,,,,,,,,,,1,moral,,,,,,349.963,351.347,0,1,0.849,,0,115,115,0,1,three_way_cognate,1,REAL,FALSA
,,,,,,,,,5f56506b2a8fb805ac024015,001,2025-04-30_18h48.21.660,empathy_intonation_perc,2024.1.4,Win32,60.0240096,,,,,,,,,,,,,,92,flecha,,,,,,351.347,352.63,0,1,0.748,,0,116,116,91,1,non_cognate,1,REAL,FALSA
,,,,,,,,,5f56506b2a8fb805ac024015,001,2025-04-30_18h48.21.660,empathy_intonation_perc,2024.1.4,Win32,60.0240096,,,,,,,,,,,,,,79,suelo,,,,,,352.63,354.096,0,1,0.916,,0,117,117,78,1,non_cognate,1,REAL,FALSA
,,,,,,,,,5f56506b2a8fb805ac024015,001,2025-04-30_18h48.21.660,empathy_intonation_perc,2024.1.4,Win32,60.0240096,,,,,,,,,,,,,,16,chat,,,,,,354.096,355.862,0,1,1.22,,0,118,118,15,1,three_way_cognate,1,REAL,FALSA
,,,,,,,,,5f56506b2a8fb805ac024015,001,2025-04-30_18h48.21.660,empathy_intonation_perc,2024.1.4,Win32,60.0240096,,,,,,,,,,,,,,176,gripar,,,,,,355.862,357.446,1,0,1.046,,0,119,119,175,1,pseudoword,0,REAL,FALSA
,,,,,,,,,5f56506b2a8fb805ac024015,001,2025-04-30_18h48.21.660,empathy_intonation_perc,2024.1.4,Win32,60.0240096,,,,,,,,,,,,,,88,percha,,,,,,357.452,358.845,0,1,0.846,,0,120,120,87,1,non_cognate,1,REAL,FALSA
,,,,,,,,,5f56506b2a8fb805ac024015,001,2025-04-30_18h48.21.660,empathy_intonation_perc,2024.1.4,Win32,60.0240096,,,,,,,,,,,,,,142,parre,,,,,,358.846,360.145,0,1,0.745,,0,121,121,141,1,pseudoword,0,REAL,FALSA
,,,,,,,,,5f56506b2a8fb805ac024015,001,2025-04-30_18h48.21.660,empathy_intonation_perc,2024.1.4,Win32,60.0240096,,,,,,,,,,,,,,108,jauda,,,,,,360.145,361.561,0,1,0.862,,0,122,122,107,1,pseudoword,0,REAL,FALSA
,,,,,,,,,5f56506b2a8fb805ac024015,001,2025-04-30_18h48.21.660,empathy_intonation_perc,2024.1.4,Win32,60.0240096,,,,,,,,,,,,,,57,regalo,,,,,,361.561,362.944,1,0,0.843,,0,123,123,56,1,non_cognate,1,REAL,FALSA
,,,,,,,,,5f56506b2a8fb805ac024015,001,2025-04-30_18h48.21.660,empathy_intonation_perc,2024.1.4,Win32,60.0240096,,,,,,,,,,,,,,160,fomeó,,,,,,362.944,364.41,0,1,0.931,,0,124,124,159,1,pseudoword,0,REAL,FALSA
,,,,,,,,,5f56506b2a8fb805ac024015,001,2025-04-30_18h48.21.660,empathy_intonation_perc,2024.1.4,Win32,60.0240096,,,,,,,,,,,,,,152,prave,,,,,,364.411,366.81,0,1,1.881,,0,125,125,151,1,pseudoword,0,REAL,FALSA
,,,,,,,,,5f56506b2a8fb805ac024015,001,2025-04-30_18h48.21.660,empathy_intonation_perc,2024.1.4,Win32,60.0240096,,,,,,,,,,,,,,113,nasce,,,,,,366.81,368.127,0,1,0.798,,0,126,126,112,1,pseudoword,0,REAL,FALSA
,,,,,,,,,5f56506b2a8fb805ac024015,001,2025-04-30_18h48.21.660,empathy_intonation_perc,2024.1.4,Win32,60.0240096,,,,,,,,,,,,,,167,dobbo,,,,,,368.127,369.31,0,1,0.636,,0,127,127,166,1,pseudoword,0,REAL,FALSA
,,,,,,,,,5f56506b2a8fb805ac024015,001,2025-04-30_18h48.21.660,empathy_intonation_perc,2024.1.4,Win32,60.0240096,,,,,,,,,,,,,,90,venado,,,,,,369.31,371.11,0,1,1.268,,0,128,128,89,1,non_cognate,1,REAL,FALSA
,,,,,,,,,5f56506b2a8fb805ac024015,001,2025-04-30_18h48.21.660,empathy_intonation_perc,2024.1.4,Win32,60.0240096,,,,,,,,,,,,,,100,épinas,,,,,,371.11,372.409,0,1,0.755,,0,129,129,99,1,pseudoword,0,REAL,FALSA
,,,,,,,,,5f56506b2a8fb805ac024015,001,2025-04-30_18h48.21.660,empathy_intonation_perc,2024.1.4,Win32,60.0240096,,,,,,,,,,,,,,56,pico,,,,,,372.411,374.592,0,1,1.632,,0,130,130,55,1,non_cognate,1,REAL,FALSA
,,,,,,,,,5f56506b2a8fb805ac024015,001,2025-04-30_18h48.21.660,empathy_intonation_perc,2024.1.4,Win32,60.0240096,,,,,,,,,,,,,,32,animal,,,,,,374.592,376.058,1,0,0.93,,0,131,131,31,1,two_way_cognate,1,REAL,FALSA
,,,,,,,,,5f56506b2a8fb805ac024015,001,2025-04-30_18h48.21.660,empathy_intonation_perc,2024.1.4,Win32,60.0240096,,,,,,,,,,,,,,126,tobre,,,,,,376.058,377.575,0,1,0.974,,0,132,132,125,1,pseudoword,0,REAL,FALSA
,,,,,,,,,5f56506b2a8fb805ac024015,001,2025-04-30_18h48.21.660,empathy_intonation_perc,2024.1.4,Win32,60.0240096,,,,,,,,,,,,,,116,grigir,,,,,,377.575,378.907,0,1,0.807,,0,133,133,115,1,pseudoword,0,REAL,FALSA
,,,,,,,,,5f56506b2a8fb805ac024015,001,2025-04-30_18h48.21.660,empathy_intonation_perc,2024.1.4,Win32,60.0240096,,,,,,,,,,,,,,186,rizate,,,,,,378.908,380.241,0,1,0.803,,0,134,134,185,1,pseudoword,0,REAL,FALSA
,,,,,,,,,5f56506b2a8fb805ac024015,001,2025-04-30_18h48.21.660,empathy_intonation_perc,2024.1.4,Win32,60.0240096,,,,,,,,,,,,,,94,forro,,,,,,380.241,381.474,0,1,0.715,,0,135,135,93,1,non_cognate,1,REAL,FALSA
,,,,,,,,,5f56506b2a8fb805ac024015,001,2025-04-30_18h48.21.660,empathy_intonation_perc,2024.1.4,Win32,60.0240096,,,,,,,,,,,,,,187,nomata,,,,,,381.474,382.673,0,1,0.671,,0,136,136,186,1,pseudoword,0,REAL,FALSA
,,,,,,,,,5f56506b2a8fb805ac024015,001,2025-04-30_18h48.21.660,empathy_intonation_perc,2024.1.4,Win32,60.0240096,,,,,,,,,,,,,,122,boñaz,,,,,,382.674,384.09,0,1,0.868,,0,137,137,121,1,pseudoword,0,REAL,FALSA
,,,,,,,,,5f56506b2a8fb805ac024015,001,2025-04-30_18h48.21.660,empathy_intonation_perc,2024.1.4,Win32,60.0240096,,,,,,,,,,,,,,183,edioso,,,,,,384.09,386.656,0,1,2.035,,0,138,138,182,1,pseudoword,0,REAL,FALSA
,,,,,,,,,5f56506b2a8fb805ac024015,001,2025-04-30_18h48.21.660,empathy_intonation_perc,2024.1.4,Win32,60.0240096,,,,,,,,,,,,,,2,tumor,,,,,,386.656,388.39,1,0,1.207,,0,139,139,1,1,three_way_cognate,1,REAL,FALSA
,,,,,,,,,5f56506b2a8fb805ac024015,001,2025-04-30_18h48.21.660,empathy_intonation_perc,2024.1.4,Win32,60.0240096,,,,,,,,,,,,,,157,seled,,,,,,388.395,389.689,0,1,0.749,,0,140,140,156,1,pseudoword,0,REAL,FALSA
,,,,,,,,,5f56506b2a8fb805ac024015,001,2025-04-30_18h48.21.660,empathy_intonation_perc,2024.1.4,Win32,60.0240096,,,,,,,,,,,,,,81,sacar,,,,,,389.69,390.939,0,1,0.693,,0,141,141,80,1,non_cognate,1,REAL,FALSA
,,,,,,,,,5f56506b2a8fb805ac024015,001,2025-04-30_18h48.21.660,empathy_intonation_perc,2024.1.4,Win32,60.0240096,,,,,,,,,,,,,,76,chocar,,,,,,390.939,392.489,0,1,0.998,,0,142,142,75,1,non_cognate,1,REAL,FALSA
,,,,,,,,,5f56506b2a8fb805ac024015,001,2025-04-30_18h48.21.660,empathy_intonation_perc,2024.1.4,Win32,60.0240096,,,,,,,,,,,,,,130,dubo,,,,,,392.489,393.755,0,1,0.721,,0,143,143,129,1,pseudoword,0,REAL,FALSA
,,,,,,,,,5f56506b2a8fb805ac024015,001,2025-04-30_18h48.21.660,empathy_intonation_perc,2024.1.4,Win32,60.0240096,,,,,,,,,,,,,,63,hilo,,,,,,393.756,395.021,0,1,0.732,,0,144,144,62,1,non_cognate,1,REAL,FALSA
,,,,,,,,,5f56506b2a8fb805ac024015,001,2025-04-30_18h48.21.660,empathy_intonation_perc,2024.1.4,Win32,60.0240096,,,,,,,,,,,,,,102,coyo,,,,,,395.022,396.954,0,1,1.391,,0,145,145,101,1,pseudoword,0,REAL,FALSA
,,,,,,,,,5f56506b2a8fb805ac024015,001,2025-04-30_18h48.21.660,empathy_intonation_perc,2024.1.4,Win32,60.0240096,,,,,,,,,,,,,,190,asumie,,,,,,396.955,398.204,0,1,0.72,,0,146,146,189,1,pseudoword,0,REAL,FALSA
,,,,,,,,,5f56506b2a8fb805ac024015,001,2025-04-30_18h48.21.660,empathy_intonation_perc,2024.1.4,Win32,60.0240096,,,,,,,,,,,,,,138,tator,,,,,,398.205,399.387,0,1,0.628,,0,147,147,137,1,pseudoword,0,REAL,FALSA
,,,,,,,,,5f56506b2a8fb805ac024015,001,2025-04-30_18h48.21.660,empathy_intonation_perc,2024.1.4,Win32,60.0240096,,,,,,,,,,,,,,165,chote,,,,,,399.387,400.57,0,1,0.649,,0,148,148,164,1,pseudoword,0,REAL,FALSA
,,,,,,,,,5f56506b2a8fb805ac024015,001,2025-04-30_18h48.21.660,empathy_intonation_perc,2024.1.4,Win32,60.0240096,,,,,,,,,,,,,,153,golla,,,,,,400.571,401.77,0,1,0.651,,0,149,149,152,1,pseudoword,0,REAL,FALSA
,,,,,,,,,5f56506b2a8fb805ac024015,001,2025-04-30_18h48.21.660,empathy_intonation_perc,2024.1.4,Win32,60.0240096,,,,,,,,,,,,,,44,editor,,,,,,401.771,404.836,1,0,2.517,,0,150,150,43,1,two_way_cognate,1,REAL,FALSA
,,,,,,,,,5f56506b2a8fb805ac024015,001,2025-04-30_18h48.21.660,empathy_intonation_perc,2024.1.4,Win32,60.0240096,,,,,,,,,,,,,,150,cricó,,,,,,404.836,406.352,0,1,0.988,,0,151,151,149,1,pseudoword,0,REAL,FALSA
,,,,,,,,,5f56506b2a8fb805ac024015,001,2025-04-30_18h48.21.660,empathy_intonation_perc,2024.1.4,Win32,60.0240096,,,,,,,,,,,,,,82,brillo,,,,,,406.353,407.935,0,1,1.041,,0,152,152,81,1,non_cognate,1,REAL,FALSA
,,,,,,,,,5f56506b2a8fb805ac024015,001,2025-04-30_18h48.21.660,empathy_intonation_perc,2024.1.4,Win32,60.0240096,,,,,,,,,,,,,,174,pabea,,,,,,407.936,409.269,0,1,0.777,,0,153,153,173,1,pseudoword,0,REAL,FALSA
,,,,,,,,,5f56506b2a8fb805ac024015,001,2025-04-30_18h48.21.660,empathy_intonation_perc,2024.1.4,Win32,60.0240096,,,,,,,,,,,,,,33,collar,,,,,,409.269,410.652,0,1,0.832,,0,154,154,32,1,two_way_cognate,1,REAL,FALSA
,,,,,,,,,5f56506b2a8fb805ac024015,001,2025-04-30_18h48.21.660,empathy_intonation_perc,2024.1.4,Win32,60.0240096,,,,,,,,,,,,,,29,clamor,,,,,,410.653,411.951,0,1,0.751,,0,155,155,28,1,two_way_cognate,1,REAL,FALSA
,,,,,,,,,5f56506b2a8fb805ac024015,001,2025-04-30_18h48.21.660,empathy_intonation_perc,2024.1.4,Win32,60.0240096,,,,,,,,,,,,,,3,disco,,,,,,411.952,413.985,1,0,1.485,,0,156,156,2,1,three_way_cognate,1,REAL,FALSA
,,,,,,,,,5f56506b2a8fb805ac024015,001,2025-04-30_18h48.21.660,empathy_intonation_perc,2024.1.4,Win32,60.0240096,,,,,,,,,,,,,,140,chorde,,,,,,413.985,415.75,0,1,1.233,,0,157,157,139,1,pseudoword,0,REAL,FALSA
,,,,,,,,,5f56506b2a8fb805ac024015,001,2025-04-30_18h48.21.660,empathy_intonation_perc,2024.1.4,Win32,60.0240096,,,,,,,,,,,,,,156,ozoso,,,,,,415.75,417.067,0,1,0.797,,0,158,158,155,1,pseudoword,0,REAL,FALSA
,,,,,,,,,5f56506b2a8fb805ac024015,001,2025-04-30_18h48.21.660,empathy_intonation_perc,2024.1.4,Win32,60.0240096,,,,,,,,,,,,,,68,puñal,,,,,,417.068,418.466,0,1,0.846,,0,159,159,67,1,non_cognate,1,REAL,FALSA
,,,,,,,,,5f56506b2a8fb805ac024015,001,2025-04-30_18h48.21.660,empathy_intonation_perc,2024.1.4,Win32,60.0240096,,,,,,,,,,,,,,37,torso,,,,,,418.467,420.667,0,1,1.646,,0,160,160,36,1,two_way_cognate,1,REAL,FALSA
,,,,,,,,,5f56506b2a8fb805ac024015,001,2025-04-30_18h48.21.660,empathy_intonation_perc,2024.1.4,Win32,60.0240096,,,,,,,,,,,,,,105,peniz,,,,,,420.671,423.949,0,1,2.736,,0,161,161,104,1,pseudoword,0,REAL,FALSA
,,,,,,,,,5f56506b2a8fb805ac024015,001,2025-04-30_18h48.21.660,empathy_intonation_perc,2024.1.4,Win32,60.0240096,,,,,,,,,,,,,,84,aviso,,,,,,423.95,425.265,0,1,0.768,,0,162,162,83,1,non_cognate,1,REAL,FALSA
,,,,,,,,,5f56506b2a8fb805ac024015,001,2025-04-30_18h48.21.660,empathy_intonation_perc,2024.1.4,Win32,60.0240096,,,,,,,,,,,,,,139,sasos,,,,,,425.265,426.682,0,1,0.883,,0,163,163,138,1,pseudoword,0,REAL,FALSA
,,,,,,,,,5f56506b2a8fb805ac024015,001,2025-04-30_18h48.21.660,empathy_intonation_perc,2024.1.4,Win32,60.0240096,,,,,,,,,,,,,,4,flora,,,,,,426.682,428.416,1,0,1.192,,0,164,164,3,1,three_way_cognate,1,REAL,FALSA
,,,,,,,,,5f56506b2a8fb805ac024015,001,2025-04-30_18h48.21.660,empathy_intonation_perc,2024.1.4,Win32,60.0240096,,,,,,,,,,,,,,47,color,,,,,,428.416,430.198,1,0,1.237,,0,165,165,46,1,two_way_cognate,1,REAL,FALSA
,,,,,,,,,5f56506b2a8fb805ac024015,001,2025-04-30_18h48.21.660,empathy_intonation_perc,2024.1.4,Win32,60.0240096,,,,,,,,,,,,,,171,gotro,,,,,,430.199,431.631,0,1,0.88,,0,166,166,170,1,pseudoword,0,REAL,FALSA
,,,,,,,,,5f56506b2a8fb805ac024015,001,2025-04-30_18h48.21.660,empathy_intonation_perc,2024.1.4,Win32,60.0240096,,,,,,,,,,,,,,112,samón,,,,,,431.631,432.947,0,1,0.797,,0,167,167,111,1,pseudoword,0,REAL,FALSA
,,,,,,,,,5f56506b2a8fb805ac024015,001,2025-04-30_18h48.21.660,empathy_intonation_perc,2024.1.4,Win32,60.0240096,,,,,,,,,,,,,,124,lobe,,,,,,432.948,434.197,0,1,0.692,,0,168,168,123,1,pseudoword,0,REAL,FALSA
,,,,,,,,,5f56506b2a8fb805ac024015,001,2025-04-30_18h48.21.660,empathy_intonation_perc,2024.1.4,Win32,60.0240096,,,,,,,,,,,,,,180,pupica,,,,,,434.197,435.447,0,1,0.72,,0,169,169,179,1,pseudoword,0,REAL,FALSA
,,,,,,,,,5f56506b2a8fb805ac024015,001,2025-04-30_18h48.21.660,empathy_intonation_perc,2024.1.4,Win32,60.0240096,,,,,,,,,,,,,,72,rostro,,,,,,435.447,436.747,0,1,0.747,,0,170,170,71,1,non_cognate,1,REAL,FALSA
,,,,,,,,,5f56506b2a8fb805ac024015,001,2025-04-30_18h48.21.660,empathy_intonation_perc,2024.1.4,Win32,60.0240096,,,,,,,,,,,,,,19,mafia,,,,,,436.748,438.246,1,0,0.949,,0,171,171,18,1,three_way_cognate,1,REAL,FALSA
,,,,,,,,,5f56506b2a8fb805ac024015,001,2025-04-30_18h48.21.660,empathy_intonation_perc,2024.1.4,Win32,60.0240096,,,,,,,,,,,,,,65,guerra,,,,,,438.246,440.946,1,0,2.17,,0,172,172,64,1,non_cognate,1,REAL,FALSA
,,,,,,,,,5f56506b2a8fb805ac024015,001,2025-04-30_18h48.21.660,empathy_intonation_perc,2024.1.4,Win32,60.0240096,,,,,,,,,,,,,,111,monue,,,,,,440.946,442.295,0,1,0.803,,0,173,173,110,1,pseudoword,0,REAL,FALSA
,,,,,,,,,5f56506b2a8fb805ac024015,001,2025-04-30_18h48.21.660,empathy_intonation_perc,2024.1.4,Win32,60.0240096,,,,,,,,,,,,,,131,fuar,,,,,,442.296,443.512,0,1,0.663,,0,174,174,130,1,pseudoword,0,REAL,FALSA
,,,,,,,,,5f56506b2a8fb805ac024015,001,2025-04-30_18h48.21.660,empathy_intonation_perc,2024.1.4,Win32,60.0240096,,,,,,,,,,,,,,191,frasis,,,,,,443.512,444.678,0,1,0.623,,0,175,175,190,1,pseudoword,0,REAL,FALSA
,,,,,,,,,5f56506b2a8fb805ac024015,001,2025-04-30_18h48.21.660,empathy_intonation_perc,2024.1.4,Win32,60.0240096,,,,,,,,,,,,,,127,vien,,,,,,444.678,446.295,0,1,1.092,,0,176,176,126,1,pseudoword,0,REAL,FALSA
,,,,,,,,,5f56506b2a8fb805ac024015,001,2025-04-30_18h48.21.660,empathy_intonation_perc,2024.1.4,Win32,60.0240096,,,,,,,,,,,,,,14,aura,,,,,,446.295,447.628,0,1,0.778,,0,177,177,13,1,three_way_cognate,1,REAL,FALSA
,,,,,,,,,5f56506b2a8fb805ac024015,001,2025-04-30_18h48.21.660,empathy_intonation_perc,2024.1.4,Win32,60.0240096,,,,,,,,,,,,,,62,pegar,,,,,,447.628,450.078,1,0,1.925,,0,178,178,61,1,non_cognate,1,REAL,FALSA
,,,,,,,,,5f56506b2a8fb805ac024015,001,2025-04-30_18h48.21.660,empathy_intonation_perc,2024.1.4,Win32,60.0240096,,,,,,,,,,,,,,74,ala,,,,,,450.083,451.411,0,1,0.787,,0,179,179,73,1,non_cognate,1,REAL,FALSA
,,,,,,,,,5f56506b2a8fb805ac024015,001,2025-04-30_18h48.21.660,empathy_intonation_perc,2024.1.4,Win32,60.0240096,,,,,,,,,,,,,,18,altar,,,,,,451.411,452.977,0,1,1.018,,0,180,180,17,1,three_way_cognate,1,REAL,FALSA
,,,,,,,,,5f56506b2a8fb805ac024015,001,2025-04-30_18h48.21.660,empathy_intonation_perc,2024.1.4,Win32,60.0240096,,,,,,,,,,,,,,120,mauja,,,,,,452.977,454.326,0,1,0.802,,0,181,181,119,1,pseudoword,0,REAL,FALSA
,,,,,,,,,5f56506b2a8fb805ac024015,001,2025-04-30_18h48.21.660,empathy_intonation_perc,2024.1.4,Win32,60.0240096,,,,,,,,,,,,,,24,retina,,,,,,454.327,456.159,0,1,1.28,,0,182,182,23,1,three_way_cognate,1,REAL,FALSA
,,,,,,,,,5f56506b2a8fb805ac024015,001,2025-04-30_18h48.21.660,empathy_intonation_perc,2024.1.4,Win32,60.0240096,,,,,,,,,,,,,,51,listo,,,,,,456.16,457.476,1,0,0.769,,0,183,183,50,1,non_cognate,1,REAL,FALSA
,,,,,,,,,5f56506b2a8fb805ac024015,001,2025-04-30_18h48.21.660,empathy_intonation_perc,2024.1.4,Win32,60.0240096,,,,,,,,,,,,,,115,lidena,,,,,,457.477,458.925,0,1,0.903,,0,184,184,114,1,pseudoword,0,REAL,FALSA
,,,,,,,,,5f56506b2a8fb805ac024015,001,2025-04-30_18h48.21.660,empathy_intonation_perc,2024.1.4,Win32,60.0240096,,,,,,,,,,,,,,89,muñeca,,,,,,458.926,460.192,0,1,0.684,,0,185,185,88,1,non_cognate,1,REAL,FALSA
,,,,,,,,,5f56506b2a8fb805ac024015,001,2025-04-30_18h48.21.660,empathy_intonation_perc,2024.1.4,Win32,60.0240096,,,,,,,,,,,,,,104,estulo,,,,,,460.192,461.525,0,1,0.791,,0,186,186,103,1,pseudoword,0,REAL,FALSA
,,,,,,,,,5f56506b2a8fb805ac024015,001,2025-04-30_18h48.21.660,empathy_intonation_perc,2024.1.4,Win32,60.0240096,,,,,,,,,,,,,,86,cuenco,,,,,,461.526,463.041,0,1,0.968,,0,187,187,85,1,non_cognate,1,REAL,FALSA
,,,,,,,,,5f56506b2a8fb805ac024015,001,2025-04-30_18h48.21.660,empathy_intonation_perc,2024.1.4,Win32,60.0240096,,,,,,,,,,,,,,146,gió,,,,,,463.042,464.241,0,1,0.651,,0,188,188,145,1,pseudoword,0,REAL,FALSA
,,,,,,,,,5f56506b2a8fb805ac024015,001,2025-04-30_18h48.21.660,empathy_intonation_perc,2024.1.4,Win32,60.0240096,,,,,,,,,,,,,,69,tiza,,,,,,464.242,466.024,0,1,1.232,,0,189,189,68,1,non_cognate,1,REAL,FALSA
,,,,,,,,,5f56506b2a8fb805ac024015,001,2025-04-30_18h48.21.660,empathy_intonation_perc,2024.1.4,Win32,60.0240096,,,,,,,,,,,,,,168,cobén,,,,,,466.024,467.24,0,1,0.669,,0,190,190,167,1,pseudoword,0,REAL,FALSA
,,,,,,,,,5f56506b2a8fb805ac024015,001,2025-04-30_18h48.21.660,empathy_intonation_perc,2024.1.4,Win32,60.0240096,,,,,,,,,,,,,,163,llzan,,,,,,467.241,468.607,0,1,0.823,,0,191,191,162,1,pseudoword,0,REAL,FALSA
