lextale_instructions.started,lextale_instructions.stopped,lextale_instructions_loop.thisRepN,lextale_instructions_loop.thisTrialN,lextale_instructions_loop.thisN,lextale_instructions_loop.thisIndex,lextale_instructions_loop.ran,instructions_text,continue_text,participant,session,date,expName,psychopyVersion,OS,frameRate,lextale_practice.started,lextale_practice.stopped,key_resp_lextale_practice.keys,key_resp_lextale_practice.corr,key_resp_lextale_practice.rt,key_resp_lextale_practice.duration,lextale_practice_feedback.started,lextale_practice_feedback.stopped,lextale_practice_trials.thisRepN,lextale_practice_trials.thisTrialN,lextale_practice_trials.thisN,lextale_practice_trials.thisIndex,lextale_practice_trials.ran,stim,word,correct_response,prac_button_real,prac_button_false,lextale_check.started,lextale_check.stopped,lextale_trial.started,lextale_trial.stopped,key_resp_lextale_trial.keys,key_resp_lextale_trial.corr,key_resp_lextale_trial.rt,key_resp_lextale_trial.duration,lextail_trials.thisRepN,lextail_trials.thisTrialN,lextail_trials.thisN,lextail_trials.thisIndex,lextail_trials.ran,type,correct_reponse,button_real,button_false
0.013,7.57,0,0,0,0,1,"Este es un test de vocabulario en español. 
  
  A continuación vas a ver 90 secuencias de letras que parecen 'españolas'.
  
  Solo algunas de ellas son palabras de verdad.",(presiona la barra espaciadora para continuar),603a80b01bb75f608c3dbb0d,001,2025-04-30_13h24.57.915,empathy_intonation_perc,2024.1.4,Win32,60.0240096,,,,,,,,,,,,,,,,,,,,,,,,,,,,,,,,,,,
7.571,11.15,0,1,1,1,1,"Por favor, señala las palabras que tú conoces (aquellas que estás convencido que son palabras españolas, incluso aunque no seas capaz de dar el significado preciso).",(presiona la barra espaciadora para continuar),603a80b01bb75f608c3dbb0d,001,2025-04-30_13h24.57.915,empathy_intonation_perc,2024.1.4,Win32,60.0240096,,,,,,,,,,,,,,,,,,,,,,,,,,,,,,,,,,,
11.152,12.748,0,2,2,2,1,Pero cuidado: los errores se penalizan. Por eso no tiene sentido tratar de incrementar tu puntuación marcando como reales palabras que nunca has visto.,(presiona la barra espaciadora para continuar),603a80b01bb75f608c3dbb0d,001,2025-04-30_13h24.57.915,empathy_intonation_perc,2024.1.4,Win32,60.0240096,,,,,,,,,,,,,,,,,,,,,,,,,,,,,,,,,,,
12.749,16.793,0,3,3,3,1,"Presiona la tecla 1 si piensas que es una palabra real y la tecla 
  0 si piensas que es una palabra falsa. 
  
  Vamos a practicar un poco...",(presiona la barra espaciadora para continuar),603a80b01bb75f608c3dbb0d,001,2025-04-30_13h24.57.915,empathy_intonation_perc,2024.1.4,Win32,60.0240096,,,,,,,,,,,,,,,,,,,,,,,,,,,,,,,,,,,
,,,,,,,,,603a80b01bb75f608c3dbb0d,001,2025-04-30_13h24.57.915,empathy_intonation_perc,2024.1.4,Win32,60.0240096,16.8,18.942,0,1,1.608,,18.942,19.939,0,0,0,0,1,0,depiste,0,REAL,FALSA,,,,,,,,,,,,,,,,,
,,,,,,,,,603a80b01bb75f608c3dbb0d,001,2025-04-30_13h24.57.915,empathy_intonation_perc,2024.1.4,Win32,60.0240096,19.943,21.526,1,1,1.057,,21.527,22.519,0,1,1,1,1,0,sí,1,REAL,FALSA,,,,,,,,,,,,,,,,,
,,,,,,,,,603a80b01bb75f608c3dbb0d,001,2025-04-30_13h24.57.915,empathy_intonation_perc,2024.1.4,Win32,60.0240096,22.523,24.074,0,1,1.012,,24.074,25.066,0,2,2,2,1,0,coné,0,REAL,FALSA,,,,,,,,,,,,,,,,,
,,,,,,,,,603a80b01bb75f608c3dbb0d,001,2025-04-30_13h24.57.915,empathy_intonation_perc,2024.1.4,Win32,60.0240096,25.072,26.418,1,0,0.817,,26.419,27.414,0,3,3,3,1,0,calpar,0,REAL,FALSA,,,,,,,,,,,,,,,,,
,,,,,,,,,603a80b01bb75f608c3dbb0d,001,2025-04-30_13h24.57.915,empathy_intonation_perc,2024.1.4,Win32,60.0240096,27.415,29.562,0,1,1.612,,29.562,30.561,0,4,4,4,1,0,joten,0,REAL,FALSA,,,,,,,,,,,,,,,,,
,,,,,,,,,603a80b01bb75f608c3dbb0d,001,2025-04-30_13h24.57.915,empathy_intonation_perc,2024.1.4,Win32,60.0240096,30.563,32.428,1,1,1.319,,32.428,33.423,0,5,5,5,1,0,sacapuntas,1,REAL,FALSA,,,,,,,,,,,,,,,,,
,,,,,,,,,603a80b01bb75f608c3dbb0d,001,2025-04-30_13h24.57.915,empathy_intonation_perc,2024.1.4,Win32,60.0240096,33.424,35.111,0,1,1.154,,35.111,36.103,0,6,6,6,1,0,priba,0,REAL,FALSA,,,,,,,,,,,,,,,,,
,,,,,,,,,603a80b01bb75f608c3dbb0d,001,2025-04-30_13h24.57.915,empathy_intonation_perc,2024.1.4,Win32,60.0240096,36.104,38.651,1,0,2.013,,38.651,39.649,0,7,7,7,1,0,pelasula,0,REAL,FALSA,,,,,,,,,,,,,,,,,
,,,,,,,,,603a80b01bb75f608c3dbb0d,001,2025-04-30_13h24.57.915,empathy_intonation_perc,2024.1.4,Win32,60.0240096,39.652,41.169,1,1,0.993,,41.169,42.163,0,8,8,8,1,0,bien,1,REAL,FALSA,,,,,,,,,,,,,,,,,
,,,,,,,,,603a80b01bb75f608c3dbb0d,001,2025-04-30_13h24.57.915,empathy_intonation_perc,2024.1.4,Win32,60.0240096,42.163,43.661,1,1,0.963,,43.661,44.661,0,9,9,9,1,0,casa,1,REAL,FALSA,,,,,,,,,,,,,,,,,
,,,,,,,,,603a80b01bb75f608c3dbb0d,001,2025-04-30_13h24.57.915,empathy_intonation_perc,2024.1.4,Win32,60.0240096,44.663,46.329,1,0,1.113,,46.329,47.324,0,10,10,10,1,0,lejo,0,REAL,FALSA,,,,,,,,,,,,,,,,,
,,,,,,,,,603a80b01bb75f608c3dbb0d,001,2025-04-30_13h24.57.915,empathy_intonation_perc,2024.1.4,Win32,60.0240096,47.325,49.28,0,1,1.426,,49.28,50.278,0,11,11,11,1,0,pretantas,0,REAL,FALSA,,,,,,,,,,,,,,,,,
,,,,,,,,,603a80b01bb75f608c3dbb0d,001,2025-04-30_13h24.57.915,empathy_intonation_perc,2024.1.4,Win32,60.0240096,,,,,,,,,,,,,,,,,,,50.278,54.619,,,,,,,,,,,,,,,
,,,,,,,,,603a80b01bb75f608c3dbb0d,001,2025-04-30_13h24.57.915,empathy_intonation_perc,2024.1.4,Win32,60.0240096,,,,,,,,,,,,,,80,cuenco,,,,,,54.658,56.033,1,0,0.843,,0,0,0,79,1,non_cognate,1,REAL,FALSA
,,,,,,,,,603a80b01bb75f608c3dbb0d,001,2025-04-30_13h24.57.915,empathy_intonation_perc,2024.1.4,Win32,60.0240096,,,,,,,,,,,,,,15,test,,,,,,56.034,57.323,1,0,0.758,,0,1,1,14,1,three_way_cognate,1,REAL,FALSA
,,,,,,,,,603a80b01bb75f608c3dbb0d,001,2025-04-30_13h24.57.915,empathy_intonation_perc,2024.1.4,Win32,60.0240096,,,,,,,,,,,,,,74,ala,,,,,,57.333,58.699,1,0,0.837,,0,2,2,73,1,non_cognate,1,REAL,FALSA
,,,,,,,,,603a80b01bb75f608c3dbb0d,001,2025-04-30_13h24.57.915,empathy_intonation_perc,2024.1.4,Win32,60.0240096,,,,,,,,,,,,,,78,rendir,,,,,,58.701,60.146,0,1,0.915,,0,3,3,77,1,non_cognate,1,REAL,FALSA
,,,,,,,,,603a80b01bb75f608c3dbb0d,001,2025-04-30_13h24.57.915,empathy_intonation_perc,2024.1.4,Win32,60.0240096,,,,,,,,,,,,,,120,mauja,,,,,,60.147,61.628,1,0,0.953,,0,4,4,119,1,pseudoword,0,REAL,FALSA
,,,,,,,,,603a80b01bb75f608c3dbb0d,001,2025-04-30_13h24.57.915,empathy_intonation_perc,2024.1.4,Win32,60.0240096,,,,,,,,,,,,,,45,total,,,,,,61.629,62.809,1,0,0.656,,0,5,5,44,1,two_way_cognate,1,REAL,FALSA
,,,,,,,,,603a80b01bb75f608c3dbb0d,001,2025-04-30_13h24.57.915,empathy_intonation_perc,2024.1.4,Win32,60.0240096,,,,,,,,,,,,,,23,plural,,,,,,62.81,64.491,0,1,1.156,,0,6,6,22,1,three_way_cognate,1,REAL,FALSA
,,,,,,,,,603a80b01bb75f608c3dbb0d,001,2025-04-30_13h24.57.915,empathy_intonation_perc,2024.1.4,Win32,60.0240096,,,,,,,,,,,,,,27,piano,,,,,,64.491,65.867,1,0,0.842,,0,7,7,26,1,two_way_cognate,1,REAL,FALSA
,,,,,,,,,603a80b01bb75f608c3dbb0d,001,2025-04-30_13h24.57.915,empathy_intonation_perc,2024.1.4,Win32,60.0240096,,,,,,,,,,,,,,99,bugor,,,,,,65.871,67.083,0,1,0.683,,0,8,8,98,1,pseudoword,0,REAL,FALSA
,,,,,,,,,603a80b01bb75f608c3dbb0d,001,2025-04-30_13h24.57.915,empathy_intonation_perc,2024.1.4,Win32,60.0240096,,,,,,,,,,,,,,19,mafia,,,,,,67.084,68.734,1,0,1.12,,0,9,9,18,1,three_way_cognate,1,REAL,FALSA
,,,,,,,,,603a80b01bb75f608c3dbb0d,001,2025-04-30_13h24.57.915,empathy_intonation_perc,2024.1.4,Win32,60.0240096,,,,,,,,,,,,,,86,cuenco,,,,,,68.735,69.985,1,0,0.726,,0,10,10,85,1,non_cognate,1,REAL,FALSA
,,,,,,,,,603a80b01bb75f608c3dbb0d,001,2025-04-30_13h24.57.915,empathy_intonation_perc,2024.1.4,Win32,60.0240096,,,,,,,,,,,,,,119,esís,,,,,,69.986,71.611,1,0,1.1,,0,11,11,118,1,pseudoword,0,REAL,FALSA
,,,,,,,,,603a80b01bb75f608c3dbb0d,001,2025-04-30_13h24.57.915,empathy_intonation_perc,2024.1.4,Win32,60.0240096,,,,,,,,,,,,,,60,siglo,,,,,,71.613,72.961,0,1,0.828,,0,12,12,59,1,non_cognate,1,REAL,FALSA
,,,,,,,,,603a80b01bb75f608c3dbb0d,001,2025-04-30_13h24.57.915,empathy_intonation_perc,2024.1.4,Win32,60.0240096,,,,,,,,,,,,,,46,mortal,,,,,,72.962,74.806,0,1,1.316,,0,13,13,45,1,two_way_cognate,1,REAL,FALSA
,,,,,,,,,603a80b01bb75f608c3dbb0d,001,2025-04-30_13h24.57.915,empathy_intonation_perc,2024.1.4,Win32,60.0240096,,,,,,,,,,,,,,109,laras,,,,,,74.807,76.072,1,0,0.733,,0,14,14,108,1,pseudoword,0,REAL,FALSA
,,,,,,,,,603a80b01bb75f608c3dbb0d,001,2025-04-30_13h24.57.915,empathy_intonation_perc,2024.1.4,Win32,60.0240096,,,,,,,,,,,,,,142,parre,,,,,,76.073,77.622,1,0,1.017,,0,15,15,141,1,pseudoword,0,REAL,FALSA
,,,,,,,,,603a80b01bb75f608c3dbb0d,001,2025-04-30_13h24.57.915,empathy_intonation_perc,2024.1.4,Win32,60.0240096,,,,,,,,,,,,,,49,teñir,,,,,,77.623,79.086,1,0,0.937,,0,16,16,48,1,non_cognate,1,REAL,FALSA
,,,,,,,,,603a80b01bb75f608c3dbb0d,001,2025-04-30_13h24.57.915,empathy_intonation_perc,2024.1.4,Win32,60.0240096,,,,,,,,,,,,,,35,aurora,,,,,,79.087,80.339,1,0,0.724,,0,17,17,34,1,two_way_cognate,1,REAL,FALSA
,,,,,,,,,603a80b01bb75f608c3dbb0d,001,2025-04-30_13h24.57.915,empathy_intonation_perc,2024.1.4,Win32,60.0240096,,,,,,,,,,,,,,129,vinzó,,,,,,80.34,81.902,0,1,1.039,,0,18,18,128,1,pseudoword,0,REAL,FALSA
,,,,,,,,,603a80b01bb75f608c3dbb0d,001,2025-04-30_13h24.57.915,empathy_intonation_perc,2024.1.4,Win32,60.0240096,,,,,,,,,,,,,,3,disco,,,,,,81.902,83.102,1,0,0.675,,0,19,19,2,1,three_way_cognate,1,REAL,FALSA
,,,,,,,,,603a80b01bb75f608c3dbb0d,001,2025-04-30_13h24.57.915,empathy_intonation_perc,2024.1.4,Win32,60.0240096,,,,,,,,,,,,,,170,diabo,,,,,,83.103,84.584,0,1,0.96,,0,20,20,169,1,pseudoword,0,REAL,FALSA
,,,,,,,,,603a80b01bb75f608c3dbb0d,001,2025-04-30_13h24.57.915,empathy_intonation_perc,2024.1.4,Win32,60.0240096,,,,,,,,,,,,,,2,tumor,,,,,,84.584,85.947,1,0,0.839,,0,21,21,1,1,three_way_cognate,1,REAL,FALSA
,,,,,,,,,603a80b01bb75f608c3dbb0d,001,2025-04-30_13h24.57.915,empathy_intonation_perc,2024.1.4,Win32,60.0240096,,,,,,,,,,,,,,39,casual,,,,,,85.948,87.629,1,0,1.155,,0,22,22,38,1,two_way_cognate,1,REAL,FALSA
,,,,,,,,,603a80b01bb75f608c3dbb0d,001,2025-04-30_13h24.57.915,empathy_intonation_perc,2024.1.4,Win32,60.0240096,,,,,,,,,,,,,,5,extra,,,,,,87.629,88.744,1,0,0.583,,0,23,23,4,1,three_way_cognate,1,REAL,FALSA
,,,,,,,,,603a80b01bb75f608c3dbb0d,001,2025-04-30_13h24.57.915,empathy_intonation_perc,2024.1.4,Win32,60.0240096,,,,,,,,,,,,,,146,gió,,,,,,88.746,89.993,1,0,0.712,,0,24,24,145,1,pseudoword,0,REAL,FALSA
,,,,,,,,,603a80b01bb75f608c3dbb0d,001,2025-04-30_13h24.57.915,empathy_intonation_perc,2024.1.4,Win32,60.0240096,,,,,,,,,,,,,,113,nasce,,,,,,89.993,91.573,1,0,1.055,,0,25,25,112,1,pseudoword,0,REAL,FALSA
,,,,,,,,,603a80b01bb75f608c3dbb0d,001,2025-04-30_13h24.57.915,empathy_intonation_perc,2024.1.4,Win32,60.0240096,,,,,,,,,,,,,,137,trugo,,,,,,91.574,92.725,0,1,0.625,,0,26,26,136,1,pseudoword,0,REAL,FALSA
,,,,,,,,,603a80b01bb75f608c3dbb0d,001,2025-04-30_13h24.57.915,empathy_intonation_perc,2024.1.4,Win32,60.0240096,,,,,,,,,,,,,,92,flecha,,,,,,92.725,94.052,0,1,0.801,,0,27,27,91,1,non_cognate,1,REAL,FALSA
,,,,,,,,,603a80b01bb75f608c3dbb0d,001,2025-04-30_13h24.57.915,empathy_intonation_perc,2024.1.4,Win32,60.0240096,,,,,,,,,,,,,,144,diroco,,,,,,94.053,95.832,0,1,1.249,,0,28,28,143,1,pseudoword,0,REAL,FALSA
,,,,,,,,,603a80b01bb75f608c3dbb0d,001,2025-04-30_13h24.57.915,empathy_intonation_perc,2024.1.4,Win32,60.0240096,,,,,,,,,,,,,,102,coyo,,,,,,95.834,97.259,1,0,0.896,,0,29,29,101,1,pseudoword,0,REAL,FALSA
,,,,,,,,,603a80b01bb75f608c3dbb0d,001,2025-04-30_13h24.57.915,empathy_intonation_perc,2024.1.4,Win32,60.0240096,,,,,,,,,,,,,,173,mibro,,,,,,97.259,98.512,0,1,0.732,,0,30,30,172,1,pseudoword,0,REAL,FALSA
,,,,,,,,,603a80b01bb75f608c3dbb0d,001,2025-04-30_13h24.57.915,empathy_intonation_perc,2024.1.4,Win32,60.0240096,,,,,,,,,,,,,,127,vien,,,,,,98.514,99.795,1,0,0.753,,0,31,31,126,1,pseudoword,0,REAL,FALSA
,,,,,,,,,603a80b01bb75f608c3dbb0d,001,2025-04-30_13h24.57.915,empathy_intonation_perc,2024.1.4,Win32,60.0240096,,,,,,,,,,,,,,103,vueras,,,,,,99.797,100.893,1,0,0.565,,0,32,32,102,1,pseudoword,0,REAL,FALSA
,,,,,,,,,603a80b01bb75f608c3dbb0d,001,2025-04-30_13h24.57.915,empathy_intonation_perc,2024.1.4,Win32,60.0240096,,,,,,,,,,,,,,98,martir,,,,,,100.894,102.197,1,0,0.775,,0,33,33,97,1,pseudoword,0,REAL,FALSA
,,,,,,,,,603a80b01bb75f608c3dbb0d,001,2025-04-30_13h24.57.915,empathy_intonation_perc,2024.1.4,Win32,60.0240096,,,,,,,,,,,,,,33,collar,,,,,,102.198,103.691,0,1,0.966,,0,34,34,32,1,two_way_cognate,1,REAL,FALSA
,,,,,,,,,603a80b01bb75f608c3dbb0d,001,2025-04-30_13h24.57.915,empathy_intonation_perc,2024.1.4,Win32,60.0240096,,,,,,,,,,,,,,79,suelo,,,,,,103.692,105.404,0,1,1.182,,0,35,35,78,1,non_cognate,1,REAL,FALSA
,,,,,,,,,603a80b01bb75f608c3dbb0d,001,2025-04-30_13h24.57.915,empathy_intonation_perc,2024.1.4,Win32,60.0240096,,,,,,,,,,,,,,90,venado,,,,,,105.405,106.902,1,0,0.963,,0,36,36,89,1,non_cognate,1,REAL,FALSA
,,,,,,,,,603a80b01bb75f608c3dbb0d,001,2025-04-30_13h24.57.915,empathy_intonation_perc,2024.1.4,Win32,60.0240096,,,,,,,,,,,,,,42,rumor,,,,,,106.903,108.451,0,1,1.015,,0,37,37,41,1,two_way_cognate,1,REAL,FALSA
,,,,,,,,,603a80b01bb75f608c3dbb0d,001,2025-04-30_13h24.57.915,empathy_intonation_perc,2024.1.4,Win32,60.0240096,,,,,,,,,,,,,,20,trauma,,,,,,108.452,110.068,1,0,1.09,,0,38,38,19,1,three_way_cognate,1,REAL,FALSA
,,,,,,,,,603a80b01bb75f608c3dbb0d,001,2025-04-30_13h24.57.915,empathy_intonation_perc,2024.1.4,Win32,60.0240096,,,,,,,,,,,,,,29,clamor,,,,,,110.069,111.782,0,1,1.187,,0,39,39,28,1,two_way_cognate,1,REAL,FALSA
,,,,,,,,,603a80b01bb75f608c3dbb0d,001,2025-04-30_13h24.57.915,empathy_intonation_perc,2024.1.4,Win32,60.0240096,,,,,,,,,,,,,,24,retina,,,,,,111.783,113.582,0,1,1.274,,0,40,40,23,1,three_way_cognate,1,REAL,FALSA
,,,,,,,,,603a80b01bb75f608c3dbb0d,001,2025-04-30_13h24.57.915,empathy_intonation_perc,2024.1.4,Win32,60.0240096,,,,,,,,,,,,,,13,plan,,,,,,113.582,115.01,1,0,0.903,,0,41,41,12,1,three_way_cognate,1,REAL,FALSA
,,,,,,,,,603a80b01bb75f608c3dbb0d,001,2025-04-30_13h24.57.915,empathy_intonation_perc,2024.1.4,Win32,60.0240096,,,,,,,,,,,,,,40,pelvis,,,,,,115.011,117.057,0,1,1.517,,0,42,42,39,1,two_way_cognate,1,REAL,FALSA
,,,,,,,,,603a80b01bb75f608c3dbb0d,001,2025-04-30_13h24.57.915,empathy_intonation_perc,2024.1.4,Win32,60.0240096,,,,,,,,,,,,,,112,samón,,,,,,117.058,119.067,0,1,1.481,,0,43,43,111,1,pseudoword,0,REAL,FALSA
,,,,,,,,,603a80b01bb75f608c3dbb0d,001,2025-04-30_13h24.57.915,empathy_intonation_perc,2024.1.4,Win32,60.0240096,,,,,,,,,,,,,,87,muleta,,,,,,119.076,120.489,1,0,0.885,,0,44,44,86,1,non_cognate,1,REAL,FALSA
,,,,,,,,,603a80b01bb75f608c3dbb0d,001,2025-04-30_13h24.57.915,empathy_intonation_perc,2024.1.4,Win32,60.0240096,,,,,,,,,,,,,,63,hilo,,,,,,120.49,121.784,1,0,0.767,,0,45,45,62,1,non_cognate,1,REAL,FALSA
,,,,,,,,,603a80b01bb75f608c3dbb0d,001,2025-04-30_13h24.57.915,empathy_intonation_perc,2024.1.4,Win32,60.0240096,,,,,,,,,,,,,,11,golf,,,,,,121.785,123.468,1,0,1.153,,0,46,46,10,1,three_way_cognate,1,REAL,FALSA
,,,,,,,,,603a80b01bb75f608c3dbb0d,001,2025-04-30_13h24.57.915,empathy_intonation_perc,2024.1.4,Win32,60.0240096,,,,,,,,,,,,,,76,chocar,,,,,,123.469,124.901,0,1,0.904,,0,47,47,75,1,non_cognate,1,REAL,FALSA
,,,,,,,,,603a80b01bb75f608c3dbb0d,001,2025-04-30_13h24.57.915,empathy_intonation_perc,2024.1.4,Win32,60.0240096,,,,,,,,,,,,,,48,pelvis,,,,,,124.902,126.165,0,1,0.738,,0,48,48,47,1,two_way_cognate,1,REAL,FALSA
,,,,,,,,,603a80b01bb75f608c3dbb0d,001,2025-04-30_13h24.57.915,empathy_intonation_perc,2024.1.4,Win32,60.0240096,,,,,,,,,,,,,,8,kilo,,,,,,126.166,127.883,1,0,1.19,,0,49,49,7,1,three_way_cognate,1,REAL,FALSA
,,,,,,,,,603a80b01bb75f608c3dbb0d,001,2025-04-30_13h24.57.915,empathy_intonation_perc,2024.1.4,Win32,60.0240096,,,,,,,,,,,,,,135,panté,,,,,,127.883,129.325,1,0,0.918,,0,50,50,134,1,pseudoword,0,REAL,FALSA
,,,,,,,,,603a80b01bb75f608c3dbb0d,001,2025-04-30_13h24.57.915,empathy_intonation_perc,2024.1.4,Win32,60.0240096,,,,,,,,,,,,,,28,ardor,,,,,,129.327,130.746,0,1,0.889,,0,51,51,27,1,two_way_cognate,1,REAL,FALSA
,,,,,,,,,603a80b01bb75f608c3dbb0d,001,2025-04-30_13h24.57.915,empathy_intonation_perc,2024.1.4,Win32,60.0240096,,,,,,,,,,,,,,114,dibrea,,,,,,130.746,132.357,0,1,1.089,,0,52,52,113,1,pseudoword,0,REAL,FALSA
,,,,,,,,,603a80b01bb75f608c3dbb0d,001,2025-04-30_13h24.57.915,empathy_intonation_perc,2024.1.4,Win32,60.0240096,,,,,,,,,,,,,,187,nomata,,,,,,132.36,133.656,1,0,0.771,,0,53,53,186,1,pseudoword,0,REAL,FALSA
,,,,,,,,,603a80b01bb75f608c3dbb0d,001,2025-04-30_13h24.57.915,empathy_intonation_perc,2024.1.4,Win32,60.0240096,,,,,,,,,,,,,,91,equipo,,,,,,133.657,134.885,1,0,0.699,,0,54,54,90,1,non_cognate,1,REAL,FALSA
,,,,,,,,,603a80b01bb75f608c3dbb0d,001,2025-04-30_13h24.57.915,empathy_intonation_perc,2024.1.4,Win32,60.0240096,,,,,,,,,,,,,,128,pelí,,,,,,134.887,136.151,1,0,0.732,,0,55,55,127,1,pseudoword,0,REAL,FALSA
,,,,,,,,,603a80b01bb75f608c3dbb0d,001,2025-04-30_13h24.57.915,empathy_intonation_perc,2024.1.4,Win32,60.0240096,,,,,,,,,,,,,,105,peniz,,,,,,136.152,138.152,1,0,1.471,,0,56,56,104,1,pseudoword,0,REAL,FALSA
,,,,,,,,,603a80b01bb75f608c3dbb0d,001,2025-04-30_13h24.57.915,empathy_intonation_perc,2024.1.4,Win32,60.0240096,,,,,,,,,,,,,,55,maldad,,,,,,138.153,139.652,0,1,0.974,,0,57,57,54,1,non_cognate,1,REAL,FALSA
,,,,,,,,,603a80b01bb75f608c3dbb0d,001,2025-04-30_13h24.57.915,empathy_intonation_perc,2024.1.4,Win32,60.0240096,,,,,,,,,,,,,,156,ozoso,,,,,,139.653,141.564,0,1,1.389,,0,58,58,155,1,pseudoword,0,REAL,FALSA
,,,,,,,,,603a80b01bb75f608c3dbb0d,001,2025-04-30_13h24.57.915,empathy_intonation_perc,2024.1.4,Win32,60.0240096,,,,,,,,,,,,,,30,fiscal,,,,,,141.565,142.914,1,0,0.826,,0,59,59,29,1,two_way_cognate,1,REAL,FALSA
,,,,,,,,,603a80b01bb75f608c3dbb0d,001,2025-04-30_13h24.57.915,empathy_intonation_perc,2024.1.4,Win32,60.0240096,,,,,,,,,,,,,,165,chote,,,,,,142.915,144.327,0,1,0.89,,0,60,60,164,1,pseudoword,0,REAL,FALSA
,,,,,,,,,603a80b01bb75f608c3dbb0d,001,2025-04-30_13h24.57.915,empathy_intonation_perc,2024.1.4,Win32,60.0240096,,,,,,,,,,,,,,58,colcha,,,,,,144.327,146.231,0,1,1.377,,0,61,61,57,1,non_cognate,1,REAL,FALSA
,,,,,,,,,603a80b01bb75f608c3dbb0d,001,2025-04-30_13h24.57.915,empathy_intonation_perc,2024.1.4,Win32,60.0240096,,,,,,,,,,,,,,52,blando,,,,,,146.231,147.621,1,0,0.866,,0,62,62,51,1,non_cognate,1,REAL,FALSA
,,,,,,,,,603a80b01bb75f608c3dbb0d,001,2025-04-30_13h24.57.915,empathy_intonation_perc,2024.1.4,Win32,60.0240096,,,,,,,,,,,,,,117,morrá,,,,,,147.623,148.803,1,0,0.654,,0,63,63,116,1,pseudoword,0,REAL,FALSA
,,,,,,,,,603a80b01bb75f608c3dbb0d,001,2025-04-30_13h24.57.915,empathy_intonation_perc,2024.1.4,Win32,60.0240096,,,,,,,,,,,,,,16,chat,,,,,,148.804,150.072,0,1,0.738,,0,64,64,15,1,three_way_cognate,1,REAL,FALSA
,,,,,,,,,603a80b01bb75f608c3dbb0d,001,2025-04-30_13h24.57.915,empathy_intonation_perc,2024.1.4,Win32,60.0240096,,,,,,,,,,,,,,180,pupica,,,,,,150.079,151.834,0,1,1.238,,0,65,65,179,1,pseudoword,0,REAL,FALSA
,,,,,,,,,603a80b01bb75f608c3dbb0d,001,2025-04-30_13h24.57.915,empathy_intonation_perc,2024.1.4,Win32,60.0240096,,,,,,,,,,,,,,62,pegar,,,,,,151.836,153.562,0,1,1.197,,0,66,66,61,1,non_cognate,1,REAL,FALSA
,,,,,,,,,603a80b01bb75f608c3dbb0d,001,2025-04-30_13h24.57.915,empathy_intonation_perc,2024.1.4,Win32,60.0240096,,,,,,,,,,,,,,192,próces,,,,,,153.563,154.833,1,0,0.741,,0,67,67,191,1,pseudoword,0,REAL,FALSA
,,,,,,,,,603a80b01bb75f608c3dbb0d,001,2025-04-30_13h24.57.915,empathy_intonation_perc,2024.1.4,Win32,60.0240096,,,,,,,,,,,,,,26,enigma,,,,,,154.834,156.214,1,0,0.849,,0,68,68,25,1,two_way_cognate,1,REAL,FALSA
,,,,,,,,,603a80b01bb75f608c3dbb0d,001,2025-04-30_13h24.57.915,empathy_intonation_perc,2024.1.4,Win32,60.0240096,,,,,,,,,,,,,,69,tiza,,,,,,156.215,157.713,1,0,0.973,,0,69,69,68,1,non_cognate,1,REAL,FALSA
,,,,,,,,,603a80b01bb75f608c3dbb0d,001,2025-04-30_13h24.57.915,empathy_intonation_perc,2024.1.4,Win32,60.0240096,,,,,,,,,,,,,,12,dogma,,,,,,157.715,159.312,1,0,1.074,,0,70,70,11,1,three_way_cognate,1,REAL,FALSA
,,,,,,,,,603a80b01bb75f608c3dbb0d,001,2025-04-30_13h24.57.915,empathy_intonation_perc,2024.1.4,Win32,60.0240096,,,,,,,,,,,,,,89,muñeca,,,,,,159.312,160.803,1,0,0.965,,0,71,71,88,1,non_cognate,1,REAL,FALSA
,,,,,,,,,603a80b01bb75f608c3dbb0d,001,2025-04-30_13h24.57.915,empathy_intonation_perc,2024.1.4,Win32,60.0240096,,,,,,,,,,,,,,143,hurcos,,,,,,160.804,162.518,0,1,1.182,,0,72,72,142,1,pseudoword,0,REAL,FALSA
,,,,,,,,,603a80b01bb75f608c3dbb0d,001,2025-04-30_13h24.57.915,empathy_intonation_perc,2024.1.4,Win32,60.0240096,,,,,,,,,,,,,,124,lobe,,,,,,162.521,163.851,0,1,0.8,,0,73,73,123,1,pseudoword,0,REAL,FALSA
,,,,,,,,,603a80b01bb75f608c3dbb0d,001,2025-04-30_13h24.57.915,empathy_intonation_perc,2024.1.4,Win32,60.0240096,,,,,,,,,,,,,,148,gino,,,,,,163.853,165.787,1,0,1.407,,0,74,74,147,1,pseudoword,0,REAL,FALSA
,,,,,,,,,603a80b01bb75f608c3dbb0d,001,2025-04-30_13h24.57.915,empathy_intonation_perc,2024.1.4,Win32,60.0240096,,,,,,,,,,,,,,18,altar,,,,,,165.788,168.132,0,1,1.823,,0,75,75,17,1,three_way_cognate,1,REAL,FALSA
,,,,,,,,,603a80b01bb75f608c3dbb0d,001,2025-04-30_13h24.57.915,empathy_intonation_perc,2024.1.4,Win32,60.0240096,,,,,,,,,,,,,,168,cobén,,,,,,168.134,169.347,1,0,0.69,,0,76,76,167,1,pseudoword,0,REAL,FALSA
,,,,,,,,,603a80b01bb75f608c3dbb0d,001,2025-04-30_13h24.57.915,empathy_intonation_perc,2024.1.4,Win32,60.0240096,,,,,,,,,,,,,,108,jauda,,,,,,169.347,170.631,0,1,0.759,,0,77,77,107,1,pseudoword,0,REAL,FALSA
,,,,,,,,,603a80b01bb75f608c3dbb0d,001,2025-04-30_13h24.57.915,empathy_intonation_perc,2024.1.4,Win32,60.0240096,,,,,,,,,,,,,,122,boñaz,,,,,,170.631,171.929,1,0,0.775,,0,78,78,121,1,pseudoword,0,REAL,FALSA
,,,,,,,,,603a80b01bb75f608c3dbb0d,001,2025-04-30_13h24.57.915,empathy_intonation_perc,2024.1.4,Win32,60.0240096,,,,,,,,,,,,,,4,flora,,,,,,171.93,173.106,1,0,0.652,,0,79,79,3,1,three_way_cognate,1,REAL,FALSA
,,,,,,,,,603a80b01bb75f608c3dbb0d,001,2025-04-30_13h24.57.915,empathy_intonation_perc,2024.1.4,Win32,60.0240096,,,,,,,,,,,,,,64,rizado,,,,,,173.107,174.421,1,0,0.783,,0,80,80,63,1,non_cognate,1,REAL,FALSA
,,,,,,,,,603a80b01bb75f608c3dbb0d,001,2025-04-30_13h24.57.915,empathy_intonation_perc,2024.1.4,Win32,60.0240096,,,,,,,,,,,,,,53,punta,,,,,,174.422,176.023,1,0,1.073,,0,81,81,52,1,non_cognate,1,REAL,FALSA
,,,,,,,,,603a80b01bb75f608c3dbb0d,001,2025-04-30_13h24.57.915,empathy_intonation_perc,2024.1.4,Win32,60.0240096,,,,,,,,,,,,,,17,clan,,,,,,176.023,177.401,0,1,0.849,,0,82,82,16,1,three_way_cognate,1,REAL,FALSA
,,,,,,,,,603a80b01bb75f608c3dbb0d,001,2025-04-30_13h24.57.915,empathy_intonation_perc,2024.1.4,Win32,60.0240096,,,,,,,,,,,,,,184,huenos,,,,,,177.402,178.682,1,0,0.762,,0,83,83,183,1,pseudoword,0,REAL,FALSA
,,,,,,,,,603a80b01bb75f608c3dbb0d,001,2025-04-30_13h24.57.915,empathy_intonation_perc,2024.1.4,Win32,60.0240096,,,,,,,,,,,,,,84,aviso,,,,,,178.683,180.198,1,0,0.985,,0,84,84,83,1,non_cognate,1,REAL,FALSA
,,,,,,,,,603a80b01bb75f608c3dbb0d,001,2025-04-30_13h24.57.915,empathy_intonation_perc,2024.1.4,Win32,60.0240096,,,,,,,,,,,,,,154,harvé,,,,,,180.2,181.598,1,0,0.865,,0,85,85,153,1,pseudoword,0,REAL,FALSA
,,,,,,,,,603a80b01bb75f608c3dbb0d,001,2025-04-30_13h24.57.915,empathy_intonation_perc,2024.1.4,Win32,60.0240096,,,,,,,,,,,,,,158,babrá,,,,,,181.602,183.327,0,1,1.199,,0,86,86,157,1,pseudoword,0,REAL,FALSA
,,,,,,,,,603a80b01bb75f608c3dbb0d,001,2025-04-30_13h24.57.915,empathy_intonation_perc,2024.1.4,Win32,60.0240096,,,,,,,,,,,,,,147,alla,,,,,,183.328,184.78,1,0,0.925,,0,87,87,146,1,pseudoword,0,REAL,FALSA
,,,,,,,,,603a80b01bb75f608c3dbb0d,001,2025-04-30_13h24.57.915,empathy_intonation_perc,2024.1.4,Win32,60.0240096,,,,,,,,,,,,,,32,animal,,,,,,184.781,186.091,0,1,0.78,,0,88,88,31,1,two_way_cognate,1,REAL,FALSA
,,,,,,,,,603a80b01bb75f608c3dbb0d,001,2025-04-30_13h24.57.915,empathy_intonation_perc,2024.1.4,Win32,60.0240096,,,,,,,,,,,,,,175,tradía,,,,,,186.093,187.39,1,0,0.766,,0,89,89,174,1,pseudoword,0,REAL,FALSA
,,,,,,,,,603a80b01bb75f608c3dbb0d,001,2025-04-30_13h24.57.915,empathy_intonation_perc,2024.1.4,Win32,60.0240096,,,,,,,,,,,,,,37,torso,,,,,,187.392,188.992,0,1,1.073,,0,90,90,36,1,two_way_cognate,1,REAL,FALSA
,,,,,,,,,603a80b01bb75f608c3dbb0d,001,2025-04-30_13h24.57.915,empathy_intonation_perc,2024.1.4,Win32,60.0240096,,,,,,,,,,,,,,61,aduana,,,,,,188.992,190.42,0,1,0.909,,0,91,91,60,1,non_cognate,1,REAL,FALSA
,,,,,,,,,603a80b01bb75f608c3dbb0d,001,2025-04-30_13h24.57.915,empathy_intonation_perc,2024.1.4,Win32,60.0240096,,,,,,,,,,,,,,152,prave,,,,,,190.422,192.735,0,1,1.787,,0,92,92,151,1,pseudoword,0,REAL,FALSA
,,,,,,,,,603a80b01bb75f608c3dbb0d,001,2025-04-30_13h24.57.915,empathy_intonation_perc,2024.1.4,Win32,60.0240096,,,,,,,,,,,,,,183,edioso,,,,,,192.737,194.153,1,0,0.89,,0,93,93,182,1,pseudoword,0,REAL,FALSA
,,,,,,,,,603a80b01bb75f608c3dbb0d,001,2025-04-30_13h24.57.915,empathy_intonation_perc,2024.1.4,Win32,60.0240096,,,,,,,,,,,,,,57,regalo,,,,,,194.153,195.448,1,0,0.772,,0,94,94,56,1,non_cognate,1,REAL,FALSA
,,,,,,,,,603a80b01bb75f608c3dbb0d,001,2025-04-30_13h24.57.915,empathy_intonation_perc,2024.1.4,Win32,60.0240096,,,,,,,,,,,,,,83,hálito,,,,,,195.45,196.698,1,0,0.721,,0,95,95,82,1,non_cognate,1,REAL,FALSA
,,,,,,,,,603a80b01bb75f608c3dbb0d,001,2025-04-30_13h24.57.915,empathy_intonation_perc,2024.1.4,Win32,60.0240096,,,,,,,,,,,,,,121,barbs,,,,,,196.7,198.064,0,1,0.835,,0,96,96,120,1,pseudoword,0,REAL,FALSA
,,,,,,,,,603a80b01bb75f608c3dbb0d,001,2025-04-30_13h24.57.915,empathy_intonation_perc,2024.1.4,Win32,60.0240096,,,,,,,,,,,,,,139,sasos,,,,,,198.065,199.475,0,1,0.887,,0,97,97,138,1,pseudoword,0,REAL,FALSA
,,,,,,,,,603a80b01bb75f608c3dbb0d,001,2025-04-30_13h24.57.915,empathy_intonation_perc,2024.1.4,Win32,60.0240096,,,,,,,,,,,,,,145,rúo,,,,,,199.477,200.691,1,0,0.684,,0,98,98,144,1,pseudoword,0,REAL,FALSA
,,,,,,,,,603a80b01bb75f608c3dbb0d,001,2025-04-30_13h24.57.915,empathy_intonation_perc,2024.1.4,Win32,60.0240096,,,,,,,,,,,,,,115,lidena,,,,,,200.693,202.205,0,1,0.986,,0,99,99,114,1,pseudoword,0,REAL,FALSA
,,,,,,,,,603a80b01bb75f608c3dbb0d,001,2025-04-30_13h24.57.915,empathy_intonation_perc,2024.1.4,Win32,60.0240096,,,,,,,,,,,,,,160,fomeó,,,,,,202.206,203.702,0,1,0.965,,0,100,100,159,1,pseudoword,0,REAL,FALSA
,,,,,,,,,603a80b01bb75f608c3dbb0d,001,2025-04-30_13h24.57.915,empathy_intonation_perc,2024.1.4,Win32,60.0240096,,,,,,,,,,,,,,41,pasta,,,,,,203.703,204.924,1,0,0.692,,0,101,101,40,1,two_way_cognate,1,REAL,FALSA
,,,,,,,,,603a80b01bb75f608c3dbb0d,001,2025-04-30_13h24.57.915,empathy_intonation_perc,2024.1.4,Win32,60.0240096,,,,,,,,,,,,,,186,rizate,,,,,,204.924,206.632,1,0,1.183,,0,102,102,185,1,pseudoword,0,REAL,FALSA
,,,,,,,,,603a80b01bb75f608c3dbb0d,001,2025-04-30_13h24.57.915,empathy_intonation_perc,2024.1.4,Win32,60.0240096,,,,,,,,,,,,,,6,horror,,,,,,206.633,208.417,1,0,1.255,,0,103,103,5,1,three_way_cognate,1,REAL,FALSA
,,,,,,,,,603a80b01bb75f608c3dbb0d,001,2025-04-30_13h24.57.915,empathy_intonation_perc,2024.1.4,Win32,60.0240096,,,,,,,,,,,,,,82,brillo,,,,,,208.418,210.13,1,0,1.183,,0,104,104,81,1,non_cognate,1,REAL,FALSA
,,,,,,,,,603a80b01bb75f608c3dbb0d,001,2025-04-30_13h24.57.915,empathy_intonation_perc,2024.1.4,Win32,60.0240096,,,,,,,,,,,,,,131,fuar,,,,,,210.131,211.282,0,1,0.625,,0,105,105,130,1,pseudoword,0,REAL,FALSA
,,,,,,,,,603a80b01bb75f608c3dbb0d,001,2025-04-30_13h24.57.915,empathy_intonation_perc,2024.1.4,Win32,60.0240096,,,,,,,,,,,,,,59,feo,,,,,,211.282,212.848,0,1,0.997,,0,106,106,58,1,non_cognate,1,REAL,FALSA
,,,,,,,,,603a80b01bb75f608c3dbb0d,001,2025-04-30_13h24.57.915,empathy_intonation_perc,2024.1.4,Win32,60.0240096,,,,,,,,,,,,,,96,caro,,,,,,212.852,214.192,1,0,0.819,,0,107,107,95,1,non_cognate,1,REAL,FALSA
,,,,,,,,,603a80b01bb75f608c3dbb0d,001,2025-04-30_13h24.57.915,empathy_intonation_perc,2024.1.4,Win32,60.0240096,,,,,,,,,,,,,,136,hueas,,,,,,214.193,215.584,1,0,0.865,,0,108,108,135,1,pseudoword,0,REAL,FALSA
,,,,,,,,,603a80b01bb75f608c3dbb0d,001,2025-04-30_13h24.57.915,empathy_intonation_perc,2024.1.4,Win32,60.0240096,,,,,,,,,,,,,,67,llamar,,,,,,215.585,217.203,1,0,1.098,,0,109,109,66,1,non_cognate,1,REAL,FALSA
,,,,,,,,,603a80b01bb75f608c3dbb0d,001,2025-04-30_13h24.57.915,empathy_intonation_perc,2024.1.4,Win32,60.0240096,,,,,,,,,,,,,,178,inichó,,,,,,217.205,219.27,1,0,1.535,,0,110,110,177,1,pseudoword,0,REAL,FALSA
,,,,,,,,,603a80b01bb75f608c3dbb0d,001,2025-04-30_13h24.57.915,empathy_intonation_perc,2024.1.4,Win32,60.0240096,,,,,,,,,,,,,,106,diebro,,,,,,219.271,220.583,0,1,0.786,,0,111,111,105,1,pseudoword,0,REAL,FALSA
,,,,,,,,,603a80b01bb75f608c3dbb0d,001,2025-04-30_13h24.57.915,empathy_intonation_perc,2024.1.4,Win32,60.0240096,,,,,,,,,,,,,,34,actor,,,,,,220.585,222.034,0,1,0.922,,0,112,112,33,1,two_way_cognate,1,REAL,FALSA
,,,,,,,,,603a80b01bb75f608c3dbb0d,001,2025-04-30_13h24.57.915,empathy_intonation_perc,2024.1.4,Win32,60.0240096,,,,,,,,,,,,,,182,desaro,,,,,,222.035,223.416,1,0,0.856,,0,113,113,181,1,pseudoword,0,REAL,FALSA
,,,,,,,,,603a80b01bb75f608c3dbb0d,001,2025-04-30_13h24.57.915,empathy_intonation_perc,2024.1.4,Win32,60.0240096,,,,,,,,,,,,,,130,dubo,,,,,,223.416,224.632,0,1,0.69,,0,114,114,129,1,pseudoword,0,REAL,FALSA
,,,,,,,,,603a80b01bb75f608c3dbb0d,001,2025-04-30_13h24.57.915,empathy_intonation_perc,2024.1.4,Win32,60.0240096,,,,,,,,,,,,,,140,chorde,,,,,,224.633,226.093,0,1,0.922,,0,115,115,139,1,pseudoword,0,REAL,FALSA
,,,,,,,,,603a80b01bb75f608c3dbb0d,001,2025-04-30_13h24.57.915,empathy_intonation_perc,2024.1.4,Win32,60.0240096,,,,,,,,,,,,,,132,nocó,,,,,,226.094,227.631,1,0,1.009,,0,116,116,131,1,pseudoword,0,REAL,FALSA
,,,,,,,,,603a80b01bb75f608c3dbb0d,001,2025-04-30_13h24.57.915,empathy_intonation_perc,2024.1.4,Win32,60.0240096,,,,,,,,,,,,,,25,vigor,,,,,,227.632,229.255,0,1,1.096,,0,117,117,24,1,two_way_cognate,1,REAL,FALSA
,,,,,,,,,603a80b01bb75f608c3dbb0d,001,2025-04-30_13h24.57.915,empathy_intonation_perc,2024.1.4,Win32,60.0240096,,,,,,,,,,,,,,71,torta,,,,,,229.256,230.825,0,1,1.041,,0,118,118,70,1,non_cognate,1,REAL,FALSA
,,,,,,,,,603a80b01bb75f608c3dbb0d,001,2025-04-30_13h24.57.915,empathy_intonation_perc,2024.1.4,Win32,60.0240096,,,,,,,,,,,,,,38,halo,,,,,,230.825,232.423,0,1,1.072,,0,119,119,37,1,two_way_cognate,1,REAL,FALSA
,,,,,,,,,603a80b01bb75f608c3dbb0d,001,2025-04-30_13h24.57.915,empathy_intonation_perc,2024.1.4,Win32,60.0240096,,,,,,,,,,,,,,171,gotro,,,,,,232.423,234.015,0,1,1.067,,0,120,120,170,1,pseudoword,0,REAL,FALSA
,,,,,,,,,603a80b01bb75f608c3dbb0d,001,2025-04-30_13h24.57.915,empathy_intonation_perc,2024.1.4,Win32,60.0240096,,,,,,,,,,,,,,56,pico,,,,,,234.016,235.282,1,0,0.735,,0,121,121,55,1,non_cognate,1,REAL,FALSA
,,,,,,,,,603a80b01bb75f608c3dbb0d,001,2025-04-30_13h24.57.915,empathy_intonation_perc,2024.1.4,Win32,60.0240096,,,,,,,,,,,,,,101,losco,,,,,,235.283,236.714,1,0,0.903,,0,122,122,100,1,pseudoword,0,REAL,FALSA
,,,,,,,,,603a80b01bb75f608c3dbb0d,001,2025-04-30_13h24.57.915,empathy_intonation_perc,2024.1.4,Win32,60.0240096,,,,,,,,,,,,,,44,editor,,,,,,236.714,237.914,0,1,0.682,,0,123,123,43,1,two_way_cognate,1,REAL,FALSA
,,,,,,,,,603a80b01bb75f608c3dbb0d,001,2025-04-30_13h24.57.915,empathy_intonation_perc,2024.1.4,Win32,60.0240096,,,,,,,,,,,,,,85,enorme,,,,,,237.915,239.677,0,1,1.236,,0,124,124,84,1,non_cognate,1,REAL,FALSA
,,,,,,,,,603a80b01bb75f608c3dbb0d,001,2025-04-30_13h24.57.915,empathy_intonation_perc,2024.1.4,Win32,60.0240096,,,,,,,,,,,,,,116,grigir,,,,,,239.678,240.991,0,1,0.783,,0,125,125,115,1,pseudoword,0,REAL,FALSA
,,,,,,,,,603a80b01bb75f608c3dbb0d,001,2025-04-30_13h24.57.915,empathy_intonation_perc,2024.1.4,Win32,60.0240096,,,,,,,,,,,,,,111,monue,,,,,,240.992,243.51,0,1,1.989,,0,126,126,110,1,pseudoword,0,REAL,FALSA
,,,,,,,,,603a80b01bb75f608c3dbb0d,001,2025-04-30_13h24.57.915,empathy_intonation_perc,2024.1.4,Win32,60.0240096,,,,,,,,,,,,,,47,color,,,,,,243.51,244.79,0,1,0.755,,0,127,127,46,1,two_way_cognate,1,REAL,FALSA
,,,,,,,,,603a80b01bb75f608c3dbb0d,001,2025-04-30_13h24.57.915,empathy_intonation_perc,2024.1.4,Win32,60.0240096,,,,,,,,,,,,,,66,aleta,,,,,,244.791,246.295,1,0,0.978,,0,128,128,65,1,non_cognate,1,REAL,FALSA
,,,,,,,,,603a80b01bb75f608c3dbb0d,001,2025-04-30_13h24.57.915,empathy_intonation_perc,2024.1.4,Win32,60.0240096,,,,,,,,,,,,,,177,entodo,,,,,,246.303,247.637,1,0,0.799,,0,129,129,176,1,pseudoword,0,REAL,FALSA
,,,,,,,,,603a80b01bb75f608c3dbb0d,001,2025-04-30_13h24.57.915,empathy_intonation_perc,2024.1.4,Win32,60.0240096,,,,,,,,,,,,,,21,hotel,,,,,,247.638,249.088,1,0,0.919,,0,130,130,20,1,three_way_cognate,1,REAL,FALSA
,,,,,,,,,603a80b01bb75f608c3dbb0d,001,2025-04-30_13h24.57.915,empathy_intonation_perc,2024.1.4,Win32,60.0240096,,,,,,,,,,,,,,172,dogue,,,,,,249.09,250.442,0,1,0.826,,0,131,131,171,1,pseudoword,0,REAL,FALSA
,,,,,,,,,603a80b01bb75f608c3dbb0d,001,2025-04-30_13h24.57.915,empathy_intonation_perc,2024.1.4,Win32,60.0240096,,,,,,,,,,,,,,179,suelet,,,,,,250.442,252.421,0,1,1.445,,0,132,132,178,1,pseudoword,0,REAL,FALSA
,,,,,,,,,603a80b01bb75f608c3dbb0d,001,2025-04-30_13h24.57.915,empathy_intonation_perc,2024.1.4,Win32,60.0240096,,,,,,,,,,,,,,138,tator,,,,,,252.423,253.88,0,1,0.937,,0,133,133,137,1,pseudoword,0,REAL,FALSA
,,,,,,,,,603a80b01bb75f608c3dbb0d,001,2025-04-30_13h24.57.915,empathy_intonation_perc,2024.1.4,Win32,60.0240096,,,,,,,,,,,,,,36,viable,,,,,,253.88,255.375,0,1,0.968,,0,134,134,35,1,two_way_cognate,1,REAL,FALSA
,,,,,,,,,603a80b01bb75f608c3dbb0d,001,2025-04-30_13h24.57.915,empathy_intonation_perc,2024.1.4,Win32,60.0240096,,,,,,,,,,,,,,54,tapón,,,,,,255.376,256.645,1,0,0.743,,0,135,135,53,1,non_cognate,1,REAL,FALSA
,,,,,,,,,603a80b01bb75f608c3dbb0d,001,2025-04-30_13h24.57.915,empathy_intonation_perc,2024.1.4,Win32,60.0240096,,,,,,,,,,,,,,73,llevar,,,,,,256.646,258.956,0,1,1.787,,0,136,136,72,1,non_cognate,1,REAL,FALSA
,,,,,,,,,603a80b01bb75f608c3dbb0d,001,2025-04-30_13h24.57.915,empathy_intonation_perc,2024.1.4,Win32,60.0240096,,,,,,,,,,,,,,134,molor,,,,,,258.956,260.259,0,1,0.776,,0,137,137,133,1,pseudoword,0,REAL,FALSA
,,,,,,,,,603a80b01bb75f608c3dbb0d,001,2025-04-30_13h24.57.915,empathy_intonation_perc,2024.1.4,Win32,60.0240096,,,,,,,,,,,,,,1,moral,,,,,,260.26,261.601,1,0,0.812,,0,138,138,0,1,three_way_cognate,1,REAL,FALSA
,,,,,,,,,603a80b01bb75f608c3dbb0d,001,2025-04-30_13h24.57.915,empathy_intonation_perc,2024.1.4,Win32,60.0240096,,,,,,,,,,,,,,43,honor,,,,,,261.602,262.952,0,1,0.827,,0,139,139,42,1,two_way_cognate,1,REAL,FALSA
,,,,,,,,,603a80b01bb75f608c3dbb0d,001,2025-04-30_13h24.57.915,empathy_intonation_perc,2024.1.4,Win32,60.0240096,,,,,,,,,,,,,,190,asumie,,,,,,262.953,264.415,0,1,0.938,,0,140,140,189,1,pseudoword,0,REAL,FALSA
,,,,,,,,,603a80b01bb75f608c3dbb0d,001,2025-04-30_13h24.57.915,empathy_intonation_perc,2024.1.4,Win32,60.0240096,,,,,,,,,,,,,,157,seled,,,,,,264.417,266.011,0,1,1.065,,0,141,141,156,1,pseudoword,0,REAL,FALSA
,,,,,,,,,603a80b01bb75f608c3dbb0d,001,2025-04-30_13h24.57.915,empathy_intonation_perc,2024.1.4,Win32,60.0240096,,,,,,,,,,,,,,133,conso,,,,,,266.012,267.647,1,0,1.107,,0,142,142,132,1,pseudoword,0,REAL,FALSA
,,,,,,,,,603a80b01bb75f608c3dbb0d,001,2025-04-30_13h24.57.915,empathy_intonation_perc,2024.1.4,Win32,60.0240096,,,,,,,,,,,,,,164,tecia,,,,,,267.647,269.107,1,0,0.932,,0,143,143,163,1,pseudoword,0,REAL,FALSA
,,,,,,,,,603a80b01bb75f608c3dbb0d,001,2025-04-30_13h24.57.915,empathy_intonation_perc,2024.1.4,Win32,60.0240096,,,,,,,,,,,,,,191,frasis,,,,,,269.11,270.378,0,1,0.742,,0,144,144,190,1,pseudoword,0,REAL,FALSA
,,,,,,,,,603a80b01bb75f608c3dbb0d,001,2025-04-30_13h24.57.915,empathy_intonation_perc,2024.1.4,Win32,60.0240096,,,,,,,,,,,,,,22,mango,,,,,,270.378,272.16,1,0,1.257,,0,145,145,21,1,three_way_cognate,1,REAL,FALSA
,,,,,,,,,603a80b01bb75f608c3dbb0d,001,2025-04-30_13h24.57.915,empathy_intonation_perc,2024.1.4,Win32,60.0240096,,,,,,,,,,,,,,118,bará,,,,,,272.16,273.457,0,1,0.774,,0,146,146,117,1,pseudoword,0,REAL,FALSA
,,,,,,,,,603a80b01bb75f608c3dbb0d,001,2025-04-30_13h24.57.915,empathy_intonation_perc,2024.1.4,Win32,60.0240096,,,,,,,,,,,,,,123,arane,,,,,,273.457,275.35,0,1,1.365,,0,147,147,122,1,pseudoword,0,REAL,FALSA
,,,,,,,,,603a80b01bb75f608c3dbb0d,001,2025-04-30_13h24.57.915,empathy_intonation_perc,2024.1.4,Win32,60.0240096,,,,,,,,,,,,,,72,rostro,,,,,,275.351,276.856,1,0,0.984,,0,148,148,71,1,non_cognate,1,REAL,FALSA
,,,,,,,,,603a80b01bb75f608c3dbb0d,001,2025-04-30_13h24.57.915,empathy_intonation_perc,2024.1.4,Win32,60.0240096,,,,,,,,,,,,,,163,llzan,,,,,,276.856,278.236,0,1,0.849,,0,149,149,162,1,pseudoword,0,REAL,FALSA
,,,,,,,,,603a80b01bb75f608c3dbb0d,001,2025-04-30_13h24.57.915,empathy_intonation_perc,2024.1.4,Win32,60.0240096,,,,,,,,,,,,,,155,kugis,,,,,,278.242,279.462,0,1,0.694,,0,150,150,154,1,pseudoword,0,REAL,FALSA
,,,,,,,,,603a80b01bb75f608c3dbb0d,001,2025-04-30_13h24.57.915,empathy_intonation_perc,2024.1.4,Win32,60.0240096,,,,,,,,,,,,,,104,estulo,,,,,,279.463,280.877,1,0,0.881,,0,151,151,103,1,pseudoword,0,REAL,FALSA
,,,,,,,,,603a80b01bb75f608c3dbb0d,001,2025-04-30_13h24.57.915,empathy_intonation_perc,2024.1.4,Win32,60.0240096,,,,,,,,,,,,,,75,patada,,,,,,280.878,282.392,0,1,0.981,,0,152,152,74,1,non_cognate,1,REAL,FALSA
,,,,,,,,,603a80b01bb75f608c3dbb0d,001,2025-04-30_13h24.57.915,empathy_intonation_perc,2024.1.4,Win32,60.0240096,,,,,,,,,,,,,,181,gravés,,,,,,282.393,283.747,1,0,0.824,,0,153,153,180,1,pseudoword,0,REAL,FALSA
,,,,,,,,,603a80b01bb75f608c3dbb0d,001,2025-04-30_13h24.57.915,empathy_intonation_perc,2024.1.4,Win32,60.0240096,,,,,,,,,,,,,,107,plago,,,,,,283.747,285.289,0,1,1.015,,0,154,154,106,1,pseudoword,0,REAL,FALSA
,,,,,,,,,603a80b01bb75f608c3dbb0d,001,2025-04-30_13h24.57.915,empathy_intonation_perc,2024.1.4,Win32,60.0240096,,,,,,,,,,,,,,149,emén,,,,,,285.291,287.185,0,1,1.375,,0,155,155,148,1,pseudoword,0,REAL,FALSA
,,,,,,,,,603a80b01bb75f608c3dbb0d,001,2025-04-30_13h24.57.915,empathy_intonation_perc,2024.1.4,Win32,60.0240096,,,,,,,,,,,,,,169,pitis,,,,,,287.187,288.922,0,1,1.207,,0,156,156,168,1,pseudoword,0,REAL,FALSA
,,,,,,,,,603a80b01bb75f608c3dbb0d,001,2025-04-30_13h24.57.915,empathy_intonation_perc,2024.1.4,Win32,60.0240096,,,,,,,,,,,,,,188,amplir,,,,,,288.922,290.332,0,1,0.883,,0,157,157,187,1,pseudoword,0,REAL,FALSA
,,,,,,,,,603a80b01bb75f608c3dbb0d,001,2025-04-30_13h24.57.915,empathy_intonation_perc,2024.1.4,Win32,60.0240096,,,,,,,,,,,,,,14,aura,,,,,,290.333,291.58,1,0,0.715,,0,158,158,13,1,three_way_cognate,1,REAL,FALSA
,,,,,,,,,603a80b01bb75f608c3dbb0d,001,2025-04-30_13h24.57.915,empathy_intonation_perc,2024.1.4,Win32,60.0240096,,,,,,,,,,,,,,100,épinas,,,,,,291.582,293.049,1,0,0.94,,0,159,159,99,1,pseudoword,0,REAL,FALSA
,,,,,,,,,603a80b01bb75f608c3dbb0d,001,2025-04-30_13h24.57.915,empathy_intonation_perc,2024.1.4,Win32,60.0240096,,,,,,,,,,,,,,159,trcia,,,,,,293.05,294.315,0,1,0.738,,0,160,160,158,1,pseudoword,0,REAL,FALSA
,,,,,,,,,603a80b01bb75f608c3dbb0d,001,2025-04-30_13h24.57.915,empathy_intonation_perc,2024.1.4,Win32,60.0240096,,,,,,,,,,,,,,65,guerra,,,,,,294.316,295.542,1,0,0.698,,0,161,161,64,1,non_cognate,1,REAL,FALSA
,,,,,,,,,603a80b01bb75f608c3dbb0d,001,2025-04-30_13h24.57.915,empathy_intonation_perc,2024.1.4,Win32,60.0240096,,,,,,,,,,,,,,77,suave,,,,,,295.543,296.841,1,0,0.766,,0,162,162,76,1,non_cognate,1,REAL,FALSA
,,,,,,,,,603a80b01bb75f608c3dbb0d,001,2025-04-30_13h24.57.915,empathy_intonation_perc,2024.1.4,Win32,60.0240096,,,,,,,,,,,,,,125,ceme,,,,,,296.842,298.056,0,1,0.686,,0,163,163,124,1,pseudoword,0,REAL,FALSA
,,,,,,,,,603a80b01bb75f608c3dbb0d,001,2025-04-30_13h24.57.915,empathy_intonation_perc,2024.1.4,Win32,60.0240096,,,,,,,,,,,,,,126,tobre,,,,,,298.059,299.451,0,1,0.868,,0,164,164,125,1,pseudoword,0,REAL,FALSA
,,,,,,,,,603a80b01bb75f608c3dbb0d,001,2025-04-30_13h24.57.915,empathy_intonation_perc,2024.1.4,Win32,60.0240096,,,,,,,,,,,,,,150,cricó,,,,,,299.451,300.97,1,0,1,,0,165,165,149,1,pseudoword,0,REAL,FALSA
,,,,,,,,,603a80b01bb75f608c3dbb0d,001,2025-04-30_13h24.57.915,empathy_intonation_perc,2024.1.4,Win32,60.0240096,,,,,,,,,,,,,,94,forro,,,,,,300.971,302.305,1,0,0.804,,0,166,166,93,1,non_cognate,1,REAL,FALSA
,,,,,,,,,603a80b01bb75f608c3dbb0d,001,2025-04-30_13h24.57.915,empathy_intonation_perc,2024.1.4,Win32,60.0240096,,,,,,,,,,,,,,162,cengo,,,,,,302.306,303.522,0,1,0.692,,0,167,167,161,1,pseudoword,0,REAL,FALSA
,,,,,,,,,603a80b01bb75f608c3dbb0d,001,2025-04-30_13h24.57.915,empathy_intonation_perc,2024.1.4,Win32,60.0240096,,,,,,,,,,,,,,161,civas,,,,,,303.522,305.136,1,0,1.093,,0,168,168,160,1,pseudoword,0,REAL,FALSA
,,,,,,,,,603a80b01bb75f608c3dbb0d,001,2025-04-30_13h24.57.915,empathy_intonation_perc,2024.1.4,Win32,60.0240096,,,,,,,,,,,,,,166,anfia,,,,,,305.138,306.413,0,1,0.752,,0,169,169,165,1,pseudoword,0,REAL,FALSA
,,,,,,,,,603a80b01bb75f608c3dbb0d,001,2025-04-30_13h24.57.915,empathy_intonation_perc,2024.1.4,Win32,60.0240096,,,,,,,,,,,,,,167,dobbo,,,,,,306.414,308.795,0,1,1.854,,0,170,170,166,1,pseudoword,0,REAL,FALSA
,,,,,,,,,603a80b01bb75f608c3dbb0d,001,2025-04-30_13h24.57.915,empathy_intonation_perc,2024.1.4,Win32,60.0240096,,,,,,,,,,,,,,176,gripar,,,,,,308.796,310.159,0,1,0.835,,0,171,171,175,1,pseudoword,0,REAL,FALSA
,,,,,,,,,603a80b01bb75f608c3dbb0d,001,2025-04-30_13h24.57.915,empathy_intonation_perc,2024.1.4,Win32,60.0240096,,,,,,,,,,,,,,151,prías,,,,,,310.16,311.506,1,0,0.817,,0,172,172,150,1,pseudoword,0,REAL,FALSA
,,,,,,,,,603a80b01bb75f608c3dbb0d,001,2025-04-30_13h24.57.915,empathy_intonation_perc,2024.1.4,Win32,60.0240096,,,,,,,,,,,,,,185,aljizo,,,,,,311.507,313.978,1,0,1.941,,0,173,173,184,1,pseudoword,0,REAL,FALSA
,,,,,,,,,603a80b01bb75f608c3dbb0d,001,2025-04-30_13h24.57.915,empathy_intonation_perc,2024.1.4,Win32,60.0240096,,,,,,,,,,,,,,81,sacar,,,,,,313.983,315.307,0,1,0.803,,0,174,174,80,1,non_cognate,1,REAL,FALSA
,,,,,,,,,603a80b01bb75f608c3dbb0d,001,2025-04-30_13h24.57.915,empathy_intonation_perc,2024.1.4,Win32,60.0240096,,,,,,,,,,,,,,189,medium,,,,,,315.308,316.519,0,1,0.685,,0,175,175,188,1,pseudoword,0,REAL,FALSA
,,,,,,,,,603a80b01bb75f608c3dbb0d,001,2025-04-30_13h24.57.915,empathy_intonation_perc,2024.1.4,Win32,60.0240096,,,,,,,,,,,,,,153,golla,,,,,,316.52,317.982,0,1,0.932,,0,176,176,152,1,pseudoword,0,REAL,FALSA
,,,,,,,,,603a80b01bb75f608c3dbb0d,001,2025-04-30_13h24.57.915,empathy_intonation_perc,2024.1.4,Win32,60.0240096,,,,,,,,,,,,,,10,drama,,,,,,317.983,319.519,1,0,1.007,,0,177,177,9,1,three_way_cognate,1,REAL,FALSA
,,,,,,,,,603a80b01bb75f608c3dbb0d,001,2025-04-30_13h24.57.915,empathy_intonation_perc,2024.1.4,Win32,60.0240096,,,,,,,,,,,,,,7,albino,,,,,,319.52,320.981,1,0,0.936,,0,178,178,6,1,three_way_cognate,1,REAL,FALSA
,,,,,,,,,603a80b01bb75f608c3dbb0d,001,2025-04-30_13h24.57.915,empathy_intonation_perc,2024.1.4,Win32,60.0240096,,,,,,,,,,,,,,110,densó,,,,,,320.983,322.194,1,0,0.678,,0,179,179,109,1,pseudoword,0,REAL,FALSA
,,,,,,,,,603a80b01bb75f608c3dbb0d,001,2025-04-30_13h24.57.915,empathy_intonation_perc,2024.1.4,Win32,60.0240096,,,,,,,,,,,,,,70,ánimo,,,,,,322.195,323.693,1,0,0.966,,0,180,180,69,1,non_cognate,1,REAL,FALSA
,,,,,,,,,603a80b01bb75f608c3dbb0d,001,2025-04-30_13h24.57.915,empathy_intonation_perc,2024.1.4,Win32,60.0240096,,,,,,,,,,,,,,174,pabea,,,,,,323.693,324.973,0,1,0.748,,0,181,181,173,1,pseudoword,0,REAL,FALSA
,,,,,,,,,603a80b01bb75f608c3dbb0d,001,2025-04-30_13h24.57.915,empathy_intonation_perc,2024.1.4,Win32,60.0240096,,,,,,,,,,,,,,141,virios,,,,,,324.975,326.69,0,1,1.185,,0,182,182,140,1,pseudoword,0,REAL,FALSA
,,,,,,,,,603a80b01bb75f608c3dbb0d,001,2025-04-30_13h24.57.915,empathy_intonation_perc,2024.1.4,Win32,60.0240096,,,,,,,,,,,,,,93,tapa,,,,,,326.692,328.026,1,0,0.807,,0,183,183,92,1,non_cognate,1,REAL,FALSA
,,,,,,,,,603a80b01bb75f608c3dbb0d,001,2025-04-30_13h24.57.915,empathy_intonation_perc,2024.1.4,Win32,60.0240096,,,,,,,,,,,,,,50,sierra,,,,,,328.027,329.202,1,0,0.648,,0,184,184,49,1,non_cognate,1,REAL,FALSA
,,,,,,,,,603a80b01bb75f608c3dbb0d,001,2025-04-30_13h24.57.915,empathy_intonation_perc,2024.1.4,Win32,60.0240096,,,,,,,,,,,,,,9,portal,,,,,,329.203,330.435,0,1,0.704,,0,185,185,8,1,three_way_cognate,1,REAL,FALSA
,,,,,,,,,603a80b01bb75f608c3dbb0d,001,2025-04-30_13h24.57.915,empathy_intonation_perc,2024.1.4,Win32,60.0240096,,,,,,,,,,,,,,97,nocita,,,,,,330.437,331.882,1,0,0.917,,0,186,186,96,1,pseudoword,0,REAL,FALSA
,,,,,,,,,603a80b01bb75f608c3dbb0d,001,2025-04-30_13h24.57.915,empathy_intonation_perc,2024.1.4,Win32,60.0240096,,,,,,,,,,,,,,31,civil,,,,,,331.883,333.169,1,0,0.757,,0,187,187,30,1,two_way_cognate,1,REAL,FALSA
,,,,,,,,,603a80b01bb75f608c3dbb0d,001,2025-04-30_13h24.57.915,empathy_intonation_perc,2024.1.4,Win32,60.0240096,,,,,,,,,,,,,,51,listo,,,,,,333.169,334.562,1,0,0.866,,0,188,188,50,1,non_cognate,1,REAL,FALSA
,,,,,,,,,603a80b01bb75f608c3dbb0d,001,2025-04-30_13h24.57.915,empathy_intonation_perc,2024.1.4,Win32,60.0240096,,,,,,,,,,,,,,95,listo,,,,,,334.562,336.177,1,0,1.086,,0,189,189,94,1,non_cognate,1,REAL,FALSA
,,,,,,,,,603a80b01bb75f608c3dbb0d,001,2025-04-30_13h24.57.915,empathy_intonation_perc,2024.1.4,Win32,60.0240096,,,,,,,,,,,,,,88,percha,,,,,,336.18,337.792,1,0,1.083,,0,190,190,87,1,non_cognate,1,REAL,FALSA
,,,,,,,,,603a80b01bb75f608c3dbb0d,001,2025-04-30_13h24.57.915,empathy_intonation_perc,2024.1.4,Win32,60.0240096,,,,,,,,,,,,,,68,puñal,,,,,,337.792,339.363,0,1,1.041,,0,191,191,67,1,non_cognate,1,REAL,FALSA
