lextale_instructions.started,lextale_instructions.stopped,lextale_instructions_loop.thisRepN,lextale_instructions_loop.thisTrialN,lextale_instructions_loop.thisN,lextale_instructions_loop.thisIndex,lextale_instructions_loop.ran,instructions_text,continue_text,participant,session,date,expName,psychopyVersion,OS,frameRate,lextale_practice.started,lextale_practice.stopped,key_resp_lextale_practice.keys,key_resp_lextale_practice.corr,key_resp_lextale_practice.rt,key_resp_lextale_practice.duration,lextale_practice_feedback.started,lextale_practice_feedback.stopped,lextale_practice_trials.thisRepN,lextale_practice_trials.thisTrialN,lextale_practice_trials.thisN,lextale_practice_trials.thisIndex,lextale_practice_trials.ran,stim,word,correct_response,prac_button_real,prac_button_false,lextale_check.started,lextale_check.stopped,lextale_trial.started,lextale_trial.stopped,key_resp_lextale_trial.keys,key_resp_lextale_trial.corr,key_resp_lextale_trial.rt,key_resp_lextale_trial.duration,lextail_trials.thisRepN,lextail_trials.thisTrialN,lextail_trials.thisN,lextail_trials.thisIndex,lextail_trials.ran,type,correct_reponse,button_real,button_false
0.005,5.224,0,0,0,0,1,"Este es un test de vocabulario en español. 
  
  A continuación vas a ver 90 secuencias de letras que parecen 'españolas'.
  
  Solo algunas de ellas son palabras de verdad.",(presiona la barra espaciadora para continuar),60be1ebd38d04cdbd9f58121,001,2025-05-06_15h41.43.408,empathy_intonation_perc,2024.1.4,Win32,59.95203837,,,,,,,,,,,,,,,,,,,,,,,,,,,,,,,,,,,
5.225,10.74,0,1,1,1,1,"Por favor, señala las palabras que tú conoces (aquellas que estás convencido que son palabras españolas, incluso aunque no seas capaz de dar el significado preciso).",(presiona la barra espaciadora para continuar),60be1ebd38d04cdbd9f58121,001,2025-05-06_15h41.43.408,empathy_intonation_perc,2024.1.4,Win32,59.95203837,,,,,,,,,,,,,,,,,,,,,,,,,,,,,,,,,,,
10.741,15.791,0,2,2,2,1,Pero cuidado: los errores se penalizan. Por eso no tiene sentido tratar de incrementar tu puntuación marcando como reales palabras que nunca has visto.,(presiona la barra espaciadora para continuar),60be1ebd38d04cdbd9f58121,001,2025-05-06_15h41.43.408,empathy_intonation_perc,2024.1.4,Win32,59.95203837,,,,,,,,,,,,,,,,,,,,,,,,,,,,,,,,,,,
15.791,20.956,0,3,3,3,1,"Presiona la tecla 1 si piensas que es una palabra real y la tecla 
  0 si piensas que es una palabra falsa. 
  
  Vamos a practicar un poco...",(presiona la barra espaciadora para continuar),60be1ebd38d04cdbd9f58121,001,2025-05-06_15h41.43.408,empathy_intonation_perc,2024.1.4,Win32,59.95203837,,,,,,,,,,,,,,,,,,,,,,,,,,,,,,,,,,,
,,,,,,,,,60be1ebd38d04cdbd9f58121,001,2025-05-06_15h41.43.408,empathy_intonation_perc,2024.1.4,Win32,59.95203837,20.96,22.24,1,0,0.748,,22.24,23.24,0,0,0,0,1,0,depiste,0,REAL,FALSA,,,,,,,,,,,,,,,,,
,,,,,,,,,60be1ebd38d04cdbd9f58121,001,2025-05-06_15h41.43.408,empathy_intonation_perc,2024.1.4,Win32,59.95203837,23.24,25.524,1,1,1.766,,25.524,26.523,0,1,1,1,1,0,sí,1,REAL,FALSA,,,,,,,,,,,,,,,,,
,,,,,,,,,60be1ebd38d04cdbd9f58121,001,2025-05-06_15h41.43.408,empathy_intonation_perc,2024.1.4,Win32,59.95203837,26.523,28.073,1,0,1.035,,28.074,29.073,0,2,2,2,1,0,coné,0,REAL,FALSA,,,,,,,,,,,,,,,,,
,,,,,,,,,60be1ebd38d04cdbd9f58121,001,2025-05-06_15h41.43.408,empathy_intonation_perc,2024.1.4,Win32,59.95203837,29.073,30.39,0,1,0.803,,30.39,31.389,0,3,3,3,1,0,calpar,0,REAL,FALSA,,,,,,,,,,,,,,,,,
,,,,,,,,,60be1ebd38d04cdbd9f58121,001,2025-05-06_15h41.43.408,empathy_intonation_perc,2024.1.4,Win32,59.95203837,31.39,32.94,0,1,1.04,,32.94,33.94,0,4,4,4,1,0,joten,0,REAL,FALSA,,,,,,,,,,,,,,,,,
,,,,,,,,,60be1ebd38d04cdbd9f58121,001,2025-05-06_15h41.43.408,empathy_intonation_perc,2024.1.4,Win32,59.95203837,33.94,35.14,1,1,0.691,,35.14,36.141,0,5,5,5,1,0,sacapuntas,1,REAL,FALSA,,,,,,,,,,,,,,,,,
,,,,,,,,,60be1ebd38d04cdbd9f58121,001,2025-05-06_15h41.43.408,empathy_intonation_perc,2024.1.4,Win32,59.95203837,36.142,37.24,0,1,0.564,,37.24,38.24,0,6,6,6,1,0,priba,0,REAL,FALSA,,,,,,,,,,,,,,,,,
,,,,,,,,,60be1ebd38d04cdbd9f58121,001,2025-05-06_15h41.43.408,empathy_intonation_perc,2024.1.4,Win32,59.95203837,38.241,39.806,0,1,1.033,,39.806,40.806,0,7,7,7,1,0,pelasula,0,REAL,FALSA,,,,,,,,,,,,,,,,,
,,,,,,,,,60be1ebd38d04cdbd9f58121,001,2025-05-06_15h41.43.408,empathy_intonation_perc,2024.1.4,Win32,59.95203837,40.806,41.99,1,1,0.677,,41.99,42.989,0,8,8,8,1,0,bien,1,REAL,FALSA,,,,,,,,,,,,,,,,,
,,,,,,,,,60be1ebd38d04cdbd9f58121,001,2025-05-06_15h41.43.408,empathy_intonation_perc,2024.1.4,Win32,59.95203837,42.99,44.123,1,1,0.598,,44.123,45.123,0,9,9,9,1,0,casa,1,REAL,FALSA,,,,,,,,,,,,,,,,,
,,,,,,,,,60be1ebd38d04cdbd9f58121,001,2025-05-06_15h41.43.408,empathy_intonation_perc,2024.1.4,Win32,59.95203837,45.124,46.34,1,0,0.692,,46.34,47.34,0,10,10,10,1,0,lejo,0,REAL,FALSA,,,,,,,,,,,,,,,,,
,,,,,,,,,60be1ebd38d04cdbd9f58121,001,2025-05-06_15h41.43.408,empathy_intonation_perc,2024.1.4,Win32,59.95203837,47.34,48.589,1,0,0.744,,48.589,49.589,0,11,11,11,1,0,pretantas,0,REAL,FALSA,,,,,,,,,,,,,,,,,
,,,,,,,,,60be1ebd38d04cdbd9f58121,001,2025-05-06_15h41.43.408,empathy_intonation_perc,2024.1.4,Win32,59.95203837,,,,,,,,,,,,,,,,,,,49.59,53.989,,,,,,,,,,,,,,,
,,,,,,,,,60be1ebd38d04cdbd9f58121,001,2025-05-06_15h41.43.408,empathy_intonation_perc,2024.1.4,Win32,59.95203837,,,,,,,,,,,,,,10,drama,,,,,,53.999,55.406,1,0,0.891,,0,0,0,9,1,three_way_cognate,1,REAL,FALSA
,,,,,,,,,60be1ebd38d04cdbd9f58121,001,2025-05-06_15h41.43.408,empathy_intonation_perc,2024.1.4,Win32,59.95203837,,,,,,,,,,,,,,100,épinas,,,,,,55.407,56.69,0,1,0.747,,0,1,1,99,1,pseudoword,0,REAL,FALSA
,,,,,,,,,60be1ebd38d04cdbd9f58121,001,2025-05-06_15h41.43.408,empathy_intonation_perc,2024.1.4,Win32,59.95203837,,,,,,,,,,,,,,11,golf,,,,,,56.69,58.072,1,0,0.856,,0,2,2,10,1,three_way_cognate,1,REAL,FALSA
,,,,,,,,,60be1ebd38d04cdbd9f58121,001,2025-05-06_15h41.43.408,empathy_intonation_perc,2024.1.4,Win32,59.95203837,,,,,,,,,,,,,,93,tapa,,,,,,58.073,59.19,1,0,0.601,,0,3,3,92,1,non_cognate,1,REAL,FALSA
,,,,,,,,,60be1ebd38d04cdbd9f58121,001,2025-05-06_15h41.43.408,empathy_intonation_perc,2024.1.4,Win32,59.95203837,,,,,,,,,,,,,,31,civil,,,,,,59.19,60.473,1,0,0.778,,0,4,4,30,1,two_way_cognate,1,REAL,FALSA
,,,,,,,,,60be1ebd38d04cdbd9f58121,001,2025-05-06_15h41.43.408,empathy_intonation_perc,2024.1.4,Win32,59.95203837,,,,,,,,,,,,,,56,pico,,,,,,60.474,61.657,0,1,0.647,,0,5,5,55,1,non_cognate,1,REAL,FALSA
,,,,,,,,,60be1ebd38d04cdbd9f58121,001,2025-05-06_15h41.43.408,empathy_intonation_perc,2024.1.4,Win32,59.95203837,,,,,,,,,,,,,,172,dogue,,,,,,61.657,63.106,0,1,0.932,,0,6,6,171,1,pseudoword,0,REAL,FALSA
,,,,,,,,,60be1ebd38d04cdbd9f58121,001,2025-05-06_15h41.43.408,empathy_intonation_perc,2024.1.4,Win32,59.95203837,,,,,,,,,,,,,,9,portal,,,,,,63.106,64.206,1,0,0.588,,0,7,7,8,1,three_way_cognate,1,REAL,FALSA
,,,,,,,,,60be1ebd38d04cdbd9f58121,001,2025-05-06_15h41.43.408,empathy_intonation_perc,2024.1.4,Win32,59.95203837,,,,,,,,,,,,,,160,fomeó,,,,,,64.206,65.556,0,1,0.838,,0,8,8,159,1,pseudoword,0,REAL,FALSA
,,,,,,,,,60be1ebd38d04cdbd9f58121,001,2025-05-06_15h41.43.408,empathy_intonation_perc,2024.1.4,Win32,59.95203837,,,,,,,,,,,,,,85,enorme,,,,,,65.556,66.723,1,0,0.638,,0,9,9,84,1,non_cognate,1,REAL,FALSA
,,,,,,,,,60be1ebd38d04cdbd9f58121,001,2025-05-06_15h41.43.408,empathy_intonation_perc,2024.1.4,Win32,59.95203837,,,,,,,,,,,,,,166,anfia,,,,,,66.723,67.956,0,1,0.716,,0,10,10,165,1,pseudoword,0,REAL,FALSA
,,,,,,,,,60be1ebd38d04cdbd9f58121,001,2025-05-06_15h41.43.408,empathy_intonation_perc,2024.1.4,Win32,59.95203837,,,,,,,,,,,,,,150,cricó,,,,,,67.956,69.156,0,1,0.69,,0,11,11,149,1,pseudoword,0,REAL,FALSA
,,,,,,,,,60be1ebd38d04cdbd9f58121,001,2025-05-06_15h41.43.408,empathy_intonation_perc,2024.1.4,Win32,59.95203837,,,,,,,,,,,,,,20,trauma,,,,,,69.158,70.472,0,1,0.79,,0,12,12,19,1,three_way_cognate,1,REAL,FALSA
,,,,,,,,,60be1ebd38d04cdbd9f58121,001,2025-05-06_15h41.43.408,empathy_intonation_perc,2024.1.4,Win32,59.95203837,,,,,,,,,,,,,,185,aljizo,,,,,,70.473,71.773,1,0,0.772,,0,13,13,184,1,pseudoword,0,REAL,FALSA
,,,,,,,,,60be1ebd38d04cdbd9f58121,001,2025-05-06_15h41.43.408,empathy_intonation_perc,2024.1.4,Win32,59.95203837,,,,,,,,,,,,,,30,fiscal,,,,,,71.773,72.873,1,0,0.59,,0,14,14,29,1,two_way_cognate,1,REAL,FALSA
,,,,,,,,,60be1ebd38d04cdbd9f58121,001,2025-05-06_15h41.43.408,empathy_intonation_perc,2024.1.4,Win32,59.95203837,,,,,,,,,,,,,,38,halo,,,,,,72.874,74.156,0,1,0.759,,0,15,15,37,1,two_way_cognate,1,REAL,FALSA
,,,,,,,,,60be1ebd38d04cdbd9f58121,001,2025-05-06_15h41.43.408,empathy_intonation_perc,2024.1.4,Win32,59.95203837,,,,,,,,,,,,,,27,piano,,,,,,74.156,75.573,0,1,0.898,,0,16,16,26,1,two_way_cognate,1,REAL,FALSA
,,,,,,,,,60be1ebd38d04cdbd9f58121,001,2025-05-06_15h41.43.408,empathy_intonation_perc,2024.1.4,Win32,59.95203837,,,,,,,,,,,,,,17,clan,,,,,,75.573,76.906,0,1,0.827,,0,17,17,16,1,three_way_cognate,1,REAL,FALSA
,,,,,,,,,60be1ebd38d04cdbd9f58121,001,2025-05-06_15h41.43.408,empathy_intonation_perc,2024.1.4,Win32,59.95203837,,,,,,,,,,,,,,41,pasta,,,,,,76.907,78.072,1,0,0.634,,0,18,18,40,1,two_way_cognate,1,REAL,FALSA
,,,,,,,,,60be1ebd38d04cdbd9f58121,001,2025-05-06_15h41.43.408,empathy_intonation_perc,2024.1.4,Win32,59.95203837,,,,,,,,,,,,,,175,tradía,,,,,,78.073,79.872,1,0,1.264,,0,19,19,174,1,pseudoword,0,REAL,FALSA
,,,,,,,,,60be1ebd38d04cdbd9f58121,001,2025-05-06_15h41.43.408,empathy_intonation_perc,2024.1.4,Win32,59.95203837,,,,,,,,,,,,,,63,hilo,,,,,,79.872,80.989,0,1,0.612,,0,20,20,62,1,non_cognate,1,REAL,FALSA
,,,,,,,,,60be1ebd38d04cdbd9f58121,001,2025-05-06_15h41.43.408,empathy_intonation_perc,2024.1.4,Win32,59.95203837,,,,,,,,,,,,,,79,suelo,,,,,,80.99,82.156,1,0,0.639,,0,21,21,78,1,non_cognate,1,REAL,FALSA
,,,,,,,,,60be1ebd38d04cdbd9f58121,001,2025-05-06_15h41.43.408,empathy_intonation_perc,2024.1.4,Win32,59.95203837,,,,,,,,,,,,,,161,civas,,,,,,82.156,83.389,1,0,0.727,,0,22,22,160,1,pseudoword,0,REAL,FALSA
,,,,,,,,,60be1ebd38d04cdbd9f58121,001,2025-05-06_15h41.43.408,empathy_intonation_perc,2024.1.4,Win32,59.95203837,,,,,,,,,,,,,,134,molor,,,,,,83.39,84.522,0,1,0.597,,0,23,23,133,1,pseudoword,0,REAL,FALSA
,,,,,,,,,60be1ebd38d04cdbd9f58121,001,2025-05-06_15h41.43.408,empathy_intonation_perc,2024.1.4,Win32,59.95203837,,,,,,,,,,,,,,186,rizate,,,,,,84.523,85.823,0,1,0.774,,0,24,24,185,1,pseudoword,0,REAL,FALSA
,,,,,,,,,60be1ebd38d04cdbd9f58121,001,2025-05-06_15h41.43.408,empathy_intonation_perc,2024.1.4,Win32,59.95203837,,,,,,,,,,,,,,8,kilo,,,,,,85.823,87.139,1,0,0.786,,0,25,25,7,1,three_way_cognate,1,REAL,FALSA
,,,,,,,,,60be1ebd38d04cdbd9f58121,001,2025-05-06_15h41.43.408,empathy_intonation_perc,2024.1.4,Win32,59.95203837,,,,,,,,,,,,,,111,monue,,,,,,87.14,88.606,0,1,0.938,,0,26,26,110,1,pseudoword,0,REAL,FALSA
,,,,,,,,,60be1ebd38d04cdbd9f58121,001,2025-05-06_15h41.43.408,empathy_intonation_perc,2024.1.4,Win32,59.95203837,,,,,,,,,,,,,,139,sasos,,,,,,88.606,89.939,0,1,0.806,,0,27,27,138,1,pseudoword,0,REAL,FALSA
,,,,,,,,,60be1ebd38d04cdbd9f58121,001,2025-05-06_15h41.43.408,empathy_intonation_perc,2024.1.4,Win32,59.95203837,,,,,,,,,,,,,,148,gino,,,,,,89.939,91.306,1,0,0.833,,0,28,28,147,1,pseudoword,0,REAL,FALSA
,,,,,,,,,60be1ebd38d04cdbd9f58121,001,2025-05-06_15h41.43.408,empathy_intonation_perc,2024.1.4,Win32,59.95203837,,,,,,,,,,,,,,58,colcha,,,,,,91.306,92.555,0,1,0.714,,0,29,29,57,1,non_cognate,1,REAL,FALSA
,,,,,,,,,60be1ebd38d04cdbd9f58121,001,2025-05-06_15h41.43.408,empathy_intonation_perc,2024.1.4,Win32,59.95203837,,,,,,,,,,,,,,182,desaro,,,,,,92.556,93.623,0,1,0.543,,0,30,30,181,1,pseudoword,0,REAL,FALSA
,,,,,,,,,60be1ebd38d04cdbd9f58121,001,2025-05-06_15h41.43.408,empathy_intonation_perc,2024.1.4,Win32,59.95203837,,,,,,,,,,,,,,131,fuar,,,,,,93.623,94.706,1,0,0.547,,0,31,31,130,1,pseudoword,0,REAL,FALSA
,,,,,,,,,60be1ebd38d04cdbd9f58121,001,2025-05-06_15h41.43.408,empathy_intonation_perc,2024.1.4,Win32,59.95203837,,,,,,,,,,,,,,21,hotel,,,,,,94.706,95.806,1,0,0.568,,0,32,32,20,1,three_way_cognate,1,REAL,FALSA
,,,,,,,,,60be1ebd38d04cdbd9f58121,001,2025-05-06_15h41.43.408,empathy_intonation_perc,2024.1.4,Win32,59.95203837,,,,,,,,,,,,,,87,muleta,,,,,,95.806,96.922,0,1,0.581,,0,33,33,86,1,non_cognate,1,REAL,FALSA
,,,,,,,,,60be1ebd38d04cdbd9f58121,001,2025-05-06_15h41.43.408,empathy_intonation_perc,2024.1.4,Win32,59.95203837,,,,,,,,,,,,,,14,aura,,,,,,96.923,98.623,0,1,1.182,,0,34,34,13,1,three_way_cognate,1,REAL,FALSA
,,,,,,,,,60be1ebd38d04cdbd9f58121,001,2025-05-06_15h41.43.408,empathy_intonation_perc,2024.1.4,Win32,59.95203837,,,,,,,,,,,,,,91,equipo,,,,,,98.623,99.922,1,0,0.775,,0,35,35,90,1,non_cognate,1,REAL,FALSA
,,,,,,,,,60be1ebd38d04cdbd9f58121,001,2025-05-06_15h41.43.408,empathy_intonation_perc,2024.1.4,Win32,59.95203837,,,,,,,,,,,,,,25,vigor,,,,,,99.923,101.089,1,0,0.638,,0,36,36,24,1,two_way_cognate,1,REAL,FALSA
,,,,,,,,,60be1ebd38d04cdbd9f58121,001,2025-05-06_15h41.43.408,empathy_intonation_perc,2024.1.4,Win32,59.95203837,,,,,,,,,,,,,,126,tobre,,,,,,101.089,102.189,1,0,0.563,,0,37,37,125,1,pseudoword,0,REAL,FALSA
,,,,,,,,,60be1ebd38d04cdbd9f58121,001,2025-05-06_15h41.43.408,empathy_intonation_perc,2024.1.4,Win32,59.95203837,,,,,,,,,,,,,,181,gravés,,,,,,102.191,104.606,1,0,1.883,,0,38,38,180,1,pseudoword,0,REAL,FALSA
,,,,,,,,,60be1ebd38d04cdbd9f58121,001,2025-05-06_15h41.43.408,empathy_intonation_perc,2024.1.4,Win32,59.95203837,,,,,,,,,,,,,,22,mango,,,,,,104.606,106.456,1,0,1.315,,0,39,39,21,1,three_way_cognate,1,REAL,FALSA
,,,,,,,,,60be1ebd38d04cdbd9f58121,001,2025-05-06_15h41.43.408,empathy_intonation_perc,2024.1.4,Win32,59.95203837,,,,,,,,,,,,,,67,llamar,,,,,,106.456,107.672,1,0,0.698,,0,40,40,66,1,non_cognate,1,REAL,FALSA
,,,,,,,,,60be1ebd38d04cdbd9f58121,001,2025-05-06_15h41.43.408,empathy_intonation_perc,2024.1.4,Win32,59.95203837,,,,,,,,,,,,,,121,barbs,,,,,,107.673,108.938,0,1,0.733,,0,41,41,120,1,pseudoword,0,REAL,FALSA
,,,,,,,,,60be1ebd38d04cdbd9f58121,001,2025-05-06_15h41.43.408,empathy_intonation_perc,2024.1.4,Win32,59.95203837,,,,,,,,,,,,,,106,diebro,,,,,,108.94,110.389,0,1,0.928,,0,42,42,105,1,pseudoword,0,REAL,FALSA
,,,,,,,,,60be1ebd38d04cdbd9f58121,001,2025-05-06_15h41.43.408,empathy_intonation_perc,2024.1.4,Win32,59.95203837,,,,,,,,,,,,,,82,brillo,,,,,,110.39,111.572,0,1,0.649,,0,43,43,81,1,non_cognate,1,REAL,FALSA
,,,,,,,,,60be1ebd38d04cdbd9f58121,001,2025-05-06_15h41.43.408,empathy_intonation_perc,2024.1.4,Win32,59.95203837,,,,,,,,,,,,,,110,densó,,,,,,111.572,112.705,1,0,0.615,,0,44,44,109,1,pseudoword,0,REAL,FALSA
,,,,,,,,,60be1ebd38d04cdbd9f58121,001,2025-05-06_15h41.43.408,empathy_intonation_perc,2024.1.4,Win32,59.95203837,,,,,,,,,,,,,,138,tator,,,,,,112.705,114.906,0,1,1.683,,0,45,45,137,1,pseudoword,0,REAL,FALSA
,,,,,,,,,60be1ebd38d04cdbd9f58121,001,2025-05-06_15h41.43.408,empathy_intonation_perc,2024.1.4,Win32,59.95203837,,,,,,,,,,,,,,26,enigma,,,,,,114.906,116.256,1,0,0.841,,0,46,46,25,1,two_way_cognate,1,REAL,FALSA
,,,,,,,,,60be1ebd38d04cdbd9f58121,001,2025-05-06_15h41.43.408,empathy_intonation_perc,2024.1.4,Win32,59.95203837,,,,,,,,,,,,,,32,animal,,,,,,116.256,117.422,1,0,0.631,,0,47,47,31,1,two_way_cognate,1,REAL,FALSA
,,,,,,,,,60be1ebd38d04cdbd9f58121,001,2025-05-06_15h41.43.408,empathy_intonation_perc,2024.1.4,Win32,59.95203837,,,,,,,,,,,,,,119,esís,,,,,,117.423,118.605,0,1,0.657,,0,48,48,118,1,pseudoword,0,REAL,FALSA
,,,,,,,,,60be1ebd38d04cdbd9f58121,001,2025-05-06_15h41.43.408,empathy_intonation_perc,2024.1.4,Win32,59.95203837,,,,,,,,,,,,,,173,mibro,,,,,,118.606,119.772,0,1,0.644,,0,49,49,172,1,pseudoword,0,REAL,FALSA
,,,,,,,,,60be1ebd38d04cdbd9f58121,001,2025-05-06_15h41.43.408,empathy_intonation_perc,2024.1.4,Win32,59.95203837,,,,,,,,,,,,,,108,jauda,,,,,,119.773,121.055,0,1,0.749,,0,50,50,107,1,pseudoword,0,REAL,FALSA
,,,,,,,,,60be1ebd38d04cdbd9f58121,001,2025-05-06_15h41.43.408,empathy_intonation_perc,2024.1.4,Win32,59.95203837,,,,,,,,,,,,,,81,sacar,,,,,,121.055,122.189,1,0,0.627,,0,51,51,80,1,non_cognate,1,REAL,FALSA
,,,,,,,,,60be1ebd38d04cdbd9f58121,001,2025-05-06_15h41.43.408,empathy_intonation_perc,2024.1.4,Win32,59.95203837,,,,,,,,,,,,,,158,babrá,,,,,,122.189,123.388,0,1,0.672,,0,52,52,157,1,pseudoword,0,REAL,FALSA
,,,,,,,,,60be1ebd38d04cdbd9f58121,001,2025-05-06_15h41.43.408,empathy_intonation_perc,2024.1.4,Win32,59.95203837,,,,,,,,,,,,,,184,huenos,,,,,,123.389,124.789,1,0,0.891,,0,53,53,183,1,pseudoword,0,REAL,FALSA
,,,,,,,,,60be1ebd38d04cdbd9f58121,001,2025-05-06_15h41.43.408,empathy_intonation_perc,2024.1.4,Win32,59.95203837,,,,,,,,,,,,,,132,nocó,,,,,,124.789,126.189,0,1,0.877,,0,54,54,131,1,pseudoword,0,REAL,FALSA
,,,,,,,,,60be1ebd38d04cdbd9f58121,001,2025-05-06_15h41.43.408,empathy_intonation_perc,2024.1.4,Win32,59.95203837,,,,,,,,,,,,,,44,editor,,,,,,126.189,127.388,1,0,0.671,,0,55,55,43,1,two_way_cognate,1,REAL,FALSA
,,,,,,,,,60be1ebd38d04cdbd9f58121,001,2025-05-06_15h41.43.408,empathy_intonation_perc,2024.1.4,Win32,59.95203837,,,,,,,,,,,,,,165,chote,,,,,,127.389,129.039,1,0,1.116,,0,56,56,164,1,pseudoword,0,REAL,FALSA
,,,,,,,,,60be1ebd38d04cdbd9f58121,001,2025-05-06_15h41.43.408,empathy_intonation_perc,2024.1.4,Win32,59.95203837,,,,,,,,,,,,,,141,virios,,,,,,129.039,130.455,0,1,0.884,,0,57,57,140,1,pseudoword,0,REAL,FALSA
,,,,,,,,,60be1ebd38d04cdbd9f58121,001,2025-05-06_15h41.43.408,empathy_intonation_perc,2024.1.4,Win32,59.95203837,,,,,,,,,,,,,,171,gotro,,,,,,130.455,131.556,0,1,0.581,,0,58,58,170,1,pseudoword,0,REAL,FALSA
,,,,,,,,,60be1ebd38d04cdbd9f58121,001,2025-05-06_15h41.43.408,empathy_intonation_perc,2024.1.4,Win32,59.95203837,,,,,,,,,,,,,,163,llzan,,,,,,131.556,133.072,0,1,0.994,,0,59,59,162,1,pseudoword,0,REAL,FALSA
,,,,,,,,,60be1ebd38d04cdbd9f58121,001,2025-05-06_15h41.43.408,empathy_intonation_perc,2024.1.4,Win32,59.95203837,,,,,,,,,,,,,,169,pitis,,,,,,133.072,134.322,1,0,0.737,,0,60,60,168,1,pseudoword,0,REAL,FALSA
,,,,,,,,,60be1ebd38d04cdbd9f58121,001,2025-05-06_15h41.43.408,empathy_intonation_perc,2024.1.4,Win32,59.95203837,,,,,,,,,,,,,,62,pegar,,,,,,134.322,135.539,1,0,0.699,,0,61,61,61,1,non_cognate,1,REAL,FALSA
,,,,,,,,,60be1ebd38d04cdbd9f58121,001,2025-05-06_15h41.43.408,empathy_intonation_perc,2024.1.4,Win32,59.95203837,,,,,,,,,,,,,,66,aleta,,,,,,135.54,136.905,1,0,0.843,,0,62,62,65,1,non_cognate,1,REAL,FALSA
,,,,,,,,,60be1ebd38d04cdbd9f58121,001,2025-05-06_15h41.43.408,empathy_intonation_perc,2024.1.4,Win32,59.95203837,,,,,,,,,,,,,,42,rumor,,,,,,136.906,138.222,0,1,0.793,,0,63,63,41,1,two_way_cognate,1,REAL,FALSA
,,,,,,,,,60be1ebd38d04cdbd9f58121,001,2025-05-06_15h41.43.408,empathy_intonation_perc,2024.1.4,Win32,59.95203837,,,,,,,,,,,,,,142,parre,,,,,,138.222,139.739,0,1,1.007,,0,64,64,141,1,pseudoword,0,REAL,FALSA
,,,,,,,,,60be1ebd38d04cdbd9f58121,001,2025-05-06_15h41.43.408,empathy_intonation_perc,2024.1.4,Win32,59.95203837,,,,,,,,,,,,,,73,llevar,,,,,,139.739,140.939,1,0,0.673,,0,65,65,72,1,non_cognate,1,REAL,FALSA
,,,,,,,,,60be1ebd38d04cdbd9f58121,001,2025-05-06_15h41.43.408,empathy_intonation_perc,2024.1.4,Win32,59.95203837,,,,,,,,,,,,,,179,suelet,,,,,,140.939,142.905,0,1,1.435,,0,66,66,178,1,pseudoword,0,REAL,FALSA
,,,,,,,,,60be1ebd38d04cdbd9f58121,001,2025-05-06_15h41.43.408,empathy_intonation_perc,2024.1.4,Win32,59.95203837,,,,,,,,,,,,,,174,pabea,,,,,,142.906,144.155,0,1,0.713,,0,67,67,173,1,pseudoword,0,REAL,FALSA
,,,,,,,,,60be1ebd38d04cdbd9f58121,001,2025-05-06_15h41.43.408,empathy_intonation_perc,2024.1.4,Win32,59.95203837,,,,,,,,,,,,,,147,alla,,,,,,144.156,145.522,0,1,0.839,,0,68,68,146,1,pseudoword,0,REAL,FALSA
,,,,,,,,,60be1ebd38d04cdbd9f58121,001,2025-05-06_15h41.43.408,empathy_intonation_perc,2024.1.4,Win32,59.95203837,,,,,,,,,,,,,,54,tapón,,,,,,145.522,147.222,1,0,1.188,,0,69,69,53,1,non_cognate,1,REAL,FALSA
,,,,,,,,,60be1ebd38d04cdbd9f58121,001,2025-05-06_15h41.43.408,empathy_intonation_perc,2024.1.4,Win32,59.95203837,,,,,,,,,,,,,,180,pupica,,,,,,147.222,148.521,0,1,0.783,,0,70,70,179,1,pseudoword,0,REAL,FALSA
,,,,,,,,,60be1ebd38d04cdbd9f58121,001,2025-05-06_15h41.43.408,empathy_intonation_perc,2024.1.4,Win32,59.95203837,,,,,,,,,,,,,,83,hálito,,,,,,148.522,149.855,0,1,0.815,,0,71,71,82,1,non_cognate,1,REAL,FALSA
,,,,,,,,,60be1ebd38d04cdbd9f58121,001,2025-05-06_15h41.43.408,empathy_intonation_perc,2024.1.4,Win32,59.95203837,,,,,,,,,,,,,,107,plago,,,,,,149.855,151.305,0,1,0.929,,0,72,72,106,1,pseudoword,0,REAL,FALSA
,,,,,,,,,60be1ebd38d04cdbd9f58121,001,2025-05-06_15h41.43.408,empathy_intonation_perc,2024.1.4,Win32,59.95203837,,,,,,,,,,,,,,33,collar,,,,,,151.306,152.288,1,0,0.451,,0,73,73,32,1,two_way_cognate,1,REAL,FALSA
,,,,,,,,,60be1ebd38d04cdbd9f58121,001,2025-05-06_15h41.43.408,empathy_intonation_perc,2024.1.4,Win32,59.95203837,,,,,,,,,,,,,,55,maldad,,,,,,152.289,153.789,0,1,0.969,,0,74,74,54,1,non_cognate,1,REAL,FALSA
,,,,,,,,,60be1ebd38d04cdbd9f58121,001,2025-05-06_15h41.43.408,empathy_intonation_perc,2024.1.4,Win32,59.95203837,,,,,,,,,,,,,,113,nasce,,,,,,153.789,155.022,1,0,0.699,,0,75,75,112,1,pseudoword,0,REAL,FALSA
,,,,,,,,,60be1ebd38d04cdbd9f58121,001,2025-05-06_15h41.43.408,empathy_intonation_perc,2024.1.4,Win32,59.95203837,,,,,,,,,,,,,,123,arane,,,,,,155.022,156.188,1,0,0.642,,0,76,76,122,1,pseudoword,0,REAL,FALSA
,,,,,,,,,60be1ebd38d04cdbd9f58121,001,2025-05-06_15h41.43.408,empathy_intonation_perc,2024.1.4,Win32,59.95203837,,,,,,,,,,,,,,176,gripar,,,,,,156.189,157.922,1,0,1.209,,0,77,77,175,1,pseudoword,0,REAL,FALSA
,,,,,,,,,60be1ebd38d04cdbd9f58121,001,2025-05-06_15h41.43.408,empathy_intonation_perc,2024.1.4,Win32,59.95203837,,,,,,,,,,,,,,24,retina,,,,,,157.922,159.238,1,0,0.785,,0,78,78,23,1,three_way_cognate,1,REAL,FALSA
,,,,,,,,,60be1ebd38d04cdbd9f58121,001,2025-05-06_15h41.43.408,empathy_intonation_perc,2024.1.4,Win32,59.95203837,,,,,,,,,,,,,,7,albino,,,,,,159.239,160.522,1,0,0.748,,0,79,79,6,1,three_way_cognate,1,REAL,FALSA
,,,,,,,,,60be1ebd38d04cdbd9f58121,001,2025-05-06_15h41.43.408,empathy_intonation_perc,2024.1.4,Win32,59.95203837,,,,,,,,,,,,,,45,total,,,,,,160.522,162.288,1,0,1.26,,0,80,80,44,1,two_way_cognate,1,REAL,FALSA
,,,,,,,,,60be1ebd38d04cdbd9f58121,001,2025-05-06_15h41.43.408,empathy_intonation_perc,2024.1.4,Win32,59.95203837,,,,,,,,,,,,,,70,ánimo,,,,,,162.289,163.554,1,0,0.732,,0,81,81,69,1,non_cognate,1,REAL,FALSA
,,,,,,,,,60be1ebd38d04cdbd9f58121,001,2025-05-06_15h41.43.408,empathy_intonation_perc,2024.1.4,Win32,59.95203837,,,,,,,,,,,,,,159,trcia,,,,,,163.555,164.688,0,1,0.614,,0,82,82,158,1,pseudoword,0,REAL,FALSA
,,,,,,,,,60be1ebd38d04cdbd9f58121,001,2025-05-06_15h41.43.408,empathy_intonation_perc,2024.1.4,Win32,59.95203837,,,,,,,,,,,,,,128,pelí,,,,,,164.689,166.121,0,1,0.902,,0,83,83,127,1,pseudoword,0,REAL,FALSA
,,,,,,,,,60be1ebd38d04cdbd9f58121,001,2025-05-06_15h41.43.408,empathy_intonation_perc,2024.1.4,Win32,59.95203837,,,,,,,,,,,,,,78,rendir,,,,,,166.122,167.588,1,0,0.933,,0,84,84,77,1,non_cognate,1,REAL,FALSA
,,,,,,,,,60be1ebd38d04cdbd9f58121,001,2025-05-06_15h41.43.408,empathy_intonation_perc,2024.1.4,Win32,59.95203837,,,,,,,,,,,,,,61,aduana,,,,,,167.589,168.805,0,1,0.698,,0,85,85,60,1,non_cognate,1,REAL,FALSA
,,,,,,,,,60be1ebd38d04cdbd9f58121,001,2025-05-06_15h41.43.408,empathy_intonation_perc,2024.1.4,Win32,59.95203837,,,,,,,,,,,,,,144,diroco,,,,,,168.807,170.038,0,1,0.704,,0,86,86,143,1,pseudoword,0,REAL,FALSA
,,,,,,,,,60be1ebd38d04cdbd9f58121,001,2025-05-06_15h41.43.408,empathy_intonation_perc,2024.1.4,Win32,59.95203837,,,,,,,,,,,,,,3,disco,,,,,,170.038,171.188,1,0,0.645,,0,87,87,2,1,three_way_cognate,1,REAL,FALSA
,,,,,,,,,60be1ebd38d04cdbd9f58121,001,2025-05-06_15h41.43.408,empathy_intonation_perc,2024.1.4,Win32,59.95203837,,,,,,,,,,,,,,5,extra,,,,,,171.189,172.672,1,0,0.955,,0,88,88,4,1,three_way_cognate,1,REAL,FALSA
,,,,,,,,,60be1ebd38d04cdbd9f58121,001,2025-05-06_15h41.43.408,empathy_intonation_perc,2024.1.4,Win32,59.95203837,,,,,,,,,,,,,,112,samón,,,,,,172.672,173.771,0,1,0.573,,0,89,89,111,1,pseudoword,0,REAL,FALSA
,,,,,,,,,60be1ebd38d04cdbd9f58121,001,2025-05-06_15h41.43.408,empathy_intonation_perc,2024.1.4,Win32,59.95203837,,,,,,,,,,,,,,116,grigir,,,,,,173.771,175.188,0,1,0.899,,0,90,90,115,1,pseudoword,0,REAL,FALSA
,,,,,,,,,60be1ebd38d04cdbd9f58121,001,2025-05-06_15h41.43.408,empathy_intonation_perc,2024.1.4,Win32,59.95203837,,,,,,,,,,,,,,4,flora,,,,,,175.189,176.272,1,0,0.554,,0,91,91,3,1,three_way_cognate,1,REAL,FALSA
,,,,,,,,,60be1ebd38d04cdbd9f58121,001,2025-05-06_15h41.43.408,empathy_intonation_perc,2024.1.4,Win32,59.95203837,,,,,,,,,,,,,,183,edioso,,,,,,176.272,177.471,0,1,0.67,,0,92,92,182,1,pseudoword,0,REAL,FALSA
,,,,,,,,,60be1ebd38d04cdbd9f58121,001,2025-05-06_15h41.43.408,empathy_intonation_perc,2024.1.4,Win32,59.95203837,,,,,,,,,,,,,,101,losco,,,,,,177.472,178.755,1,0,0.756,,0,93,93,100,1,pseudoword,0,REAL,FALSA
,,,,,,,,,60be1ebd38d04cdbd9f58121,001,2025-05-06_15h41.43.408,empathy_intonation_perc,2024.1.4,Win32,59.95203837,,,,,,,,,,,,,,15,test,,,,,,178.755,181.371,0,1,2.092,,0,94,94,14,1,three_way_cognate,1,REAL,FALSA
,,,,,,,,,60be1ebd38d04cdbd9f58121,001,2025-05-06_15h41.43.408,empathy_intonation_perc,2024.1.4,Win32,59.95203837,,,,,,,,,,,,,,65,guerra,,,,,,181.372,183.304,1,0,1.399,,0,95,95,64,1,non_cognate,1,REAL,FALSA
,,,,,,,,,60be1ebd38d04cdbd9f58121,001,2025-05-06_15h41.43.408,empathy_intonation_perc,2024.1.4,Win32,59.95203837,,,,,,,,,,,,,,18,altar,,,,,,183.305,184.638,1,0,0.826,,0,96,96,17,1,three_way_cognate,1,REAL,FALSA
,,,,,,,,,60be1ebd38d04cdbd9f58121,001,2025-05-06_15h41.43.408,empathy_intonation_perc,2024.1.4,Win32,59.95203837,,,,,,,,,,,,,,145,rúo,,,,,,184.638,186.138,1,0,0.987,,0,97,97,144,1,pseudoword,0,REAL,FALSA
,,,,,,,,,60be1ebd38d04cdbd9f58121,001,2025-05-06_15h41.43.408,empathy_intonation_perc,2024.1.4,Win32,59.95203837,,,,,,,,,,,,,,43,honor,,,,,,186.138,187.555,0,1,0.898,,0,98,98,42,1,two_way_cognate,1,REAL,FALSA
,,,,,,,,,60be1ebd38d04cdbd9f58121,001,2025-05-06_15h41.43.408,empathy_intonation_perc,2024.1.4,Win32,59.95203837,,,,,,,,,,,,,,143,hurcos,,,,,,187.555,189.104,0,1,1.042,,0,99,99,142,1,pseudoword,0,REAL,FALSA
,,,,,,,,,60be1ebd38d04cdbd9f58121,001,2025-05-06_15h41.43.408,empathy_intonation_perc,2024.1.4,Win32,59.95203837,,,,,,,,,,,,,,125,ceme,,,,,,189.105,190.354,0,1,0.716,,0,100,100,124,1,pseudoword,0,REAL,FALSA
,,,,,,,,,60be1ebd38d04cdbd9f58121,001,2025-05-06_15h41.43.408,empathy_intonation_perc,2024.1.4,Win32,59.95203837,,,,,,,,,,,,,,51,listo,,,,,,190.355,191.471,1,0,0.604,,0,101,101,50,1,non_cognate,1,REAL,FALSA
,,,,,,,,,60be1ebd38d04cdbd9f58121,001,2025-05-06_15h41.43.408,empathy_intonation_perc,2024.1.4,Win32,59.95203837,,,,,,,,,,,,,,118,bará,,,,,,191.471,192.871,1,0,0.891,,0,102,102,117,1,pseudoword,0,REAL,FALSA
,,,,,,,,,60be1ebd38d04cdbd9f58121,001,2025-05-06_15h41.43.408,empathy_intonation_perc,2024.1.4,Win32,59.95203837,,,,,,,,,,,,,,99,bugor,,,,,,192.871,194.054,0,1,0.666,,0,103,103,98,1,pseudoword,0,REAL,FALSA
,,,,,,,,,60be1ebd38d04cdbd9f58121,001,2025-05-06_15h41.43.408,empathy_intonation_perc,2024.1.4,Win32,59.95203837,,,,,,,,,,,,,,191,frasis,,,,,,194.055,195.121,1,0,0.541,,0,104,104,190,1,pseudoword,0,REAL,FALSA
,,,,,,,,,60be1ebd38d04cdbd9f58121,001,2025-05-06_15h41.43.408,empathy_intonation_perc,2024.1.4,Win32,59.95203837,,,,,,,,,,,,,,71,torta,,,,,,195.122,196.137,0,1,0.491,,0,105,105,70,1,non_cognate,1,REAL,FALSA
,,,,,,,,,60be1ebd38d04cdbd9f58121,001,2025-05-06_15h41.43.408,empathy_intonation_perc,2024.1.4,Win32,59.95203837,,,,,,,,,,,,,,6,horror,,,,,,196.138,197.054,0,1,0.382,,0,106,106,5,1,three_way_cognate,1,REAL,FALSA
,,,,,,,,,60be1ebd38d04cdbd9f58121,001,2025-05-06_15h41.43.408,empathy_intonation_perc,2024.1.4,Win32,59.95203837,,,,,,,,,,,,,,155,kugis,,,,,,197.054,198.071,1,0,0.508,,0,107,107,154,1,pseudoword,0,REAL,FALSA
,,,,,,,,,60be1ebd38d04cdbd9f58121,001,2025-05-06_15h41.43.408,empathy_intonation_perc,2024.1.4,Win32,59.95203837,,,,,,,,,,,,,,72,rostro,,,,,,198.071,199.921,1,0,1.336,,0,108,108,71,1,non_cognate,1,REAL,FALSA
,,,,,,,,,60be1ebd38d04cdbd9f58121,001,2025-05-06_15h41.43.408,empathy_intonation_perc,2024.1.4,Win32,59.95203837,,,,,,,,,,,,,,98,martir,,,,,,199.921,201.205,1,0,0.777,,0,109,109,97,1,pseudoword,0,REAL,FALSA
,,,,,,,,,60be1ebd38d04cdbd9f58121,001,2025-05-06_15h41.43.408,empathy_intonation_perc,2024.1.4,Win32,59.95203837,,,,,,,,,,,,,,68,puñal,,,,,,201.207,202.504,1,0,0.769,,0,110,110,67,1,non_cognate,1,REAL,FALSA
,,,,,,,,,60be1ebd38d04cdbd9f58121,001,2025-05-06_15h41.43.408,empathy_intonation_perc,2024.1.4,Win32,59.95203837,,,,,,,,,,,,,,29,clamor,,,,,,202.504,203.688,0,1,0.666,,0,111,111,28,1,two_way_cognate,1,REAL,FALSA
,,,,,,,,,60be1ebd38d04cdbd9f58121,001,2025-05-06_15h41.43.408,empathy_intonation_perc,2024.1.4,Win32,59.95203837,,,,,,,,,,,,,,47,color,,,,,,203.688,204.871,1,0,0.67,,0,112,112,46,1,two_way_cognate,1,REAL,FALSA
,,,,,,,,,60be1ebd38d04cdbd9f58121,001,2025-05-06_15h41.43.408,empathy_intonation_perc,2024.1.4,Win32,59.95203837,,,,,,,,,,,,,,1,moral,,,,,,204.871,206.388,1,0,1.001,,0,113,113,0,1,three_way_cognate,1,REAL,FALSA
,,,,,,,,,60be1ebd38d04cdbd9f58121,001,2025-05-06_15h41.43.408,empathy_intonation_perc,2024.1.4,Win32,59.95203837,,,,,,,,,,,,,,97,nocita,,,,,,206.388,207.638,0,1,0.724,,0,114,114,96,1,pseudoword,0,REAL,FALSA
,,,,,,,,,60be1ebd38d04cdbd9f58121,001,2025-05-06_15h41.43.408,empathy_intonation_perc,2024.1.4,Win32,59.95203837,,,,,,,,,,,,,,157,seled,,,,,,207.638,208.954,0,1,0.811,,0,115,115,156,1,pseudoword,0,REAL,FALSA
,,,,,,,,,60be1ebd38d04cdbd9f58121,001,2025-05-06_15h41.43.408,empathy_intonation_perc,2024.1.4,Win32,59.95203837,,,,,,,,,,,,,,137,trugo,,,,,,208.954,210.355,0,1,0.885,,0,116,116,136,1,pseudoword,0,REAL,FALSA
,,,,,,,,,60be1ebd38d04cdbd9f58121,001,2025-05-06_15h41.43.408,empathy_intonation_perc,2024.1.4,Win32,59.95203837,,,,,,,,,,,,,,95,listo,,,,,,210.355,211.405,1,0,0.515,,0,117,117,94,1,non_cognate,1,REAL,FALSA
,,,,,,,,,60be1ebd38d04cdbd9f58121,001,2025-05-06_15h41.43.408,empathy_intonation_perc,2024.1.4,Win32,59.95203837,,,,,,,,,,,,,,133,conso,,,,,,211.405,212.654,0,1,0.715,,0,118,118,132,1,pseudoword,0,REAL,FALSA
,,,,,,,,,60be1ebd38d04cdbd9f58121,001,2025-05-06_15h41.43.408,empathy_intonation_perc,2024.1.4,Win32,59.95203837,,,,,,,,,,,,,,109,laras,,,,,,212.654,213.937,1,0,0.772,,0,119,119,108,1,pseudoword,0,REAL,FALSA
,,,,,,,,,60be1ebd38d04cdbd9f58121,001,2025-05-06_15h41.43.408,empathy_intonation_perc,2024.1.4,Win32,59.95203837,,,,,,,,,,,,,,48,pelvis,,,,,,213.938,215.171,1,0,0.714,,0,120,120,47,1,two_way_cognate,1,REAL,FALSA
,,,,,,,,,60be1ebd38d04cdbd9f58121,001,2025-05-06_15h41.43.408,empathy_intonation_perc,2024.1.4,Win32,59.95203837,,,,,,,,,,,,,,117,morrá,,,,,,215.171,216.321,0,1,0.632,,0,121,121,116,1,pseudoword,0,REAL,FALSA
,,,,,,,,,60be1ebd38d04cdbd9f58121,001,2025-05-06_15h41.43.408,empathy_intonation_perc,2024.1.4,Win32,59.95203837,,,,,,,,,,,,,,80,cuenco,,,,,,216.321,217.404,0,1,0.575,,0,122,122,79,1,non_cognate,1,REAL,FALSA
,,,,,,,,,60be1ebd38d04cdbd9f58121,001,2025-05-06_15h41.43.408,empathy_intonation_perc,2024.1.4,Win32,59.95203837,,,,,,,,,,,,,,86,cuenco,,,,,,217.404,218.421,0,1,0.503,,0,123,123,85,1,non_cognate,1,REAL,FALSA
,,,,,,,,,60be1ebd38d04cdbd9f58121,001,2025-05-06_15h41.43.408,empathy_intonation_perc,2024.1.4,Win32,59.95203837,,,,,,,,,,,,,,135,panté,,,,,,218.421,219.704,0,1,0.77,,0,124,124,134,1,pseudoword,0,REAL,FALSA
,,,,,,,,,60be1ebd38d04cdbd9f58121,001,2025-05-06_15h41.43.408,empathy_intonation_perc,2024.1.4,Win32,59.95203837,,,,,,,,,,,,,,156,ozoso,,,,,,219.705,220.787,1,0,0.559,,0,125,125,155,1,pseudoword,0,REAL,FALSA
,,,,,,,,,60be1ebd38d04cdbd9f58121,001,2025-05-06_15h41.43.408,empathy_intonation_perc,2024.1.4,Win32,59.95203837,,,,,,,,,,,,,,122,boñaz,,,,,,220.788,221.921,1,0,0.624,,0,126,126,121,1,pseudoword,0,REAL,FALSA
,,,,,,,,,60be1ebd38d04cdbd9f58121,001,2025-05-06_15h41.43.408,empathy_intonation_perc,2024.1.4,Win32,59.95203837,,,,,,,,,,,,,,23,plural,,,,,,221.921,223.304,1,0,0.853,,0,127,127,22,1,three_way_cognate,1,REAL,FALSA
,,,,,,,,,60be1ebd38d04cdbd9f58121,001,2025-05-06_15h41.43.408,empathy_intonation_perc,2024.1.4,Win32,59.95203837,,,,,,,,,,,,,,88,percha,,,,,,223.304,224.57,0,1,0.759,,0,128,128,87,1,non_cognate,1,REAL,FALSA
,,,,,,,,,60be1ebd38d04cdbd9f58121,001,2025-05-06_15h41.43.408,empathy_intonation_perc,2024.1.4,Win32,59.95203837,,,,,,,,,,,,,,77,suave,,,,,,224.571,225.771,1,0,0.677,,0,129,129,76,1,non_cognate,1,REAL,FALSA
,,,,,,,,,60be1ebd38d04cdbd9f58121,001,2025-05-06_15h41.43.408,empathy_intonation_perc,2024.1.4,Win32,59.95203837,,,,,,,,,,,,,,192,próces,,,,,,225.771,227.27,1,0,0.971,,0,130,130,191,1,pseudoword,0,REAL,FALSA
,,,,,,,,,60be1ebd38d04cdbd9f58121,001,2025-05-06_15h41.43.408,empathy_intonation_perc,2024.1.4,Win32,59.95203837,,,,,,,,,,,,,,177,entodo,,,,,,227.271,230.387,1,0,2.583,,0,131,131,176,1,pseudoword,0,REAL,FALSA
,,,,,,,,,60be1ebd38d04cdbd9f58121,001,2025-05-06_15h41.43.408,empathy_intonation_perc,2024.1.4,Win32,59.95203837,,,,,,,,,,,,,,115,lidena,,,,,,230.387,231.688,0,1,0.781,,0,132,132,114,1,pseudoword,0,REAL,FALSA
,,,,,,,,,60be1ebd38d04cdbd9f58121,001,2025-05-06_15h41.43.408,empathy_intonation_perc,2024.1.4,Win32,59.95203837,,,,,,,,,,,,,,92,flecha,,,,,,231.688,232.804,0,1,0.6,,0,133,133,91,1,non_cognate,1,REAL,FALSA
,,,,,,,,,60be1ebd38d04cdbd9f58121,001,2025-05-06_15h41.43.408,empathy_intonation_perc,2024.1.4,Win32,59.95203837,,,,,,,,,,,,,,37,torso,,,,,,232.804,233.937,1,0,0.616,,0,134,134,36,1,two_way_cognate,1,REAL,FALSA
,,,,,,,,,60be1ebd38d04cdbd9f58121,001,2025-05-06_15h41.43.408,empathy_intonation_perc,2024.1.4,Win32,59.95203837,,,,,,,,,,,,,,124,lobe,,,,,,233.937,235.271,0,1,0.822,,0,135,135,123,1,pseudoword,0,REAL,FALSA
,,,,,,,,,60be1ebd38d04cdbd9f58121,001,2025-05-06_15h41.43.408,empathy_intonation_perc,2024.1.4,Win32,59.95203837,,,,,,,,,,,,,,13,plan,,,,,,235.272,236.554,0,1,0.758,,0,136,136,12,1,three_way_cognate,1,REAL,FALSA
,,,,,,,,,60be1ebd38d04cdbd9f58121,001,2025-05-06_15h41.43.408,empathy_intonation_perc,2024.1.4,Win32,59.95203837,,,,,,,,,,,,,,188,amplir,,,,,,236.554,237.987,1,0,0.915,,0,137,137,187,1,pseudoword,0,REAL,FALSA
,,,,,,,,,60be1ebd38d04cdbd9f58121,001,2025-05-06_15h41.43.408,empathy_intonation_perc,2024.1.4,Win32,59.95203837,,,,,,,,,,,,,,64,rizado,,,,,,237.988,239.154,0,1,0.645,,0,138,138,63,1,non_cognate,1,REAL,FALSA
,,,,,,,,,60be1ebd38d04cdbd9f58121,001,2025-05-06_15h41.43.408,empathy_intonation_perc,2024.1.4,Win32,59.95203837,,,,,,,,,,,,,,152,prave,,,,,,239.155,240.387,0,1,0.709,,0,139,139,151,1,pseudoword,0,REAL,FALSA
,,,,,,,,,60be1ebd38d04cdbd9f58121,001,2025-05-06_15h41.43.408,empathy_intonation_perc,2024.1.4,Win32,59.95203837,,,,,,,,,,,,,,187,nomata,,,,,,240.387,241.787,1,0,0.894,,0,140,140,186,1,pseudoword,0,REAL,FALSA
,,,,,,,,,60be1ebd38d04cdbd9f58121,001,2025-05-06_15h41.43.408,empathy_intonation_perc,2024.1.4,Win32,59.95203837,,,,,,,,,,,,,,129,vinzó,,,,,,241.787,243.054,1,0,0.761,,0,141,141,128,1,pseudoword,0,REAL,FALSA
,,,,,,,,,60be1ebd38d04cdbd9f58121,001,2025-05-06_15h41.43.408,empathy_intonation_perc,2024.1.4,Win32,59.95203837,,,,,,,,,,,,,,94,forro,,,,,,243.055,244.171,0,1,0.582,,0,142,142,93,1,non_cognate,1,REAL,FALSA
,,,,,,,,,60be1ebd38d04cdbd9f58121,001,2025-05-06_15h41.43.408,empathy_intonation_perc,2024.1.4,Win32,59.95203837,,,,,,,,,,,,,,96,caro,,,,,,244.171,245.303,1,0,0.599,,0,143,143,95,1,non_cognate,1,REAL,FALSA
,,,,,,,,,60be1ebd38d04cdbd9f58121,001,2025-05-06_15h41.43.408,empathy_intonation_perc,2024.1.4,Win32,59.95203837,,,,,,,,,,,,,,105,peniz,,,,,,245.304,246.537,0,1,0.716,,0,144,144,104,1,pseudoword,0,REAL,FALSA
,,,,,,,,,60be1ebd38d04cdbd9f58121,001,2025-05-06_15h41.43.408,empathy_intonation_perc,2024.1.4,Win32,59.95203837,,,,,,,,,,,,,,136,hueas,,,,,,246.537,248.071,0,1,1.004,,0,145,145,135,1,pseudoword,0,REAL,FALSA
,,,,,,,,,60be1ebd38d04cdbd9f58121,001,2025-05-06_15h41.43.408,empathy_intonation_perc,2024.1.4,Win32,59.95203837,,,,,,,,,,,,,,130,dubo,,,,,,248.071,249.404,0,1,0.798,,0,146,146,129,1,pseudoword,0,REAL,FALSA
,,,,,,,,,60be1ebd38d04cdbd9f58121,001,2025-05-06_15h41.43.408,empathy_intonation_perc,2024.1.4,Win32,59.95203837,,,,,,,,,,,,,,19,mafia,,,,,,249.404,250.854,0,1,0.918,,0,147,147,18,1,three_way_cognate,1,REAL,FALSA
,,,,,,,,,60be1ebd38d04cdbd9f58121,001,2025-05-06_15h41.43.408,empathy_intonation_perc,2024.1.4,Win32,59.95203837,,,,,,,,,,,,,,36,viable,,,,,,250.854,252.253,0,1,0.882,,0,148,148,35,1,two_way_cognate,1,REAL,FALSA
,,,,,,,,,60be1ebd38d04cdbd9f58121,001,2025-05-06_15h41.43.408,empathy_intonation_perc,2024.1.4,Win32,59.95203837,,,,,,,,,,,,,,60,siglo,,,,,,252.254,253.471,1,0,0.711,,0,149,149,59,1,non_cognate,1,REAL,FALSA
,,,,,,,,,60be1ebd38d04cdbd9f58121,001,2025-05-06_15h41.43.408,empathy_intonation_perc,2024.1.4,Win32,59.95203837,,,,,,,,,,,,,,16,chat,,,,,,253.471,254.62,0,1,0.616,,0,150,150,15,1,three_way_cognate,1,REAL,FALSA
,,,,,,,,,60be1ebd38d04cdbd9f58121,001,2025-05-06_15h41.43.408,empathy_intonation_perc,2024.1.4,Win32,59.95203837,,,,,,,,,,,,,,39,casual,,,,,,254.621,256.103,0,1,0.972,,0,151,151,38,1,two_way_cognate,1,REAL,FALSA
,,,,,,,,,60be1ebd38d04cdbd9f58121,001,2025-05-06_15h41.43.408,empathy_intonation_perc,2024.1.4,Win32,59.95203837,,,,,,,,,,,,,,189,medium,,,,,,256.103,257.37,1,0,0.761,,0,152,152,188,1,pseudoword,0,REAL,FALSA
,,,,,,,,,60be1ebd38d04cdbd9f58121,001,2025-05-06_15h41.43.408,empathy_intonation_perc,2024.1.4,Win32,59.95203837,,,,,,,,,,,,,,103,vueras,,,,,,257.371,258.537,0,1,0.657,,0,153,153,102,1,pseudoword,0,REAL,FALSA
,,,,,,,,,60be1ebd38d04cdbd9f58121,001,2025-05-06_15h41.43.408,empathy_intonation_perc,2024.1.4,Win32,59.95203837,,,,,,,,,,,,,,170,diabo,,,,,,258.538,259.686,1,0,0.618,,0,154,154,169,1,pseudoword,0,REAL,FALSA
,,,,,,,,,60be1ebd38d04cdbd9f58121,001,2025-05-06_15h41.43.408,empathy_intonation_perc,2024.1.4,Win32,59.95203837,,,,,,,,,,,,,,162,cengo,,,,,,259.687,260.903,1,0,0.704,,0,155,155,161,1,pseudoword,0,REAL,FALSA
,,,,,,,,,60be1ebd38d04cdbd9f58121,001,2025-05-06_15h41.43.408,empathy_intonation_perc,2024.1.4,Win32,59.95203837,,,,,,,,,,,,,,59,feo,,,,,,260.904,262.287,1,0,0.864,,0,156,156,58,1,non_cognate,1,REAL,FALSA
,,,,,,,,,60be1ebd38d04cdbd9f58121,001,2025-05-06_15h41.43.408,empathy_intonation_perc,2024.1.4,Win32,59.95203837,,,,,,,,,,,,,,178,inichó,,,,,,262.287,263.52,0,1,0.715,,0,157,157,177,1,pseudoword,0,REAL,FALSA
,,,,,,,,,60be1ebd38d04cdbd9f58121,001,2025-05-06_15h41.43.408,empathy_intonation_perc,2024.1.4,Win32,59.95203837,,,,,,,,,,,,,,76,chocar,,,,,,263.521,264.736,0,1,0.692,,0,158,158,75,1,non_cognate,1,REAL,FALSA
,,,,,,,,,60be1ebd38d04cdbd9f58121,001,2025-05-06_15h41.43.408,empathy_intonation_perc,2024.1.4,Win32,59.95203837,,,,,,,,,,,,,,104,estulo,,,,,,264.737,265.887,1,0,0.631,,0,159,159,103,1,pseudoword,0,REAL,FALSA
,,,,,,,,,60be1ebd38d04cdbd9f58121,001,2025-05-06_15h41.43.408,empathy_intonation_perc,2024.1.4,Win32,59.95203837,,,,,,,,,,,,,,74,ala,,,,,,265.887,267.337,1,0,0.933,,0,160,160,73,1,non_cognate,1,REAL,FALSA
,,,,,,,,,60be1ebd38d04cdbd9f58121,001,2025-05-06_15h41.43.408,empathy_intonation_perc,2024.1.4,Win32,59.95203837,,,,,,,,,,,,,,84,aviso,,,,,,267.339,268.554,0,1,0.691,,0,161,161,83,1,non_cognate,1,REAL,FALSA
,,,,,,,,,60be1ebd38d04cdbd9f58121,001,2025-05-06_15h41.43.408,empathy_intonation_perc,2024.1.4,Win32,59.95203837,,,,,,,,,,,,,,151,prías,,,,,,268.554,269.653,0,1,0.567,,0,162,162,150,1,pseudoword,0,REAL,FALSA
,,,,,,,,,60be1ebd38d04cdbd9f58121,001,2025-05-06_15h41.43.408,empathy_intonation_perc,2024.1.4,Win32,59.95203837,,,,,,,,,,,,,,127,vien,,,,,,269.654,270.687,1,0,0.507,,0,163,163,126,1,pseudoword,0,REAL,FALSA
,,,,,,,,,60be1ebd38d04cdbd9f58121,001,2025-05-06_15h41.43.408,empathy_intonation_perc,2024.1.4,Win32,59.95203837,,,,,,,,,,,,,,53,punta,,,,,,270.687,271.82,1,0,0.623,,0,164,164,52,1,non_cognate,1,REAL,FALSA
,,,,,,,,,60be1ebd38d04cdbd9f58121,001,2025-05-06_15h41.43.408,empathy_intonation_perc,2024.1.4,Win32,59.95203837,,,,,,,,,,,,,,75,patada,,,,,,271.821,273.053,1,0,0.699,,0,165,165,74,1,non_cognate,1,REAL,FALSA
,,,,,,,,,60be1ebd38d04cdbd9f58121,001,2025-05-06_15h41.43.408,empathy_intonation_perc,2024.1.4,Win32,59.95203837,,,,,,,,,,,,,,190,asumie,,,,,,273.053,274.253,0,1,0.692,,0,166,166,189,1,pseudoword,0,REAL,FALSA
,,,,,,,,,60be1ebd38d04cdbd9f58121,001,2025-05-06_15h41.43.408,empathy_intonation_perc,2024.1.4,Win32,59.95203837,,,,,,,,,,,,,,2,tumor,,,,,,274.253,275.67,0,1,0.899,,0,167,167,1,1,three_way_cognate,1,REAL,FALSA
,,,,,,,,,60be1ebd38d04cdbd9f58121,001,2025-05-06_15h41.43.408,empathy_intonation_perc,2024.1.4,Win32,59.95203837,,,,,,,,,,,,,,40,pelvis,,,,,,275.67,277.236,0,1,1.055,,0,168,168,39,1,two_way_cognate,1,REAL,FALSA
,,,,,,,,,60be1ebd38d04cdbd9f58121,001,2025-05-06_15h41.43.408,empathy_intonation_perc,2024.1.4,Win32,59.95203837,,,,,,,,,,,,,,149,emén,,,,,,277.237,278.654,0,1,0.886,,0,169,169,148,1,pseudoword,0,REAL,FALSA
,,,,,,,,,60be1ebd38d04cdbd9f58121,001,2025-05-06_15h41.43.408,empathy_intonation_perc,2024.1.4,Win32,59.95203837,,,,,,,,,,,,,,120,mauja,,,,,,278.654,280.17,0,1,0.987,,0,170,170,119,1,pseudoword,0,REAL,FALSA
,,,,,,,,,60be1ebd38d04cdbd9f58121,001,2025-05-06_15h41.43.408,empathy_intonation_perc,2024.1.4,Win32,59.95203837,,,,,,,,,,,,,,140,chorde,,,,,,280.171,281.32,1,0,0.621,,0,171,171,139,1,pseudoword,0,REAL,FALSA
,,,,,,,,,60be1ebd38d04cdbd9f58121,001,2025-05-06_15h41.43.408,empathy_intonation_perc,2024.1.4,Win32,59.95203837,,,,,,,,,,,,,,35,aurora,,,,,,281.32,282.57,1,0,0.72,,0,172,172,34,1,two_way_cognate,1,REAL,FALSA
,,,,,,,,,60be1ebd38d04cdbd9f58121,001,2025-05-06_15h41.43.408,empathy_intonation_perc,2024.1.4,Win32,59.95203837,,,,,,,,,,,,,,28,ardor,,,,,,282.57,283.687,0,1,0.607,,0,173,173,27,1,two_way_cognate,1,REAL,FALSA
,,,,,,,,,60be1ebd38d04cdbd9f58121,001,2025-05-06_15h41.43.408,empathy_intonation_perc,2024.1.4,Win32,59.95203837,,,,,,,,,,,,,,89,muñeca,,,,,,283.687,284.937,0,1,0.722,,0,174,174,88,1,non_cognate,1,REAL,FALSA
,,,,,,,,,60be1ebd38d04cdbd9f58121,001,2025-05-06_15h41.43.408,empathy_intonation_perc,2024.1.4,Win32,59.95203837,,,,,,,,,,,,,,114,dibrea,,,,,,284.937,286.053,0,1,0.604,,0,175,175,113,1,pseudoword,0,REAL,FALSA
,,,,,,,,,60be1ebd38d04cdbd9f58121,001,2025-05-06_15h41.43.408,empathy_intonation_perc,2024.1.4,Win32,59.95203837,,,,,,,,,,,,,,146,gió,,,,,,286.054,287.036,1,0,0.46,,0,176,176,145,1,pseudoword,0,REAL,FALSA
,,,,,,,,,60be1ebd38d04cdbd9f58121,001,2025-05-06_15h41.43.408,empathy_intonation_perc,2024.1.4,Win32,59.95203837,,,,,,,,,,,,,,34,actor,,,,,,287.036,288.053,1,0,0.498,,0,177,177,33,1,two_way_cognate,1,REAL,FALSA
,,,,,,,,,60be1ebd38d04cdbd9f58121,001,2025-05-06_15h41.43.408,empathy_intonation_perc,2024.1.4,Win32,59.95203837,,,,,,,,,,,,,,69,tiza,,,,,,288.053,289.653,0,1,1.086,,0,178,178,68,1,non_cognate,1,REAL,FALSA
,,,,,,,,,60be1ebd38d04cdbd9f58121,001,2025-05-06_15h41.43.408,empathy_intonation_perc,2024.1.4,Win32,59.95203837,,,,,,,,,,,,,,46,mortal,,,,,,289.653,291.403,0,1,1.244,,0,179,179,45,1,two_way_cognate,1,REAL,FALSA
,,,,,,,,,60be1ebd38d04cdbd9f58121,001,2025-05-06_15h41.43.408,empathy_intonation_perc,2024.1.4,Win32,59.95203837,,,,,,,,,,,,,,153,golla,,,,,,291.404,292.653,0,1,0.727,,0,180,180,152,1,pseudoword,0,REAL,FALSA
,,,,,,,,,60be1ebd38d04cdbd9f58121,001,2025-05-06_15h41.43.408,empathy_intonation_perc,2024.1.4,Win32,59.95203837,,,,,,,,,,,,,,52,blando,,,,,,292.653,293.82,1,0,0.656,,0,181,181,51,1,non_cognate,1,REAL,FALSA
,,,,,,,,,60be1ebd38d04cdbd9f58121,001,2025-05-06_15h41.43.408,empathy_intonation_perc,2024.1.4,Win32,59.95203837,,,,,,,,,,,,,,50,sierra,,,,,,293.82,294.986,1,0,0.658,,0,182,182,49,1,non_cognate,1,REAL,FALSA
,,,,,,,,,60be1ebd38d04cdbd9f58121,001,2025-05-06_15h41.43.408,empathy_intonation_perc,2024.1.4,Win32,59.95203837,,,,,,,,,,,,,,168,cobén,,,,,,294.987,296.37,0,1,0.848,,0,183,183,167,1,pseudoword,0,REAL,FALSA
,,,,,,,,,60be1ebd38d04cdbd9f58121,001,2025-05-06_15h41.43.408,empathy_intonation_perc,2024.1.4,Win32,59.95203837,,,,,,,,,,,,,,154,harvé,,,,,,296.371,297.753,0,1,0.86,,0,184,184,153,1,pseudoword,0,REAL,FALSA
,,,,,,,,,60be1ebd38d04cdbd9f58121,001,2025-05-06_15h41.43.408,empathy_intonation_perc,2024.1.4,Win32,59.95203837,,,,,,,,,,,,,,49,teñir,,,,,,297.753,298.836,1,0,0.57,,0,185,185,48,1,non_cognate,1,REAL,FALSA
,,,,,,,,,60be1ebd38d04cdbd9f58121,001,2025-05-06_15h41.43.408,empathy_intonation_perc,2024.1.4,Win32,59.95203837,,,,,,,,,,,,,,90,venado,,,,,,298.837,300.204,1,0,0.853,,0,186,186,89,1,non_cognate,1,REAL,FALSA
,,,,,,,,,60be1ebd38d04cdbd9f58121,001,2025-05-06_15h41.43.408,empathy_intonation_perc,2024.1.4,Win32,59.95203837,,,,,,,,,,,,,,164,tecia,,,,,,300.205,301.453,1,0,0.715,,0,187,187,163,1,pseudoword,0,REAL,FALSA
,,,,,,,,,60be1ebd38d04cdbd9f58121,001,2025-05-06_15h41.43.408,empathy_intonation_perc,2024.1.4,Win32,59.95203837,,,,,,,,,,,,,,57,regalo,,,,,,301.453,302.787,1,0,0.825,,0,188,188,56,1,non_cognate,1,REAL,FALSA
,,,,,,,,,60be1ebd38d04cdbd9f58121,001,2025-05-06_15h41.43.408,empathy_intonation_perc,2024.1.4,Win32,59.95203837,,,,,,,,,,,,,,12,dogma,,,,,,302.787,304.236,0,1,0.916,,0,189,189,11,1,three_way_cognate,1,REAL,FALSA
,,,,,,,,,60be1ebd38d04cdbd9f58121,001,2025-05-06_15h41.43.408,empathy_intonation_perc,2024.1.4,Win32,59.95203837,,,,,,,,,,,,,,102,coyo,,,,,,304.236,305.336,0,1,0.59,,0,190,190,101,1,pseudoword,0,REAL,FALSA
,,,,,,,,,60be1ebd38d04cdbd9f58121,001,2025-05-06_15h41.43.408,empathy_intonation_perc,2024.1.4,Win32,59.95203837,,,,,,,,,,,,,,167,dobbo,,,,,,305.336,306.503,0,1,0.653,,0,191,191,166,1,pseudoword,0,REAL,FALSA
