lextale_instructions.started,lextale_instructions.stopped,lextale_instructions_loop.thisRepN,lextale_instructions_loop.thisTrialN,lextale_instructions_loop.thisN,lextale_instructions_loop.thisIndex,lextale_instructions_loop.ran,instructions_text,continue_text,participant,session,date,expName,psychopyVersion,OS,frameRate,lextale_practice.started,lextale_practice.stopped,key_resp_lextale_practice.keys,key_resp_lextale_practice.corr,key_resp_lextale_practice.rt,key_resp_lextale_practice.duration,lextale_practice_feedback.started,lextale_practice_feedback.stopped,lextale_practice_trials.thisRepN,lextale_practice_trials.thisTrialN,lextale_practice_trials.thisN,lextale_practice_trials.thisIndex,lextale_practice_trials.ran,stim,word,correct_response,prac_button_real,prac_button_false,lextale_check.started,lextale_check.stopped,lextale_trial.started,lextale_trial.stopped,key_resp_lextale_trial.keys,key_resp_lextale_trial.corr,key_resp_lextale_trial.rt,key_resp_lextale_trial.duration,lextail_trials.thisRepN,lextail_trials.thisTrialN,lextail_trials.thisN,lextail_trials.thisIndex,lextail_trials.ran,type,correct_reponse,button_real,button_false
0.003,5.593,0,0,0,0,1,"Este es un test de vocabulario en español. 
  
  A continuación vas a ver 90 secuencias de letras que parecen 'españolas'.
  
  Solo algunas de ellas son palabras de verdad.",(presiona la barra espaciadora para continuar),627bfd52e3e0bfd01cd0cad5,001,2025-05-01_11h15.19.720,empathy_intonation_perc,2024.1.4,MacIntel,58.82352941,,,,,,,,,,,,,,,,,,,,,,,,,,,,,,,,,,,
5.594,10.84,0,1,1,1,1,"Por favor, señala las palabras que tú conoces (aquellas que estás convencido que son palabras españolas, incluso aunque no seas capaz de dar el significado preciso).",(presiona la barra espaciadora para continuar),627bfd52e3e0bfd01cd0cad5,001,2025-05-01_11h15.19.720,empathy_intonation_perc,2024.1.4,MacIntel,58.82352941,,,,,,,,,,,,,,,,,,,,,,,,,,,,,,,,,,,
10.84,15.991,0,2,2,2,1,Pero cuidado: los errores se penalizan. Por eso no tiene sentido tratar de incrementar tu puntuación marcando como reales palabras que nunca has visto.,(presiona la barra espaciadora para continuar),627bfd52e3e0bfd01cd0cad5,001,2025-05-01_11h15.19.720,empathy_intonation_perc,2024.1.4,MacIntel,58.82352941,,,,,,,,,,,,,,,,,,,,,,,,,,,,,,,,,,,
15.991,21.59,0,3,3,3,1,"Presiona la tecla 1 si piensas que es una palabra real y la tecla 
  0 si piensas que es una palabra falsa. 
  
  Vamos a practicar un poco...",(presiona la barra espaciadora para continuar),627bfd52e3e0bfd01cd0cad5,001,2025-05-01_11h15.19.720,empathy_intonation_perc,2024.1.4,MacIntel,58.82352941,,,,,,,,,,,,,,,,,,,,,,,,,,,,,,,,,,,
,,,,,,,,,627bfd52e3e0bfd01cd0cad5,001,2025-05-01_11h15.19.720,empathy_intonation_perc,2024.1.4,MacIntel,58.82352941,21.599,23.408,0,1,1.282,,23.408,24.408,0,0,0,0,1,0,depiste,0,REAL,FALSA,,,,,,,,,,,,,,,,,
,,,,,,,,,627bfd52e3e0bfd01cd0cad5,001,2025-05-01_11h15.19.720,empathy_intonation_perc,2024.1.4,MacIntel,58.82352941,24.408,25.774,1,1,0.834,,25.774,26.773,0,1,1,1,1,0,sí,1,REAL,FALSA,,,,,,,,,,,,,,,,,
,,,,,,,,,627bfd52e3e0bfd01cd0cad5,001,2025-05-01_11h15.19.720,empathy_intonation_perc,2024.1.4,MacIntel,58.82352941,26.774,28.573,0,1,1.269,,28.573,29.573,0,2,2,2,1,0,coné,0,REAL,FALSA,,,,,,,,,,,,,,,,,
,,,,,,,,,627bfd52e3e0bfd01cd0cad5,001,2025-05-01_11h15.19.720,empathy_intonation_perc,2024.1.4,MacIntel,58.82352941,29.574,31.24,0,1,1.132,,31.24,32.24,0,3,3,3,1,0,calpar,0,REAL,FALSA,,,,,,,,,,,,,,,,,
,,,,,,,,,627bfd52e3e0bfd01cd0cad5,001,2025-05-01_11h15.19.720,empathy_intonation_perc,2024.1.4,MacIntel,58.82352941,32.241,33.557,0,1,0.784,,33.557,34.557,0,4,4,4,1,0,joten,0,REAL,FALSA,,,,,,,,,,,,,,,,,
,,,,,,,,,627bfd52e3e0bfd01cd0cad5,001,2025-05-01_11h15.19.720,empathy_intonation_perc,2024.1.4,MacIntel,58.82352941,34.558,36.44,1,1,1.354,,36.441,37.44,0,5,5,5,1,0,sacapuntas,1,REAL,FALSA,,,,,,,,,,,,,,,,,
,,,,,,,,,627bfd52e3e0bfd01cd0cad5,001,2025-05-01_11h15.19.720,empathy_intonation_perc,2024.1.4,MacIntel,58.82352941,37.441,38.673,0,1,0.705,,38.673,39.673,0,6,6,6,1,0,priba,0,REAL,FALSA,,,,,,,,,,,,,,,,,
,,,,,,,,,627bfd52e3e0bfd01cd0cad5,001,2025-05-01_11h15.19.720,empathy_intonation_perc,2024.1.4,MacIntel,58.82352941,39.674,41.04,0,1,0.828,,41.04,42.04,0,7,7,7,1,0,pelasula,0,REAL,FALSA,,,,,,,,,,,,,,,,,
,,,,,,,,,627bfd52e3e0bfd01cd0cad5,001,2025-05-01_11h15.19.720,empathy_intonation_perc,2024.1.4,MacIntel,58.82352941,42.041,43.308,1,1,0.741,,43.308,44.307,0,8,8,8,1,0,bien,1,REAL,FALSA,,,,,,,,,,,,,,,,,
,,,,,,,,,627bfd52e3e0bfd01cd0cad5,001,2025-05-01_11h15.19.720,empathy_intonation_perc,2024.1.4,MacIntel,58.82352941,44.308,45.473,1,1,0.638,,45.473,46.473,0,9,9,9,1,0,casa,1,REAL,FALSA,,,,,,,,,,,,,,,,,
,,,,,,,,,627bfd52e3e0bfd01cd0cad5,001,2025-05-01_11h15.19.720,empathy_intonation_perc,2024.1.4,MacIntel,58.82352941,46.474,47.823,1,0,0.819,,47.824,48.823,0,10,10,10,1,0,lejo,0,REAL,FALSA,,,,,,,,,,,,,,,,,
,,,,,,,,,627bfd52e3e0bfd01cd0cad5,001,2025-05-01_11h15.19.720,empathy_intonation_perc,2024.1.4,MacIntel,58.82352941,48.824,50.507,0,1,1.144,,50.507,51.507,0,11,11,11,1,0,pretantas,0,REAL,FALSA,,,,,,,,,,,,,,,,,
,,,,,,,,,627bfd52e3e0bfd01cd0cad5,001,2025-05-01_11h15.19.720,empathy_intonation_perc,2024.1.4,MacIntel,58.82352941,,,,,,,,,,,,,,,,,,,51.508,53.474,,,,,,,,,,,,,,,
,,,,,,,,,627bfd52e3e0bfd01cd0cad5,001,2025-05-01_11h15.19.720,empathy_intonation_perc,2024.1.4,MacIntel,58.82352941,,,,,,,,,,,,,,133,conso,,,,,,53.487,54.891,0,1,0.881,,0,0,0,132,1,pseudoword,0,REAL,FALSA
,,,,,,,,,627bfd52e3e0bfd01cd0cad5,001,2025-05-01_11h15.19.720,empathy_intonation_perc,2024.1.4,MacIntel,58.82352941,,,,,,,,,,,,,,19,mafia,,,,,,54.892,56.24,1,0,0.826,,0,1,1,18,1,three_way_cognate,1,REAL,FALSA
,,,,,,,,,627bfd52e3e0bfd01cd0cad5,001,2025-05-01_11h15.19.720,empathy_intonation_perc,2024.1.4,MacIntel,58.82352941,,,,,,,,,,,,,,71,torta,,,,,,56.24,57.422,1,0,0.67,,0,2,2,70,1,non_cognate,1,REAL,FALSA
,,,,,,,,,627bfd52e3e0bfd01cd0cad5,001,2025-05-01_11h15.19.720,empathy_intonation_perc,2024.1.4,MacIntel,58.82352941,,,,,,,,,,,,,,42,rumor,,,,,,57.423,59.44,0,1,1.5,,0,3,3,41,1,two_way_cognate,1,REAL,FALSA
,,,,,,,,,627bfd52e3e0bfd01cd0cad5,001,2025-05-01_11h15.19.720,empathy_intonation_perc,2024.1.4,MacIntel,58.82352941,,,,,,,,,,,,,,188,amplir,,,,,,59.44,60.657,0,1,0.69,,0,4,4,187,1,pseudoword,0,REAL,FALSA
,,,,,,,,,627bfd52e3e0bfd01cd0cad5,001,2025-05-01_11h15.19.720,empathy_intonation_perc,2024.1.4,MacIntel,58.82352941,,,,,,,,,,,,,,78,rendir,,,,,,60.658,62.056,1,0,0.863,,0,5,5,77,1,non_cognate,1,REAL,FALSA
,,,,,,,,,627bfd52e3e0bfd01cd0cad5,001,2025-05-01_11h15.19.720,empathy_intonation_perc,2024.1.4,MacIntel,58.82352941,,,,,,,,,,,,,,113,nasce,,,,,,62.057,63.373,0,1,0.784,,0,6,6,112,1,pseudoword,0,REAL,FALSA
,,,,,,,,,627bfd52e3e0bfd01cd0cad5,001,2025-05-01_11h15.19.720,empathy_intonation_perc,2024.1.4,MacIntel,58.82352941,,,,,,,,,,,,,,134,molor,,,,,,63.374,64.54,1,0,0.636,,0,7,7,133,1,pseudoword,0,REAL,FALSA
,,,,,,,,,627bfd52e3e0bfd01cd0cad5,001,2025-05-01_11h15.19.720,empathy_intonation_perc,2024.1.4,MacIntel,58.82352941,,,,,,,,,,,,,,121,barbs,,,,,,64.54,65.89,0,1,0.813,,0,8,8,120,1,pseudoword,0,REAL,FALSA
,,,,,,,,,627bfd52e3e0bfd01cd0cad5,001,2025-05-01_11h15.19.720,empathy_intonation_perc,2024.1.4,MacIntel,58.82352941,,,,,,,,,,,,,,89,muñeca,,,,,,65.891,67.606,0,1,1.182,,0,9,9,88,1,non_cognate,1,REAL,FALSA
,,,,,,,,,627bfd52e3e0bfd01cd0cad5,001,2025-05-01_11h15.19.720,empathy_intonation_perc,2024.1.4,MacIntel,58.82352941,,,,,,,,,,,,,,146,gió,,,,,,67.606,68.706,1,0,0.581,,0,10,10,145,1,pseudoword,0,REAL,FALSA
,,,,,,,,,627bfd52e3e0bfd01cd0cad5,001,2025-05-01_11h15.19.720,empathy_intonation_perc,2024.1.4,MacIntel,58.82352941,,,,,,,,,,,,,,151,prías,,,,,,68.707,69.957,1,0,0.726,,0,11,11,150,1,pseudoword,0,REAL,FALSA
,,,,,,,,,627bfd52e3e0bfd01cd0cad5,001,2025-05-01_11h15.19.720,empathy_intonation_perc,2024.1.4,MacIntel,58.82352941,,,,,,,,,,,,,,177,entodo,,,,,,69.957,71.207,1,0,0.725,,0,12,12,176,1,pseudoword,0,REAL,FALSA
,,,,,,,,,627bfd52e3e0bfd01cd0cad5,001,2025-05-01_11h15.19.720,empathy_intonation_perc,2024.1.4,MacIntel,58.82352941,,,,,,,,,,,,,,115,lidena,,,,,,71.208,72.44,0,1,0.699,,0,13,13,114,1,pseudoword,0,REAL,FALSA
,,,,,,,,,627bfd52e3e0bfd01cd0cad5,001,2025-05-01_11h15.19.720,empathy_intonation_perc,2024.1.4,MacIntel,58.82352941,,,,,,,,,,,,,,44,editor,,,,,,72.44,74.223,0,1,1.254,,0,14,14,43,1,two_way_cognate,1,REAL,FALSA
,,,,,,,,,627bfd52e3e0bfd01cd0cad5,001,2025-05-01_11h15.19.720,empathy_intonation_perc,2024.1.4,MacIntel,58.82352941,,,,,,,,,,,,,,191,frasis,,,,,,74.223,75.473,0,1,0.737,,0,15,15,190,1,pseudoword,0,REAL,FALSA
,,,,,,,,,627bfd52e3e0bfd01cd0cad5,001,2025-05-01_11h15.19.720,empathy_intonation_perc,2024.1.4,MacIntel,58.82352941,,,,,,,,,,,,,,169,pitis,,,,,,75.474,76.857,0,1,0.848,,0,16,16,168,1,pseudoword,0,REAL,FALSA
,,,,,,,,,627bfd52e3e0bfd01cd0cad5,001,2025-05-01_11h15.19.720,empathy_intonation_perc,2024.1.4,MacIntel,58.82352941,,,,,,,,,,,,,,57,regalo,,,,,,76.857,78.423,1,0,1.028,,0,17,17,56,1,non_cognate,1,REAL,FALSA
,,,,,,,,,627bfd52e3e0bfd01cd0cad5,001,2025-05-01_11h15.19.720,empathy_intonation_perc,2024.1.4,MacIntel,58.82352941,,,,,,,,,,,,,,179,suelet,,,,,,78.424,79.64,0,1,0.679,,0,18,18,178,1,pseudoword,0,REAL,FALSA
,,,,,,,,,627bfd52e3e0bfd01cd0cad5,001,2025-05-01_11h15.19.720,empathy_intonation_perc,2024.1.4,MacIntel,58.82352941,,,,,,,,,,,,,,155,kugis,,,,,,79.64,80.64,0,1,0.48,,0,19,19,154,1,pseudoword,0,REAL,FALSA
,,,,,,,,,627bfd52e3e0bfd01cd0cad5,001,2025-05-01_11h15.19.720,empathy_intonation_perc,2024.1.4,MacIntel,58.82352941,,,,,,,,,,,,,,61,aduana,,,,,,80.641,81.724,0,1,0.558,,0,20,20,60,1,non_cognate,1,REAL,FALSA
,,,,,,,,,627bfd52e3e0bfd01cd0cad5,001,2025-05-01_11h15.19.720,empathy_intonation_perc,2024.1.4,MacIntel,58.82352941,,,,,,,,,,,,,,91,equipo,,,,,,81.724,82.89,1,0,0.636,,0,21,21,90,1,non_cognate,1,REAL,FALSA
,,,,,,,,,627bfd52e3e0bfd01cd0cad5,001,2025-05-01_11h15.19.720,empathy_intonation_perc,2024.1.4,MacIntel,58.82352941,,,,,,,,,,,,,,10,drama,,,,,,82.89,83.94,1,0,0.517,,0,22,22,9,1,three_way_cognate,1,REAL,FALSA
,,,,,,,,,627bfd52e3e0bfd01cd0cad5,001,2025-05-01_11h15.19.720,empathy_intonation_perc,2024.1.4,MacIntel,58.82352941,,,,,,,,,,,,,,163,llzan,,,,,,83.94,85.056,0,1,0.579,,0,23,23,162,1,pseudoword,0,REAL,FALSA
,,,,,,,,,627bfd52e3e0bfd01cd0cad5,001,2025-05-01_11h15.19.720,empathy_intonation_perc,2024.1.4,MacIntel,58.82352941,,,,,,,,,,,,,,173,mibro,,,,,,85.056,86.107,0,1,0.533,,0,24,24,172,1,pseudoword,0,REAL,FALSA
,,,,,,,,,627bfd52e3e0bfd01cd0cad5,001,2025-05-01_11h15.19.720,empathy_intonation_perc,2024.1.4,MacIntel,58.82352941,,,,,,,,,,,,,,80,cuenco,,,,,,86.107,87.306,0,1,0.665,,0,25,25,79,1,non_cognate,1,REAL,FALSA
,,,,,,,,,627bfd52e3e0bfd01cd0cad5,001,2025-05-01_11h15.19.720,empathy_intonation_perc,2024.1.4,MacIntel,58.82352941,,,,,,,,,,,,,,156,ozoso,,,,,,87.307,88.573,0,1,0.743,,0,26,26,155,1,pseudoword,0,REAL,FALSA
,,,,,,,,,627bfd52e3e0bfd01cd0cad5,001,2025-05-01_11h15.19.720,empathy_intonation_perc,2024.1.4,MacIntel,58.82352941,,,,,,,,,,,,,,141,virios,,,,,,88.574,89.506,0,1,0.405,,0,27,27,140,1,pseudoword,0,REAL,FALSA
,,,,,,,,,627bfd52e3e0bfd01cd0cad5,001,2025-05-01_11h15.19.720,empathy_intonation_perc,2024.1.4,MacIntel,58.82352941,,,,,,,,,,,,,,81,sacar,,,,,,89.507,90.39,0,1,0.352,,0,28,28,80,1,non_cognate,1,REAL,FALSA
,,,,,,,,,627bfd52e3e0bfd01cd0cad5,001,2025-05-01_11h15.19.720,empathy_intonation_perc,2024.1.4,MacIntel,58.82352941,,,,,,,,,,,,,,18,altar,,,,,,90.39,91.523,1,0,0.598,,0,29,29,17,1,three_way_cognate,1,REAL,FALSA
,,,,,,,,,627bfd52e3e0bfd01cd0cad5,001,2025-05-01_11h15.19.720,empathy_intonation_perc,2024.1.4,MacIntel,58.82352941,,,,,,,,,,,,,,94,forro,,,,,,91.523,92.473,1,0,0.441,,0,30,30,93,1,non_cognate,1,REAL,FALSA
,,,,,,,,,627bfd52e3e0bfd01cd0cad5,001,2025-05-01_11h15.19.720,empathy_intonation_perc,2024.1.4,MacIntel,58.82352941,,,,,,,,,,,,,,74,ala,,,,,,92.473,93.723,1,0,0.717,,0,31,31,73,1,non_cognate,1,REAL,FALSA
,,,,,,,,,627bfd52e3e0bfd01cd0cad5,001,2025-05-01_11h15.19.720,empathy_intonation_perc,2024.1.4,MacIntel,58.82352941,,,,,,,,,,,,,,22,mango,,,,,,93.724,94.907,1,0,0.649,,0,32,32,21,1,three_way_cognate,1,REAL,FALSA
,,,,,,,,,627bfd52e3e0bfd01cd0cad5,001,2025-05-01_11h15.19.720,empathy_intonation_perc,2024.1.4,MacIntel,58.82352941,,,,,,,,,,,,,,20,trauma,,,,,,94.907,96.49,1,0,1.045,,0,33,33,19,1,three_way_cognate,1,REAL,FALSA
,,,,,,,,,627bfd52e3e0bfd01cd0cad5,001,2025-05-01_11h15.19.720,empathy_intonation_perc,2024.1.4,MacIntel,58.82352941,,,,,,,,,,,,,,87,muleta,,,,,,96.49,97.989,0,1,0.97,,0,34,34,86,1,non_cognate,1,REAL,FALSA
,,,,,,,,,627bfd52e3e0bfd01cd0cad5,001,2025-05-01_11h15.19.720,empathy_intonation_perc,2024.1.4,MacIntel,58.82352941,,,,,,,,,,,,,,11,golf,,,,,,97.99,99.19,0,1,0.66,,0,35,35,10,1,three_way_cognate,1,REAL,FALSA
,,,,,,,,,627bfd52e3e0bfd01cd0cad5,001,2025-05-01_11h15.19.720,empathy_intonation_perc,2024.1.4,MacIntel,58.82352941,,,,,,,,,,,,,,79,suelo,,,,,,99.191,100.724,0,1,1.007,,0,36,36,78,1,non_cognate,1,REAL,FALSA
,,,,,,,,,627bfd52e3e0bfd01cd0cad5,001,2025-05-01_11h15.19.720,empathy_intonation_perc,2024.1.4,MacIntel,58.82352941,,,,,,,,,,,,,,159,trcia,,,,,,100.724,101.89,0,1,0.628,,0,37,37,158,1,pseudoword,0,REAL,FALSA
,,,,,,,,,627bfd52e3e0bfd01cd0cad5,001,2025-05-01_11h15.19.720,empathy_intonation_perc,2024.1.4,MacIntel,58.82352941,,,,,,,,,,,,,,58,colcha,,,,,,101.89,103.256,1,0,0.835,,0,38,38,57,1,non_cognate,1,REAL,FALSA
,,,,,,,,,627bfd52e3e0bfd01cd0cad5,001,2025-05-01_11h15.19.720,empathy_intonation_perc,2024.1.4,MacIntel,58.82352941,,,,,,,,,,,,,,172,dogue,,,,,,103.257,104.59,1,0,0.793,,0,39,39,171,1,pseudoword,0,REAL,FALSA
,,,,,,,,,627bfd52e3e0bfd01cd0cad5,001,2025-05-01_11h15.19.720,empathy_intonation_perc,2024.1.4,MacIntel,58.82352941,,,,,,,,,,,,,,185,aljizo,,,,,,104.59,105.739,0,1,0.613,,0,40,40,184,1,pseudoword,0,REAL,FALSA
,,,,,,,,,627bfd52e3e0bfd01cd0cad5,001,2025-05-01_11h15.19.720,empathy_intonation_perc,2024.1.4,MacIntel,58.82352941,,,,,,,,,,,,,,73,llevar,,,,,,105.74,106.756,0,1,0.487,,0,41,41,72,1,non_cognate,1,REAL,FALSA
,,,,,,,,,627bfd52e3e0bfd01cd0cad5,001,2025-05-01_11h15.19.720,empathy_intonation_perc,2024.1.4,MacIntel,58.82352941,,,,,,,,,,,,,,186,rizate,,,,,,106.757,108.257,0,1,0.963,,0,42,42,185,1,pseudoword,0,REAL,FALSA
,,,,,,,,,627bfd52e3e0bfd01cd0cad5,001,2025-05-01_11h15.19.720,empathy_intonation_perc,2024.1.4,MacIntel,58.82352941,,,,,,,,,,,,,,101,losco,,,,,,108.258,109.523,1,0,0.734,,0,43,43,100,1,pseudoword,0,REAL,FALSA
,,,,,,,,,627bfd52e3e0bfd01cd0cad5,001,2025-05-01_11h15.19.720,empathy_intonation_perc,2024.1.4,MacIntel,58.82352941,,,,,,,,,,,,,,39,casual,,,,,,109.524,110.657,1,0,0.609,,0,44,44,38,1,two_way_cognate,1,REAL,FALSA
,,,,,,,,,627bfd52e3e0bfd01cd0cad5,001,2025-05-01_11h15.19.720,empathy_intonation_perc,2024.1.4,MacIntel,58.82352941,,,,,,,,,,,,,,192,próces,,,,,,110.657,111.99,1,0,0.804,,0,45,45,191,1,pseudoword,0,REAL,FALSA
,,,,,,,,,627bfd52e3e0bfd01cd0cad5,001,2025-05-01_11h15.19.720,empathy_intonation_perc,2024.1.4,MacIntel,58.82352941,,,,,,,,,,,,,,70,ánimo,,,,,,111.99,113.106,1,0,0.578,,0,46,46,69,1,non_cognate,1,REAL,FALSA
,,,,,,,,,627bfd52e3e0bfd01cd0cad5,001,2025-05-01_11h15.19.720,empathy_intonation_perc,2024.1.4,MacIntel,58.82352941,,,,,,,,,,,,,,69,tiza,,,,,,113.107,114.289,0,1,0.648,,0,47,47,68,1,non_cognate,1,REAL,FALSA
,,,,,,,,,627bfd52e3e0bfd01cd0cad5,001,2025-05-01_11h15.19.720,empathy_intonation_perc,2024.1.4,MacIntel,58.82352941,,,,,,,,,,,,,,96,caro,,,,,,114.29,115.406,0,1,0.583,,0,48,48,95,1,non_cognate,1,REAL,FALSA
,,,,,,,,,627bfd52e3e0bfd01cd0cad5,001,2025-05-01_11h15.19.720,empathy_intonation_perc,2024.1.4,MacIntel,58.82352941,,,,,,,,,,,,,,154,harvé,,,,,,115.407,116.606,0,1,0.667,,0,49,49,153,1,pseudoword,0,REAL,FALSA
,,,,,,,,,627bfd52e3e0bfd01cd0cad5,001,2025-05-01_11h15.19.720,empathy_intonation_perc,2024.1.4,MacIntel,58.82352941,,,,,,,,,,,,,,90,venado,,,,,,116.607,117.656,1,0,0.52,,0,50,50,89,1,non_cognate,1,REAL,FALSA
,,,,,,,,,627bfd52e3e0bfd01cd0cad5,001,2025-05-01_11h15.19.720,empathy_intonation_perc,2024.1.4,MacIntel,58.82352941,,,,,,,,,,,,,,111,monue,,,,,,117.657,119.107,0,1,0.927,,0,51,51,110,1,pseudoword,0,REAL,FALSA
,,,,,,,,,627bfd52e3e0bfd01cd0cad5,001,2025-05-01_11h15.19.720,empathy_intonation_perc,2024.1.4,MacIntel,58.82352941,,,,,,,,,,,,,,84,aviso,,,,,,119.108,120.273,1,0,0.631,,0,52,52,83,1,non_cognate,1,REAL,FALSA
,,,,,,,,,627bfd52e3e0bfd01cd0cad5,001,2025-05-01_11h15.19.720,empathy_intonation_perc,2024.1.4,MacIntel,58.82352941,,,,,,,,,,,,,,167,dobbo,,,,,,120.273,121.456,0,1,0.653,,0,53,53,166,1,pseudoword,0,REAL,FALSA
,,,,,,,,,627bfd52e3e0bfd01cd0cad5,001,2025-05-01_11h15.19.720,empathy_intonation_perc,2024.1.4,MacIntel,58.82352941,,,,,,,,,,,,,,131,fuar,,,,,,121.456,122.556,0,1,0.582,,0,54,54,130,1,pseudoword,0,REAL,FALSA
,,,,,,,,,627bfd52e3e0bfd01cd0cad5,001,2025-05-01_11h15.19.720,empathy_intonation_perc,2024.1.4,MacIntel,58.82352941,,,,,,,,,,,,,,127,vien,,,,,,122.557,123.623,1,0,0.535,,0,55,55,126,1,pseudoword,0,REAL,FALSA
,,,,,,,,,627bfd52e3e0bfd01cd0cad5,001,2025-05-01_11h15.19.720,empathy_intonation_perc,2024.1.4,MacIntel,58.82352941,,,,,,,,,,,,,,120,mauja,,,,,,123.623,124.857,1,0,0.726,,0,56,56,119,1,pseudoword,0,REAL,FALSA
,,,,,,,,,627bfd52e3e0bfd01cd0cad5,001,2025-05-01_11h15.19.720,empathy_intonation_perc,2024.1.4,MacIntel,58.82352941,,,,,,,,,,,,,,129,vinzó,,,,,,124.857,126.173,1,0,0.779,,0,57,57,128,1,pseudoword,0,REAL,FALSA
,,,,,,,,,627bfd52e3e0bfd01cd0cad5,001,2025-05-01_11h15.19.720,empathy_intonation_perc,2024.1.4,MacIntel,58.82352941,,,,,,,,,,,,,,23,plural,,,,,,126.173,127.539,0,1,0.851,,0,58,58,22,1,three_way_cognate,1,REAL,FALSA
,,,,,,,,,627bfd52e3e0bfd01cd0cad5,001,2025-05-01_11h15.19.720,empathy_intonation_perc,2024.1.4,MacIntel,58.82352941,,,,,,,,,,,,,,126,tobre,,,,,,127.54,128.639,0,1,0.562,,0,59,59,125,1,pseudoword,0,REAL,FALSA
,,,,,,,,,627bfd52e3e0bfd01cd0cad5,001,2025-05-01_11h15.19.720,empathy_intonation_perc,2024.1.4,MacIntel,58.82352941,,,,,,,,,,,,,,110,densó,,,,,,128.639,129.923,1,0,0.774,,0,60,60,109,1,pseudoword,0,REAL,FALSA
,,,,,,,,,627bfd52e3e0bfd01cd0cad5,001,2025-05-01_11h15.19.720,empathy_intonation_perc,2024.1.4,MacIntel,58.82352941,,,,,,,,,,,,,,144,diroco,,,,,,129.923,131.056,0,1,0.598,,0,61,61,143,1,pseudoword,0,REAL,FALSA
,,,,,,,,,627bfd52e3e0bfd01cd0cad5,001,2025-05-01_11h15.19.720,empathy_intonation_perc,2024.1.4,MacIntel,58.82352941,,,,,,,,,,,,,,107,plago,,,,,,131.057,132.173,0,1,0.578,,0,62,62,106,1,pseudoword,0,REAL,FALSA
,,,,,,,,,627bfd52e3e0bfd01cd0cad5,001,2025-05-01_11h15.19.720,empathy_intonation_perc,2024.1.4,MacIntel,58.82352941,,,,,,,,,,,,,,63,hilo,,,,,,132.173,133.439,1,0,0.74,,0,63,63,62,1,non_cognate,1,REAL,FALSA
,,,,,,,,,627bfd52e3e0bfd01cd0cad5,001,2025-05-01_11h15.19.720,empathy_intonation_perc,2024.1.4,MacIntel,58.82352941,,,,,,,,,,,,,,29,clamor,,,,,,133.44,134.491,0,1,0.525,,0,64,64,28,1,two_way_cognate,1,REAL,FALSA
,,,,,,,,,627bfd52e3e0bfd01cd0cad5,001,2025-05-01_11h15.19.720,empathy_intonation_perc,2024.1.4,MacIntel,58.82352941,,,,,,,,,,,,,,1,moral,,,,,,134.491,135.673,0,1,0.649,,0,65,65,0,1,three_way_cognate,1,REAL,FALSA
,,,,,,,,,627bfd52e3e0bfd01cd0cad5,001,2025-05-01_11h15.19.720,empathy_intonation_perc,2024.1.4,MacIntel,58.82352941,,,,,,,,,,,,,,52,blando,,,,,,135.673,136.889,1,0,0.68,,0,66,66,51,1,non_cognate,1,REAL,FALSA
,,,,,,,,,627bfd52e3e0bfd01cd0cad5,001,2025-05-01_11h15.19.720,empathy_intonation_perc,2024.1.4,MacIntel,58.82352941,,,,,,,,,,,,,,149,emén,,,,,,136.89,138.156,0,1,0.729,,0,67,67,148,1,pseudoword,0,REAL,FALSA
,,,,,,,,,627bfd52e3e0bfd01cd0cad5,001,2025-05-01_11h15.19.720,empathy_intonation_perc,2024.1.4,MacIntel,58.82352941,,,,,,,,,,,,,,16,chat,,,,,,138.157,139.291,0,1,0.611,,0,68,68,15,1,three_way_cognate,1,REAL,FALSA
,,,,,,,,,627bfd52e3e0bfd01cd0cad5,001,2025-05-01_11h15.19.720,empathy_intonation_perc,2024.1.4,MacIntel,58.82352941,,,,,,,,,,,,,,53,punta,,,,,,139.291,140.357,1,0,0.543,,0,69,69,52,1,non_cognate,1,REAL,FALSA
,,,,,,,,,627bfd52e3e0bfd01cd0cad5,001,2025-05-01_11h15.19.720,empathy_intonation_perc,2024.1.4,MacIntel,58.82352941,,,,,,,,,,,,,,124,lobe,,,,,,140.357,141.79,0,1,0.906,,0,70,70,123,1,pseudoword,0,REAL,FALSA
,,,,,,,,,627bfd52e3e0bfd01cd0cad5,001,2025-05-01_11h15.19.720,empathy_intonation_perc,2024.1.4,MacIntel,58.82352941,,,,,,,,,,,,,,102,coyo,,,,,,141.791,142.839,0,1,0.521,,0,71,71,101,1,pseudoword,0,REAL,FALSA
,,,,,,,,,627bfd52e3e0bfd01cd0cad5,001,2025-05-01_11h15.19.720,empathy_intonation_perc,2024.1.4,MacIntel,58.82352941,,,,,,,,,,,,,,130,dubo,,,,,,142.84,144.106,0,1,0.729,,0,72,72,129,1,pseudoword,0,REAL,FALSA
,,,,,,,,,627bfd52e3e0bfd01cd0cad5,001,2025-05-01_11h15.19.720,empathy_intonation_perc,2024.1.4,MacIntel,58.82352941,,,,,,,,,,,,,,162,cengo,,,,,,144.106,145.406,0,1,0.781,,0,73,73,161,1,pseudoword,0,REAL,FALSA
,,,,,,,,,627bfd52e3e0bfd01cd0cad5,001,2025-05-01_11h15.19.720,empathy_intonation_perc,2024.1.4,MacIntel,58.82352941,,,,,,,,,,,,,,47,color,,,,,,145.406,147.072,1,0,1.157,,0,74,74,46,1,two_way_cognate,1,REAL,FALSA
,,,,,,,,,627bfd52e3e0bfd01cd0cad5,001,2025-05-01_11h15.19.720,empathy_intonation_perc,2024.1.4,MacIntel,58.82352941,,,,,,,,,,,,,,49,teñir,,,,,,147.073,148.256,1,0,0.654,,0,75,75,48,1,non_cognate,1,REAL,FALSA
,,,,,,,,,627bfd52e3e0bfd01cd0cad5,001,2025-05-01_11h15.19.720,empathy_intonation_perc,2024.1.4,MacIntel,58.82352941,,,,,,,,,,,,,,3,disco,,,,,,148.257,149.789,1,0,1.008,,0,76,76,2,1,three_way_cognate,1,REAL,FALSA
,,,,,,,,,627bfd52e3e0bfd01cd0cad5,001,2025-05-01_11h15.19.720,empathy_intonation_perc,2024.1.4,MacIntel,58.82352941,,,,,,,,,,,,,,82,brillo,,,,,,149.79,151.223,0,1,0.899,,0,77,77,81,1,non_cognate,1,REAL,FALSA
,,,,,,,,,627bfd52e3e0bfd01cd0cad5,001,2025-05-01_11h15.19.720,empathy_intonation_perc,2024.1.4,MacIntel,58.82352941,,,,,,,,,,,,,,148,gino,,,,,,151.223,152.572,0,1,0.817,,0,78,78,147,1,pseudoword,0,REAL,FALSA
,,,,,,,,,627bfd52e3e0bfd01cd0cad5,001,2025-05-01_11h15.19.720,empathy_intonation_perc,2024.1.4,MacIntel,58.82352941,,,,,,,,,,,,,,178,inichó,,,,,,152.572,153.772,0,1,0.686,,0,79,79,177,1,pseudoword,0,REAL,FALSA
,,,,,,,,,627bfd52e3e0bfd01cd0cad5,001,2025-05-01_11h15.19.720,empathy_intonation_perc,2024.1.4,MacIntel,58.82352941,,,,,,,,,,,,,,66,aleta,,,,,,153.773,155.739,0,1,1.43,,0,80,80,65,1,non_cognate,1,REAL,FALSA
,,,,,,,,,627bfd52e3e0bfd01cd0cad5,001,2025-05-01_11h15.19.720,empathy_intonation_perc,2024.1.4,MacIntel,58.82352941,,,,,,,,,,,,,,140,chorde,,,,,,155.74,156.99,0,1,0.727,,0,81,81,139,1,pseudoword,0,REAL,FALSA
,,,,,,,,,627bfd52e3e0bfd01cd0cad5,001,2025-05-01_11h15.19.720,empathy_intonation_perc,2024.1.4,MacIntel,58.82352941,,,,,,,,,,,,,,14,aura,,,,,,156.991,158.106,1,0,0.581,,0,82,82,13,1,three_way_cognate,1,REAL,FALSA
,,,,,,,,,627bfd52e3e0bfd01cd0cad5,001,2025-05-01_11h15.19.720,empathy_intonation_perc,2024.1.4,MacIntel,58.82352941,,,,,,,,,,,,,,117,morrá,,,,,,158.106,159.589,1,0,0.966,,0,83,83,116,1,pseudoword,0,REAL,FALSA
,,,,,,,,,627bfd52e3e0bfd01cd0cad5,001,2025-05-01_11h15.19.720,empathy_intonation_perc,2024.1.4,MacIntel,58.82352941,,,,,,,,,,,,,,95,listo,,,,,,159.59,160.789,1,0,0.671,,0,84,84,94,1,non_cognate,1,REAL,FALSA
,,,,,,,,,627bfd52e3e0bfd01cd0cad5,001,2025-05-01_11h15.19.720,empathy_intonation_perc,2024.1.4,MacIntel,58.82352941,,,,,,,,,,,,,,104,estulo,,,,,,160.789,162.122,1,0,0.823,,0,85,85,103,1,pseudoword,0,REAL,FALSA
,,,,,,,,,627bfd52e3e0bfd01cd0cad5,001,2025-05-01_11h15.19.720,empathy_intonation_perc,2024.1.4,MacIntel,58.82352941,,,,,,,,,,,,,,40,pelvis,,,,,,162.123,163.456,0,1,0.805,,0,86,86,39,1,two_way_cognate,1,REAL,FALSA
,,,,,,,,,627bfd52e3e0bfd01cd0cad5,001,2025-05-01_11h15.19.720,empathy_intonation_perc,2024.1.4,MacIntel,58.82352941,,,,,,,,,,,,,,103,vueras,,,,,,163.456,164.922,0,1,0.948,,0,87,87,102,1,pseudoword,0,REAL,FALSA
,,,,,,,,,627bfd52e3e0bfd01cd0cad5,001,2025-05-01_11h15.19.720,empathy_intonation_perc,2024.1.4,MacIntel,58.82352941,,,,,,,,,,,,,,145,rúo,,,,,,164.923,166.239,0,1,0.781,,0,88,88,144,1,pseudoword,0,REAL,FALSA
,,,,,,,,,627bfd52e3e0bfd01cd0cad5,001,2025-05-01_11h15.19.720,empathy_intonation_perc,2024.1.4,MacIntel,58.82352941,,,,,,,,,,,,,,128,pelí,,,,,,166.24,167.389,0,1,0.611,,0,89,89,127,1,pseudoword,0,REAL,FALSA
,,,,,,,,,627bfd52e3e0bfd01cd0cad5,001,2025-05-01_11h15.19.720,empathy_intonation_perc,2024.1.4,MacIntel,58.82352941,,,,,,,,,,,,,,36,viable,,,,,,167.39,168.823,0,1,0.911,,0,90,90,35,1,two_way_cognate,1,REAL,FALSA
,,,,,,,,,627bfd52e3e0bfd01cd0cad5,001,2025-05-01_11h15.19.720,empathy_intonation_perc,2024.1.4,MacIntel,58.82352941,,,,,,,,,,,,,,27,piano,,,,,,168.824,170.106,0,1,0.744,,0,91,91,26,1,two_way_cognate,1,REAL,FALSA
,,,,,,,,,627bfd52e3e0bfd01cd0cad5,001,2025-05-01_11h15.19.720,empathy_intonation_perc,2024.1.4,MacIntel,58.82352941,,,,,,,,,,,,,,4,flora,,,,,,170.106,171.872,0,1,1.25,,0,92,92,3,1,three_way_cognate,1,REAL,FALSA
,,,,,,,,,627bfd52e3e0bfd01cd0cad5,001,2025-05-01_11h15.19.720,empathy_intonation_perc,2024.1.4,MacIntel,58.82352941,,,,,,,,,,,,,,98,martir,,,,,,171.873,173.756,1,0,1.345,,0,93,93,97,1,pseudoword,0,REAL,FALSA
,,,,,,,,,627bfd52e3e0bfd01cd0cad5,001,2025-05-01_11h15.19.720,empathy_intonation_perc,2024.1.4,MacIntel,58.82352941,,,,,,,,,,,,,,5,extra,,,,,,173.757,174.989,0,1,0.695,,0,94,94,4,1,three_way_cognate,1,REAL,FALSA
,,,,,,,,,627bfd52e3e0bfd01cd0cad5,001,2025-05-01_11h15.19.720,empathy_intonation_perc,2024.1.4,MacIntel,58.82352941,,,,,,,,,,,,,,21,hotel,,,,,,174.99,176.056,0,1,0.527,,0,95,95,20,1,three_way_cognate,1,REAL,FALSA
,,,,,,,,,627bfd52e3e0bfd01cd0cad5,001,2025-05-01_11h15.19.720,empathy_intonation_perc,2024.1.4,MacIntel,58.82352941,,,,,,,,,,,,,,183,edioso,,,,,,176.058,177.456,1,0,0.869,,0,96,96,182,1,pseudoword,0,REAL,FALSA
,,,,,,,,,627bfd52e3e0bfd01cd0cad5,001,2025-05-01_11h15.19.720,empathy_intonation_perc,2024.1.4,MacIntel,58.82352941,,,,,,,,,,,,,,35,aurora,,,,,,177.457,178.873,1,0,0.881,,0,97,97,34,1,two_way_cognate,1,REAL,FALSA
,,,,,,,,,627bfd52e3e0bfd01cd0cad5,001,2025-05-01_11h15.19.720,empathy_intonation_perc,2024.1.4,MacIntel,58.82352941,,,,,,,,,,,,,,114,dibrea,,,,,,178.873,180.089,0,1,0.688,,0,98,98,113,1,pseudoword,0,REAL,FALSA
,,,,,,,,,627bfd52e3e0bfd01cd0cad5,001,2025-05-01_11h15.19.720,empathy_intonation_perc,2024.1.4,MacIntel,58.82352941,,,,,,,,,,,,,,64,rizado,,,,,,180.09,181.489,1,0,0.861,,0,99,99,63,1,non_cognate,1,REAL,FALSA
,,,,,,,,,627bfd52e3e0bfd01cd0cad5,001,2025-05-01_11h15.19.720,empathy_intonation_perc,2024.1.4,MacIntel,58.82352941,,,,,,,,,,,,,,34,actor,,,,,,181.49,182.689,0,1,0.668,,0,100,100,33,1,two_way_cognate,1,REAL,FALSA
,,,,,,,,,627bfd52e3e0bfd01cd0cad5,001,2025-05-01_11h15.19.720,empathy_intonation_perc,2024.1.4,MacIntel,58.82352941,,,,,,,,,,,,,,99,bugor,,,,,,182.69,184.206,0,1,0.991,,0,101,101,98,1,pseudoword,0,REAL,FALSA
,,,,,,,,,627bfd52e3e0bfd01cd0cad5,001,2025-05-01_11h15.19.720,empathy_intonation_perc,2024.1.4,MacIntel,58.82352941,,,,,,,,,,,,,,182,desaro,,,,,,184.206,185.623,1,0,0.898,,0,102,102,181,1,pseudoword,0,REAL,FALSA
,,,,,,,,,627bfd52e3e0bfd01cd0cad5,001,2025-05-01_11h15.19.720,empathy_intonation_perc,2024.1.4,MacIntel,58.82352941,,,,,,,,,,,,,,46,mortal,,,,,,185.623,186.722,0,1,0.567,,0,103,103,45,1,two_way_cognate,1,REAL,FALSA
,,,,,,,,,627bfd52e3e0bfd01cd0cad5,001,2025-05-01_11h15.19.720,empathy_intonation_perc,2024.1.4,MacIntel,58.82352941,,,,,,,,,,,,,,143,hurcos,,,,,,186.723,187.973,0,1,0.713,,0,104,104,142,1,pseudoword,0,REAL,FALSA
,,,,,,,,,627bfd52e3e0bfd01cd0cad5,001,2025-05-01_11h15.19.720,empathy_intonation_perc,2024.1.4,MacIntel,58.82352941,,,,,,,,,,,,,,174,pabea,,,,,,187.973,189.273,0,1,0.775,,0,105,105,173,1,pseudoword,0,REAL,FALSA
,,,,,,,,,627bfd52e3e0bfd01cd0cad5,001,2025-05-01_11h15.19.720,empathy_intonation_perc,2024.1.4,MacIntel,58.82352941,,,,,,,,,,,,,,147,alla,,,,,,189.274,190.373,1,0,0.577,,0,106,106,146,1,pseudoword,0,REAL,FALSA
,,,,,,,,,627bfd52e3e0bfd01cd0cad5,001,2025-05-01_11h15.19.720,empathy_intonation_perc,2024.1.4,MacIntel,58.82352941,,,,,,,,,,,,,,56,pico,,,,,,190.374,192.089,1,0,1.179,,0,107,107,55,1,non_cognate,1,REAL,FALSA
,,,,,,,,,627bfd52e3e0bfd01cd0cad5,001,2025-05-01_11h15.19.720,empathy_intonation_perc,2024.1.4,MacIntel,58.82352941,,,,,,,,,,,,,,83,hálito,,,,,,192.09,193.323,1,0,0.696,,0,108,108,82,1,non_cognate,1,REAL,FALSA
,,,,,,,,,627bfd52e3e0bfd01cd0cad5,001,2025-05-01_11h15.19.720,empathy_intonation_perc,2024.1.4,MacIntel,58.82352941,,,,,,,,,,,,,,106,diebro,,,,,,193.323,194.957,1,0,1.107,,0,109,109,105,1,pseudoword,0,REAL,FALSA
,,,,,,,,,627bfd52e3e0bfd01cd0cad5,001,2025-05-01_11h15.19.720,empathy_intonation_perc,2024.1.4,MacIntel,58.82352941,,,,,,,,,,,,,,65,guerra,,,,,,194.957,196.206,1,0,0.723,,0,110,110,64,1,non_cognate,1,REAL,FALSA
,,,,,,,,,627bfd52e3e0bfd01cd0cad5,001,2025-05-01_11h15.19.720,empathy_intonation_perc,2024.1.4,MacIntel,58.82352941,,,,,,,,,,,,,,150,cricó,,,,,,196.206,197.422,0,1,0.682,,0,111,111,149,1,pseudoword,0,REAL,FALSA
,,,,,,,,,627bfd52e3e0bfd01cd0cad5,001,2025-05-01_11h15.19.720,empathy_intonation_perc,2024.1.4,MacIntel,58.82352941,,,,,,,,,,,,,,2,tumor,,,,,,197.423,198.656,0,1,0.709,,0,112,112,1,1,three_way_cognate,1,REAL,FALSA
,,,,,,,,,627bfd52e3e0bfd01cd0cad5,001,2025-05-01_11h15.19.720,empathy_intonation_perc,2024.1.4,MacIntel,58.82352941,,,,,,,,,,,,,,132,nocó,,,,,,198.657,200.155,0,1,0.973,,0,113,113,131,1,pseudoword,0,REAL,FALSA
,,,,,,,,,627bfd52e3e0bfd01cd0cad5,001,2025-05-01_11h15.19.720,empathy_intonation_perc,2024.1.4,MacIntel,58.82352941,,,,,,,,,,,,,,176,gripar,,,,,,200.156,201.439,1,0,0.746,,0,114,114,175,1,pseudoword,0,REAL,FALSA
,,,,,,,,,627bfd52e3e0bfd01cd0cad5,001,2025-05-01_11h15.19.720,empathy_intonation_perc,2024.1.4,MacIntel,58.82352941,,,,,,,,,,,,,,9,portal,,,,,,201.44,202.673,0,1,0.71,,0,115,115,8,1,three_way_cognate,1,REAL,FALSA
,,,,,,,,,627bfd52e3e0bfd01cd0cad5,001,2025-05-01_11h15.19.720,empathy_intonation_perc,2024.1.4,MacIntel,58.82352941,,,,,,,,,,,,,,153,golla,,,,,,202.674,203.939,0,1,0.727,,0,116,116,152,1,pseudoword,0,REAL,FALSA
,,,,,,,,,627bfd52e3e0bfd01cd0cad5,001,2025-05-01_11h15.19.720,empathy_intonation_perc,2024.1.4,MacIntel,58.82352941,,,,,,,,,,,,,,43,honor,,,,,,203.939,205.24,0,1,0.791,,0,117,117,42,1,two_way_cognate,1,REAL,FALSA
,,,,,,,,,627bfd52e3e0bfd01cd0cad5,001,2025-05-01_11h15.19.720,empathy_intonation_perc,2024.1.4,MacIntel,58.82352941,,,,,,,,,,,,,,54,tapón,,,,,,205.24,206.289,0,1,0.514,,0,118,118,53,1,non_cognate,1,REAL,FALSA
,,,,,,,,,627bfd52e3e0bfd01cd0cad5,001,2025-05-01_11h15.19.720,empathy_intonation_perc,2024.1.4,MacIntel,58.82352941,,,,,,,,,,,,,,38,halo,,,,,,206.29,207.739,1,0,0.917,,0,119,119,37,1,two_way_cognate,1,REAL,FALSA
,,,,,,,,,627bfd52e3e0bfd01cd0cad5,001,2025-05-01_11h15.19.720,empathy_intonation_perc,2024.1.4,MacIntel,58.82352941,,,,,,,,,,,,,,24,retina,,,,,,207.74,208.872,0,1,0.606,,0,120,120,23,1,three_way_cognate,1,REAL,FALSA
,,,,,,,,,627bfd52e3e0bfd01cd0cad5,001,2025-05-01_11h15.19.720,empathy_intonation_perc,2024.1.4,MacIntel,58.82352941,,,,,,,,,,,,,,97,nocita,,,,,,208.873,210.789,0,1,1.379,,0,121,121,96,1,pseudoword,0,REAL,FALSA
,,,,,,,,,627bfd52e3e0bfd01cd0cad5,001,2025-05-01_11h15.19.720,empathy_intonation_perc,2024.1.4,MacIntel,58.82352941,,,,,,,,,,,,,,190,asumie,,,,,,210.79,212.039,0,1,0.725,,0,122,122,189,1,pseudoword,0,REAL,FALSA
,,,,,,,,,627bfd52e3e0bfd01cd0cad5,001,2025-05-01_11h15.19.720,empathy_intonation_perc,2024.1.4,MacIntel,58.82352941,,,,,,,,,,,,,,88,percha,,,,,,212.04,213.156,0,1,0.584,,0,123,123,87,1,non_cognate,1,REAL,FALSA
,,,,,,,,,627bfd52e3e0bfd01cd0cad5,001,2025-05-01_11h15.19.720,empathy_intonation_perc,2024.1.4,MacIntel,58.82352941,,,,,,,,,,,,,,12,dogma,,,,,,213.156,214.339,1,0,0.646,,0,124,124,11,1,three_way_cognate,1,REAL,FALSA
,,,,,,,,,627bfd52e3e0bfd01cd0cad5,001,2025-05-01_11h15.19.720,empathy_intonation_perc,2024.1.4,MacIntel,58.82352941,,,,,,,,,,,,,,93,tapa,,,,,,214.34,215.472,1,0,0.603,,0,125,125,92,1,non_cognate,1,REAL,FALSA
,,,,,,,,,627bfd52e3e0bfd01cd0cad5,001,2025-05-01_11h15.19.720,empathy_intonation_perc,2024.1.4,MacIntel,58.82352941,,,,,,,,,,,,,,28,ardor,,,,,,215.473,216.639,0,1,0.633,,0,126,126,27,1,two_way_cognate,1,REAL,FALSA
,,,,,,,,,627bfd52e3e0bfd01cd0cad5,001,2025-05-01_11h15.19.720,empathy_intonation_perc,2024.1.4,MacIntel,58.82352941,,,,,,,,,,,,,,109,laras,,,,,,216.64,217.739,0,1,0.564,,0,127,127,108,1,pseudoword,0,REAL,FALSA
,,,,,,,,,627bfd52e3e0bfd01cd0cad5,001,2025-05-01_11h15.19.720,empathy_intonation_perc,2024.1.4,MacIntel,58.82352941,,,,,,,,,,,,,,7,albino,,,,,,217.739,219.139,0,1,0.877,,0,128,128,6,1,three_way_cognate,1,REAL,FALSA
,,,,,,,,,627bfd52e3e0bfd01cd0cad5,001,2025-05-01_11h15.19.720,empathy_intonation_perc,2024.1.4,MacIntel,58.82352941,,,,,,,,,,,,,,166,anfia,,,,,,219.14,220.439,1,0,0.761,,0,129,129,165,1,pseudoword,0,REAL,FALSA
,,,,,,,,,627bfd52e3e0bfd01cd0cad5,001,2025-05-01_11h15.19.720,empathy_intonation_perc,2024.1.4,MacIntel,58.82352941,,,,,,,,,,,,,,119,esís,,,,,,220.44,221.622,1,0,0.649,,0,130,130,118,1,pseudoword,0,REAL,FALSA
,,,,,,,,,627bfd52e3e0bfd01cd0cad5,001,2025-05-01_11h15.19.720,empathy_intonation_perc,2024.1.4,MacIntel,58.82352941,,,,,,,,,,,,,,6,horror,,,,,,221.623,222.672,1,0,0.523,,0,131,131,5,1,three_way_cognate,1,REAL,FALSA
,,,,,,,,,627bfd52e3e0bfd01cd0cad5,001,2025-05-01_11h15.19.720,empathy_intonation_perc,2024.1.4,MacIntel,58.82352941,,,,,,,,,,,,,,122,boñaz,,,,,,222.673,223.822,1,0,0.613,,0,132,132,121,1,pseudoword,0,REAL,FALSA
,,,,,,,,,627bfd52e3e0bfd01cd0cad5,001,2025-05-01_11h15.19.720,empathy_intonation_perc,2024.1.4,MacIntel,58.82352941,,,,,,,,,,,,,,26,enigma,,,,,,223.823,225.006,1,0,0.646,,0,133,133,25,1,two_way_cognate,1,REAL,FALSA
,,,,,,,,,627bfd52e3e0bfd01cd0cad5,001,2025-05-01_11h15.19.720,empathy_intonation_perc,2024.1.4,MacIntel,58.82352941,,,,,,,,,,,,,,92,flecha,,,,,,225.006,226.172,0,1,0.628,,0,134,134,91,1,non_cognate,1,REAL,FALSA
,,,,,,,,,627bfd52e3e0bfd01cd0cad5,001,2025-05-01_11h15.19.720,empathy_intonation_perc,2024.1.4,MacIntel,58.82352941,,,,,,,,,,,,,,76,chocar,,,,,,226.173,227.555,1,0,0.853,,0,135,135,75,1,non_cognate,1,REAL,FALSA
,,,,,,,,,627bfd52e3e0bfd01cd0cad5,001,2025-05-01_11h15.19.720,empathy_intonation_perc,2024.1.4,MacIntel,58.82352941,,,,,,,,,,,,,,41,pasta,,,,,,227.555,228.572,1,0,0.504,,0,136,136,40,1,two_way_cognate,1,REAL,FALSA
,,,,,,,,,627bfd52e3e0bfd01cd0cad5,001,2025-05-01_11h15.19.720,empathy_intonation_perc,2024.1.4,MacIntel,58.82352941,,,,,,,,,,,,,,8,kilo,,,,,,228.573,229.972,1,0,0.873,,0,137,137,7,1,three_way_cognate,1,REAL,FALSA
,,,,,,,,,627bfd52e3e0bfd01cd0cad5,001,2025-05-01_11h15.19.720,empathy_intonation_perc,2024.1.4,MacIntel,58.82352941,,,,,,,,,,,,,,108,jauda,,,,,,229.973,231.305,0,1,0.803,,0,138,138,107,1,pseudoword,0,REAL,FALSA
,,,,,,,,,627bfd52e3e0bfd01cd0cad5,001,2025-05-01_11h15.19.720,empathy_intonation_perc,2024.1.4,MacIntel,58.82352941,,,,,,,,,,,,,,187,nomata,,,,,,231.306,232.672,0,1,0.829,,0,139,139,186,1,pseudoword,0,REAL,FALSA
,,,,,,,,,627bfd52e3e0bfd01cd0cad5,001,2025-05-01_11h15.19.720,empathy_intonation_perc,2024.1.4,MacIntel,58.82352941,,,,,,,,,,,,,,77,suave,,,,,,232.673,233.939,1,0,0.735,,0,140,140,76,1,non_cognate,1,REAL,FALSA
,,,,,,,,,627bfd52e3e0bfd01cd0cad5,001,2025-05-01_11h15.19.720,empathy_intonation_perc,2024.1.4,MacIntel,58.82352941,,,,,,,,,,,,,,30,fiscal,,,,,,233.939,235.122,1,0,0.661,,0,141,141,29,1,two_way_cognate,1,REAL,FALSA
,,,,,,,,,627bfd52e3e0bfd01cd0cad5,001,2025-05-01_11h15.19.720,empathy_intonation_perc,2024.1.4,MacIntel,58.82352941,,,,,,,,,,,,,,60,siglo,,,,,,235.123,236.506,1,0,0.85,,0,142,142,59,1,non_cognate,1,REAL,FALSA
,,,,,,,,,627bfd52e3e0bfd01cd0cad5,001,2025-05-01_11h15.19.720,empathy_intonation_perc,2024.1.4,MacIntel,58.82352941,,,,,,,,,,,,,,33,collar,,,,,,236.506,237.789,0,1,0.744,,0,143,143,32,1,two_way_cognate,1,REAL,FALSA
,,,,,,,,,627bfd52e3e0bfd01cd0cad5,001,2025-05-01_11h15.19.720,empathy_intonation_perc,2024.1.4,MacIntel,58.82352941,,,,,,,,,,,,,,31,civil,,,,,,237.789,239.056,0,1,0.754,,0,144,144,30,1,two_way_cognate,1,REAL,FALSA
,,,,,,,,,627bfd52e3e0bfd01cd0cad5,001,2025-05-01_11h15.19.720,empathy_intonation_perc,2024.1.4,MacIntel,58.82352941,,,,,,,,,,,,,,32,animal,,,,,,239.057,240.54,1,0,0.956,,0,145,145,31,1,two_way_cognate,1,REAL,FALSA
,,,,,,,,,627bfd52e3e0bfd01cd0cad5,001,2025-05-01_11h15.19.720,empathy_intonation_perc,2024.1.4,MacIntel,58.82352941,,,,,,,,,,,,,,189,medium,,,,,,240.541,241.722,0,1,0.647,,0,146,146,188,1,pseudoword,0,REAL,FALSA
,,,,,,,,,627bfd52e3e0bfd01cd0cad5,001,2025-05-01_11h15.19.720,empathy_intonation_perc,2024.1.4,MacIntel,58.82352941,,,,,,,,,,,,,,15,test,,,,,,241.723,243.106,0,1,0.847,,0,147,147,14,1,three_way_cognate,1,REAL,FALSA
,,,,,,,,,627bfd52e3e0bfd01cd0cad5,001,2025-05-01_11h15.19.720,empathy_intonation_perc,2024.1.4,MacIntel,58.82352941,,,,,,,,,,,,,,45,total,,,,,,243.106,244.572,0,1,0.938,,0,148,148,44,1,two_way_cognate,1,REAL,FALSA
,,,,,,,,,627bfd52e3e0bfd01cd0cad5,001,2025-05-01_11h15.19.720,empathy_intonation_perc,2024.1.4,MacIntel,58.82352941,,,,,,,,,,,,,,68,puñal,,,,,,244.573,246.022,1,0,0.913,,0,149,149,67,1,non_cognate,1,REAL,FALSA
,,,,,,,,,627bfd52e3e0bfd01cd0cad5,001,2025-05-01_11h15.19.720,empathy_intonation_perc,2024.1.4,MacIntel,58.82352941,,,,,,,,,,,,,,112,samón,,,,,,246.023,247.205,0,1,0.657,,0,150,150,111,1,pseudoword,0,REAL,FALSA
,,,,,,,,,627bfd52e3e0bfd01cd0cad5,001,2025-05-01_11h15.19.720,empathy_intonation_perc,2024.1.4,MacIntel,58.82352941,,,,,,,,,,,,,,168,cobén,,,,,,247.206,248.272,0,1,0.53,,0,151,151,167,1,pseudoword,0,REAL,FALSA
,,,,,,,,,627bfd52e3e0bfd01cd0cad5,001,2025-05-01_11h15.19.720,empathy_intonation_perc,2024.1.4,MacIntel,58.82352941,,,,,,,,,,,,,,75,patada,,,,,,248.273,249.755,1,0,0.952,,0,152,152,74,1,non_cognate,1,REAL,FALSA
,,,,,,,,,627bfd52e3e0bfd01cd0cad5,001,2025-05-01_11h15.19.720,empathy_intonation_perc,2024.1.4,MacIntel,58.82352941,,,,,,,,,,,,,,123,arane,,,,,,249.756,251.339,1,0,1.045,,0,153,153,122,1,pseudoword,0,REAL,FALSA
,,,,,,,,,627bfd52e3e0bfd01cd0cad5,001,2025-05-01_11h15.19.720,empathy_intonation_perc,2024.1.4,MacIntel,58.82352941,,,,,,,,,,,,,,59,feo,,,,,,251.34,252.705,1,0,0.828,,0,154,154,58,1,non_cognate,1,REAL,FALSA
,,,,,,,,,627bfd52e3e0bfd01cd0cad5,001,2025-05-01_11h15.19.720,empathy_intonation_perc,2024.1.4,MacIntel,58.82352941,,,,,,,,,,,,,,164,tecia,,,,,,252.706,254.223,1,0,0.992,,0,155,155,163,1,pseudoword,0,REAL,FALSA
,,,,,,,,,627bfd52e3e0bfd01cd0cad5,001,2025-05-01_11h15.19.720,empathy_intonation_perc,2024.1.4,MacIntel,58.82352941,,,,,,,,,,,,,,137,trugo,,,,,,254.223,255.405,1,0,0.645,,0,156,156,136,1,pseudoword,0,REAL,FALSA
,,,,,,,,,627bfd52e3e0bfd01cd0cad5,001,2025-05-01_11h15.19.720,empathy_intonation_perc,2024.1.4,MacIntel,58.82352941,,,,,,,,,,,,,,62,pegar,,,,,,255.406,256.539,1,0,0.602,,0,157,157,61,1,non_cognate,1,REAL,FALSA
,,,,,,,,,627bfd52e3e0bfd01cd0cad5,001,2025-05-01_11h15.19.720,empathy_intonation_perc,2024.1.4,MacIntel,58.82352941,,,,,,,,,,,,,,55,maldad,,,,,,256.539,257.856,1,0,0.785,,0,158,158,54,1,non_cognate,1,REAL,FALSA
,,,,,,,,,627bfd52e3e0bfd01cd0cad5,001,2025-05-01_11h15.19.720,empathy_intonation_perc,2024.1.4,MacIntel,58.82352941,,,,,,,,,,,,,,125,ceme,,,,,,257.856,259.073,0,1,0.692,,0,159,159,124,1,pseudoword,0,REAL,FALSA
,,,,,,,,,627bfd52e3e0bfd01cd0cad5,001,2025-05-01_11h15.19.720,empathy_intonation_perc,2024.1.4,MacIntel,58.82352941,,,,,,,,,,,,,,37,torso,,,,,,259.074,260.189,1,0,0.583,,0,160,160,36,1,two_way_cognate,1,REAL,FALSA
,,,,,,,,,627bfd52e3e0bfd01cd0cad5,001,2025-05-01_11h15.19.720,empathy_intonation_perc,2024.1.4,MacIntel,58.82352941,,,,,,,,,,,,,,105,peniz,,,,,,260.189,261.339,0,1,0.615,,0,161,161,104,1,pseudoword,0,REAL,FALSA
,,,,,,,,,627bfd52e3e0bfd01cd0cad5,001,2025-05-01_11h15.19.720,empathy_intonation_perc,2024.1.4,MacIntel,58.82352941,,,,,,,,,,,,,,181,gravés,,,,,,261.34,262.806,0,1,0.943,,0,162,162,180,1,pseudoword,0,REAL,FALSA
,,,,,,,,,627bfd52e3e0bfd01cd0cad5,001,2025-05-01_11h15.19.720,empathy_intonation_perc,2024.1.4,MacIntel,58.82352941,,,,,,,,,,,,,,165,chote,,,,,,262.807,263.872,0,1,0.531,,0,163,163,164,1,pseudoword,0,REAL,FALSA
,,,,,,,,,627bfd52e3e0bfd01cd0cad5,001,2025-05-01_11h15.19.720,empathy_intonation_perc,2024.1.4,MacIntel,58.82352941,,,,,,,,,,,,,,158,babrá,,,,,,263.873,265.205,0,1,0.806,,0,164,164,157,1,pseudoword,0,REAL,FALSA
,,,,,,,,,627bfd52e3e0bfd01cd0cad5,001,2025-05-01_11h15.19.720,empathy_intonation_perc,2024.1.4,MacIntel,58.82352941,,,,,,,,,,,,,,72,rostro,,,,,,265.206,266.54,1,0,0.81,,0,165,165,71,1,non_cognate,1,REAL,FALSA
,,,,,,,,,627bfd52e3e0bfd01cd0cad5,001,2025-05-01_11h15.19.720,empathy_intonation_perc,2024.1.4,MacIntel,58.82352941,,,,,,,,,,,,,,160,fomeó,,,,,,266.541,268.105,1,0,1.037,,0,166,166,159,1,pseudoword,0,REAL,FALSA
,,,,,,,,,627bfd52e3e0bfd01cd0cad5,001,2025-05-01_11h15.19.720,empathy_intonation_perc,2024.1.4,MacIntel,58.82352941,,,,,,,,,,,,,,118,bará,,,,,,268.106,269.439,0,1,0.803,,0,167,167,117,1,pseudoword,0,REAL,FALSA
,,,,,,,,,627bfd52e3e0bfd01cd0cad5,001,2025-05-01_11h15.19.720,empathy_intonation_perc,2024.1.4,MacIntel,58.82352941,,,,,,,,,,,,,,180,pupica,,,,,,269.439,270.539,0,1,0.569,,0,168,168,179,1,pseudoword,0,REAL,FALSA
,,,,,,,,,627bfd52e3e0bfd01cd0cad5,001,2025-05-01_11h15.19.720,empathy_intonation_perc,2024.1.4,MacIntel,58.82352941,,,,,,,,,,,,,,157,seled,,,,,,270.539,271.889,0,1,0.814,,0,169,169,156,1,pseudoword,0,REAL,FALSA
,,,,,,,,,627bfd52e3e0bfd01cd0cad5,001,2025-05-01_11h15.19.720,empathy_intonation_perc,2024.1.4,MacIntel,58.82352941,,,,,,,,,,,,,,13,plan,,,,,,271.889,273.072,0,1,0.671,,0,170,170,12,1,three_way_cognate,1,REAL,FALSA
,,,,,,,,,627bfd52e3e0bfd01cd0cad5,001,2025-05-01_11h15.19.720,empathy_intonation_perc,2024.1.4,MacIntel,58.82352941,,,,,,,,,,,,,,116,grigir,,,,,,273.072,274.173,1,0,0.591,,0,171,171,115,1,pseudoword,0,REAL,FALSA
,,,,,,,,,627bfd52e3e0bfd01cd0cad5,001,2025-05-01_11h15.19.720,empathy_intonation_perc,2024.1.4,MacIntel,58.82352941,,,,,,,,,,,,,,48,pelvis,,,,,,274.173,275.306,0,1,0.61,,0,172,172,47,1,two_way_cognate,1,REAL,FALSA
,,,,,,,,,627bfd52e3e0bfd01cd0cad5,001,2025-05-01_11h15.19.720,empathy_intonation_perc,2024.1.4,MacIntel,58.82352941,,,,,,,,,,,,,,161,civas,,,,,,275.306,276.438,0,1,0.604,,0,173,173,160,1,pseudoword,0,REAL,FALSA
,,,,,,,,,627bfd52e3e0bfd01cd0cad5,001,2025-05-01_11h15.19.720,empathy_intonation_perc,2024.1.4,MacIntel,58.82352941,,,,,,,,,,,,,,175,tradía,,,,,,276.439,277.639,0,1,0.673,,0,174,174,174,1,pseudoword,0,REAL,FALSA
,,,,,,,,,627bfd52e3e0bfd01cd0cad5,001,2025-05-01_11h15.19.720,empathy_intonation_perc,2024.1.4,MacIntel,58.82352941,,,,,,,,,,,,,,171,gotro,,,,,,277.639,278.839,0,1,0.689,,0,175,175,170,1,pseudoword,0,REAL,FALSA
,,,,,,,,,627bfd52e3e0bfd01cd0cad5,001,2025-05-01_11h15.19.720,empathy_intonation_perc,2024.1.4,MacIntel,58.82352941,,,,,,,,,,,,,,152,prave,,,,,,278.839,279.806,0,1,0.441,,0,176,176,151,1,pseudoword,0,REAL,FALSA
,,,,,,,,,627bfd52e3e0bfd01cd0cad5,001,2025-05-01_11h15.19.720,empathy_intonation_perc,2024.1.4,MacIntel,58.82352941,,,,,,,,,,,,,,85,enorme,,,,,,279.806,281.155,0,1,0.813,,0,177,177,84,1,non_cognate,1,REAL,FALSA
,,,,,,,,,627bfd52e3e0bfd01cd0cad5,001,2025-05-01_11h15.19.720,empathy_intonation_perc,2024.1.4,MacIntel,58.82352941,,,,,,,,,,,,,,139,sasos,,,,,,281.156,282.289,0,1,0.61,,0,178,178,138,1,pseudoword,0,REAL,FALSA
,,,,,,,,,627bfd52e3e0bfd01cd0cad5,001,2025-05-01_11h15.19.720,empathy_intonation_perc,2024.1.4,MacIntel,58.82352941,,,,,,,,,,,,,,136,hueas,,,,,,282.29,283.372,0,1,0.546,,0,179,179,135,1,pseudoword,0,REAL,FALSA
,,,,,,,,,627bfd52e3e0bfd01cd0cad5,001,2025-05-01_11h15.19.720,empathy_intonation_perc,2024.1.4,MacIntel,58.82352941,,,,,,,,,,,,,,138,tator,,,,,,283.373,284.622,0,1,0.725,,0,180,180,137,1,pseudoword,0,REAL,FALSA
,,,,,,,,,627bfd52e3e0bfd01cd0cad5,001,2025-05-01_11h15.19.720,empathy_intonation_perc,2024.1.4,MacIntel,58.82352941,,,,,,,,,,,,,,170,diabo,,,,,,284.622,285.84,1,0,0.709,,0,181,181,169,1,pseudoword,0,REAL,FALSA
,,,,,,,,,627bfd52e3e0bfd01cd0cad5,001,2025-05-01_11h15.19.720,empathy_intonation_perc,2024.1.4,MacIntel,58.82352941,,,,,,,,,,,,,,100,épinas,,,,,,285.84,287.089,0,1,0.712,,0,182,182,99,1,pseudoword,0,REAL,FALSA
,,,,,,,,,627bfd52e3e0bfd01cd0cad5,001,2025-05-01_11h15.19.720,empathy_intonation_perc,2024.1.4,MacIntel,58.82352941,,,,,,,,,,,,,,17,clan,,,,,,287.09,288.322,0,1,0.694,,0,183,183,16,1,three_way_cognate,1,REAL,FALSA
,,,,,,,,,627bfd52e3e0bfd01cd0cad5,001,2025-05-01_11h15.19.720,empathy_intonation_perc,2024.1.4,MacIntel,58.82352941,,,,,,,,,,,,,,51,listo,,,,,,288.323,289.322,0,1,0.463,,0,184,184,50,1,non_cognate,1,REAL,FALSA
,,,,,,,,,627bfd52e3e0bfd01cd0cad5,001,2025-05-01_11h15.19.720,empathy_intonation_perc,2024.1.4,MacIntel,58.82352941,,,,,,,,,,,,,,135,panté,,,,,,289.322,290.439,0,1,0.605,,0,185,185,134,1,pseudoword,0,REAL,FALSA
,,,,,,,,,627bfd52e3e0bfd01cd0cad5,001,2025-05-01_11h15.19.720,empathy_intonation_perc,2024.1.4,MacIntel,58.82352941,,,,,,,,,,,,,,184,huenos,,,,,,290.439,291.855,1,0,0.882,,0,186,186,183,1,pseudoword,0,REAL,FALSA
,,,,,,,,,627bfd52e3e0bfd01cd0cad5,001,2025-05-01_11h15.19.720,empathy_intonation_perc,2024.1.4,MacIntel,58.82352941,,,,,,,,,,,,,,50,sierra,,,,,,291.856,293.006,1,0,0.627,,0,187,187,49,1,non_cognate,1,REAL,FALSA
,,,,,,,,,627bfd52e3e0bfd01cd0cad5,001,2025-05-01_11h15.19.720,empathy_intonation_perc,2024.1.4,MacIntel,58.82352941,,,,,,,,,,,,,,86,cuenco,,,,,,293.007,294.272,0,1,0.739,,0,188,188,85,1,non_cognate,1,REAL,FALSA
,,,,,,,,,627bfd52e3e0bfd01cd0cad5,001,2025-05-01_11h15.19.720,empathy_intonation_perc,2024.1.4,MacIntel,58.82352941,,,,,,,,,,,,,,67,llamar,,,,,,294.273,295.489,1,0,0.686,,0,189,189,66,1,non_cognate,1,REAL,FALSA
,,,,,,,,,627bfd52e3e0bfd01cd0cad5,001,2025-05-01_11h15.19.720,empathy_intonation_perc,2024.1.4,MacIntel,58.82352941,,,,,,,,,,,,,,25,vigor,,,,,,295.489,296.522,1,0,0.499,,0,190,190,24,1,two_way_cognate,1,REAL,FALSA
,,,,,,,,,627bfd52e3e0bfd01cd0cad5,001,2025-05-01_11h15.19.720,empathy_intonation_perc,2024.1.4,MacIntel,58.82352941,,,,,,,,,,,,,,142,parre,,,,,,296.522,297.705,0,1,0.667,,0,191,191,141,1,pseudoword,0,REAL,FALSA
