lextale_instructions.started,lextale_instructions.stopped,lextale_instructions_loop.thisRepN,lextale_instructions_loop.thisTrialN,lextale_instructions_loop.thisN,lextale_instructions_loop.thisIndex,lextale_instructions_loop.ran,instructions_text,continue_text,participant,session,date,expName,psychopyVersion,OS,frameRate,lextale_practice.started,lextale_practice.stopped,key_resp_lextale_practice.keys,key_resp_lextale_practice.corr,key_resp_lextale_practice.rt,key_resp_lextale_practice.duration,lextale_practice_feedback.started,lextale_practice_feedback.stopped,lextale_practice_trials.thisRepN,lextale_practice_trials.thisTrialN,lextale_practice_trials.thisN,lextale_practice_trials.thisIndex,lextale_practice_trials.ran,stim,word,correct_response,prac_button_real,prac_button_false,lextale_check.started,lextale_check.stopped,lextale_trial.started,lextale_trial.stopped,key_resp_lextale_trial.keys,key_resp_lextale_trial.corr,key_resp_lextale_trial.rt,key_resp_lextale_trial.duration,lextail_trials.thisRepN,lextail_trials.thisTrialN,lextail_trials.thisN,lextail_trials.thisIndex,lextail_trials.ran,type,correct_reponse,button_real,button_false
0.004,9.868,0,0,0,0,1,"Este es un test de vocabulario en español. 
  
  A continuación vas a ver 90 secuencias de letras que parecen 'españolas'.
  
  Solo algunas de ellas son palabras de verdad.",(presiona la barra espaciadora para continuar),627bbf61f416d87703e62ba5,001,2025-05-04_17h06.08.084,empathy_intonation_perc,2024.1.4,Win32,60.0240096,,,,,,,,,,,,,,,,,,,,,,,,,,,,,,,,,,,
9.869,19.226,0,1,1,1,1,"Por favor, señala las palabras que tú conoces (aquellas que estás convencido que son palabras españolas, incluso aunque no seas capaz de dar el significado preciso).",(presiona la barra espaciadora para continuar),627bbf61f416d87703e62ba5,001,2025-05-04_17h06.08.084,empathy_intonation_perc,2024.1.4,Win32,60.0240096,,,,,,,,,,,,,,,,,,,,,,,,,,,,,,,,,,,
19.227,30.441,0,2,2,2,1,Pero cuidado: los errores se penalizan. Por eso no tiene sentido tratar de incrementar tu puntuación marcando como reales palabras que nunca has visto.,(presiona la barra espaciadora para continuar),627bbf61f416d87703e62ba5,001,2025-05-04_17h06.08.084,empathy_intonation_perc,2024.1.4,Win32,60.0240096,,,,,,,,,,,,,,,,,,,,,,,,,,,,,,,,,,,
30.443,42.602,0,3,3,3,1,"Presiona la tecla 1 si piensas que es una palabra real y la tecla 
  0 si piensas que es una palabra falsa. 
  
  Vamos a practicar un poco...",(presiona la barra espaciadora para continuar),627bbf61f416d87703e62ba5,001,2025-05-04_17h06.08.084,empathy_intonation_perc,2024.1.4,Win32,60.0240096,,,,,,,,,,,,,,,,,,,,,,,,,,,,,,,,,,,
,,,,,,,,,627bbf61f416d87703e62ba5,001,2025-05-04_17h06.08.084,empathy_intonation_perc,2024.1.4,Win32,60.0240096,42.608,46.15,0,1,2.996,,46.15,47.15,0,0,0,0,1,0,depiste,0,REAL,FALSA,,,,,,,,,,,,,,,,,
,,,,,,,,,627bbf61f416d87703e62ba5,001,2025-05-04_17h06.08.084,empathy_intonation_perc,2024.1.4,Win32,60.0240096,47.151,50.549,1,1,2.864,,50.549,51.547,0,1,1,1,1,0,sí,1,REAL,FALSA,,,,,,,,,,,,,,,,,
,,,,,,,,,627bbf61f416d87703e62ba5,001,2025-05-04_17h06.08.084,empathy_intonation_perc,2024.1.4,Win32,60.0240096,51.548,54.68,0,1,2.609,,54.68,55.681,0,2,2,2,1,0,coné,0,REAL,FALSA,,,,,,,,,,,,,,,,,
,,,,,,,,,627bbf61f416d87703e62ba5,001,2025-05-04_17h06.08.084,empathy_intonation_perc,2024.1.4,Win32,60.0240096,55.682,57.38,0,1,1.154,,57.38,58.379,0,3,3,3,1,0,calpar,0,REAL,FALSA,,,,,,,,,,,,,,,,,
,,,,,,,,,627bbf61f416d87703e62ba5,001,2025-05-04_17h06.08.084,empathy_intonation_perc,2024.1.4,Win32,60.0240096,58.38,59.912,0,1,0.989,,59.912,60.912,0,4,4,4,1,0,joten,0,REAL,FALSA,,,,,,,,,,,,,,,,,
,,,,,,,,,627bbf61f416d87703e62ba5,001,2025-05-04_17h06.08.084,empathy_intonation_perc,2024.1.4,Win32,60.0240096,60.913,63.329,1,1,1.866,,63.33,64.327,0,5,5,5,1,0,sacapuntas,1,REAL,FALSA,,,,,,,,,,,,,,,,,
,,,,,,,,,627bbf61f416d87703e62ba5,001,2025-05-04_17h06.08.084,empathy_intonation_perc,2024.1.4,Win32,60.0240096,64.33,65.794,0,1,0.915,,65.795,66.793,0,6,6,6,1,0,priba,0,REAL,FALSA,,,,,,,,,,,,,,,,,
,,,,,,,,,627bbf61f416d87703e62ba5,001,2025-05-04_17h06.08.084,empathy_intonation_perc,2024.1.4,Win32,60.0240096,66.795,70.208,0,1,2.874,,70.208,71.208,0,7,7,7,1,0,pelasula,0,REAL,FALSA,,,,,,,,,,,,,,,,,
,,,,,,,,,627bbf61f416d87703e62ba5,001,2025-05-04_17h06.08.084,empathy_intonation_perc,2024.1.4,Win32,60.0240096,71.209,72.474,1,1,0.717,,72.474,73.473,0,8,8,8,1,0,bien,1,REAL,FALSA,,,,,,,,,,,,,,,,,
,,,,,,,,,627bbf61f416d87703e62ba5,001,2025-05-04_17h06.08.084,empathy_intonation_perc,2024.1.4,Win32,60.0240096,73.474,74.973,1,1,0.95,,74.973,75.973,0,9,9,9,1,0,casa,1,REAL,FALSA,,,,,,,,,,,,,,,,,
,,,,,,,,,627bbf61f416d87703e62ba5,001,2025-05-04_17h06.08.084,empathy_intonation_perc,2024.1.4,Win32,60.0240096,75.974,77.606,1,0,1.096,,77.606,78.605,0,10,10,10,1,0,lejo,0,REAL,FALSA,,,,,,,,,,,,,,,,,
,,,,,,,,,627bbf61f416d87703e62ba5,001,2025-05-04_17h06.08.084,empathy_intonation_perc,2024.1.4,Win32,60.0240096,78.607,80.255,0,1,1.1,,80.255,81.254,0,11,11,11,1,0,pretantas,0,REAL,FALSA,,,,,,,,,,,,,,,,,
,,,,,,,,,627bbf61f416d87703e62ba5,001,2025-05-04_17h06.08.084,empathy_intonation_perc,2024.1.4,Win32,60.0240096,,,,,,,,,,,,,,,,,,,81.255,84.237,,,,,,,,,,,,,,,
,,,,,,,,,627bbf61f416d87703e62ba5,001,2025-05-04_17h06.08.084,empathy_intonation_perc,2024.1.4,Win32,60.0240096,,,,,,,,,,,,,,119,esís,,,,,,84.251,85.937,0,1,1.152,,0,0,0,118,1,pseudoword,0,REAL,FALSA
,,,,,,,,,627bbf61f416d87703e62ba5,001,2025-05-04_17h06.08.084,empathy_intonation_perc,2024.1.4,Win32,60.0240096,,,,,,,,,,,,,,101,losco,,,,,,85.938,87.802,0,1,1.331,,0,1,1,100,1,pseudoword,0,REAL,FALSA
,,,,,,,,,627bbf61f416d87703e62ba5,001,2025-05-04_17h06.08.084,empathy_intonation_perc,2024.1.4,Win32,60.0240096,,,,,,,,,,,,,,184,huenos,,,,,,87.802,89.685,1,0,1.361,,0,2,2,183,1,pseudoword,0,REAL,FALSA
,,,,,,,,,627bbf61f416d87703e62ba5,001,2025-05-04_17h06.08.084,empathy_intonation_perc,2024.1.4,Win32,60.0240096,,,,,,,,,,,,,,134,molor,,,,,,89.686,91.517,0,1,1.295,,0,3,3,133,1,pseudoword,0,REAL,FALSA
,,,,,,,,,627bbf61f416d87703e62ba5,001,2025-05-04_17h06.08.084,empathy_intonation_perc,2024.1.4,Win32,60.0240096,,,,,,,,,,,,,,173,mibro,,,,,,91.518,93.137,0,1,1.079,,0,4,4,172,1,pseudoword,0,REAL,FALSA
,,,,,,,,,627bbf61f416d87703e62ba5,001,2025-05-04_17h06.08.084,empathy_intonation_perc,2024.1.4,Win32,60.0240096,,,,,,,,,,,,,,157,seled,,,,,,93.139,95.35,0,1,1.664,,0,5,5,156,1,pseudoword,0,REAL,FALSA
,,,,,,,,,627bbf61f416d87703e62ba5,001,2025-05-04_17h06.08.084,empathy_intonation_perc,2024.1.4,Win32,60.0240096,,,,,,,,,,,,,,171,gotro,,,,,,95.351,96.882,0,1,0.991,,0,6,6,170,1,pseudoword,0,REAL,FALSA
,,,,,,,,,627bbf61f416d87703e62ba5,001,2025-05-04_17h06.08.084,empathy_intonation_perc,2024.1.4,Win32,60.0240096,,,,,,,,,,,,,,177,entodo,,,,,,96.884,99.687,0,1,2.256,,0,7,7,176,1,pseudoword,0,REAL,FALSA
,,,,,,,,,627bbf61f416d87703e62ba5,001,2025-05-04_17h06.08.084,empathy_intonation_perc,2024.1.4,Win32,60.0240096,,,,,,,,,,,,,,34,actor,,,,,,99.688,101.165,1,0,0.934,,0,8,8,33,1,two_way_cognate,1,REAL,FALSA
,,,,,,,,,627bbf61f416d87703e62ba5,001,2025-05-04_17h06.08.084,empathy_intonation_perc,2024.1.4,Win32,60.0240096,,,,,,,,,,,,,,111,monue,,,,,,101.166,103.048,0,1,1.331,,0,9,9,110,1,pseudoword,0,REAL,FALSA
,,,,,,,,,627bbf61f416d87703e62ba5,001,2025-05-04_17h06.08.084,empathy_intonation_perc,2024.1.4,Win32,60.0240096,,,,,,,,,,,,,,182,desaro,,,,,,103.048,105.497,0,1,1.899,,0,10,10,181,1,pseudoword,0,REAL,FALSA
,,,,,,,,,627bbf61f416d87703e62ba5,001,2025-05-04_17h06.08.084,empathy_intonation_perc,2024.1.4,Win32,60.0240096,,,,,,,,,,,,,,14,aura,,,,,,105.498,106.962,1,0,0.917,,0,11,11,13,1,three_way_cognate,1,REAL,FALSA
,,,,,,,,,627bbf61f416d87703e62ba5,001,2025-05-04_17h06.08.084,empathy_intonation_perc,2024.1.4,Win32,60.0240096,,,,,,,,,,,,,,65,guerra,,,,,,106.963,108.512,1,0,1.008,,0,12,12,64,1,non_cognate,1,REAL,FALSA
,,,,,,,,,627bbf61f416d87703e62ba5,001,2025-05-04_17h06.08.084,empathy_intonation_perc,2024.1.4,Win32,60.0240096,,,,,,,,,,,,,,96,caro,,,,,,108.513,110.228,1,0,1.167,,0,13,13,95,1,non_cognate,1,REAL,FALSA
,,,,,,,,,627bbf61f416d87703e62ba5,001,2025-05-04_17h06.08.084,empathy_intonation_perc,2024.1.4,Win32,60.0240096,,,,,,,,,,,,,,126,tobre,,,,,,110.228,111.615,0,1,0.846,,0,14,14,125,1,pseudoword,0,REAL,FALSA
,,,,,,,,,627bbf61f416d87703e62ba5,001,2025-05-04_17h06.08.084,empathy_intonation_perc,2024.1.4,Win32,60.0240096,,,,,,,,,,,,,,47,color,,,,,,111.615,113.094,1,0,0.942,,0,15,15,46,1,two_way_cognate,1,REAL,FALSA
,,,,,,,,,627bbf61f416d87703e62ba5,001,2025-05-04_17h06.08.084,empathy_intonation_perc,2024.1.4,Win32,60.0240096,,,,,,,,,,,,,,168,cobén,,,,,,113.095,114.56,0,1,0.923,,0,16,16,167,1,pseudoword,0,REAL,FALSA
,,,,,,,,,627bbf61f416d87703e62ba5,001,2025-05-04_17h06.08.084,empathy_intonation_perc,2024.1.4,Win32,60.0240096,,,,,,,,,,,,,,83,hálito,,,,,,114.561,116.259,0,1,1.155,,0,17,17,82,1,non_cognate,1,REAL,FALSA
,,,,,,,,,627bbf61f416d87703e62ba5,001,2025-05-04_17h06.08.084,empathy_intonation_perc,2024.1.4,Win32,60.0240096,,,,,,,,,,,,,,112,samón,,,,,,116.26,118.125,0,1,1.324,,0,18,18,111,1,pseudoword,0,REAL,FALSA
,,,,,,,,,627bbf61f416d87703e62ba5,001,2025-05-04_17h06.08.084,empathy_intonation_perc,2024.1.4,Win32,60.0240096,,,,,,,,,,,,,,80,cuenco,,,,,,118.126,120.275,0,1,1.607,,0,19,19,79,1,non_cognate,1,REAL,FALSA
,,,,,,,,,627bbf61f416d87703e62ba5,001,2025-05-04_17h06.08.084,empathy_intonation_perc,2024.1.4,Win32,60.0240096,,,,,,,,,,,,,,120,mauja,,,,,,120.276,121.906,0,1,1.093,,0,20,20,119,1,pseudoword,0,REAL,FALSA
,,,,,,,,,627bbf61f416d87703e62ba5,001,2025-05-04_17h06.08.084,empathy_intonation_perc,2024.1.4,Win32,60.0240096,,,,,,,,,,,,,,21,hotel,,,,,,121.907,123.342,1,0,0.896,,0,21,21,20,1,three_way_cognate,1,REAL,FALSA
,,,,,,,,,627bbf61f416d87703e62ba5,001,2025-05-04_17h06.08.084,empathy_intonation_perc,2024.1.4,Win32,60.0240096,,,,,,,,,,,,,,93,tapa,,,,,,123.344,126.206,0,1,2.328,,0,22,22,92,1,non_cognate,1,REAL,FALSA
,,,,,,,,,627bbf61f416d87703e62ba5,001,2025-05-04_17h06.08.084,empathy_intonation_perc,2024.1.4,Win32,60.0240096,,,,,,,,,,,,,,20,trauma,,,,,,126.208,128.005,1,0,1.259,,0,23,23,19,1,three_way_cognate,1,REAL,FALSA
,,,,,,,,,627bbf61f416d87703e62ba5,001,2025-05-04_17h06.08.084,empathy_intonation_perc,2024.1.4,Win32,60.0240096,,,,,,,,,,,,,,102,coyo,,,,,,128.007,129.689,0,1,1.131,,0,24,24,101,1,pseudoword,0,REAL,FALSA
,,,,,,,,,627bbf61f416d87703e62ba5,001,2025-05-04_17h06.08.084,empathy_intonation_perc,2024.1.4,Win32,60.0240096,,,,,,,,,,,,,,74,ala,,,,,,129.689,131.887,0,1,1.666,,0,25,25,73,1,non_cognate,1,REAL,FALSA
,,,,,,,,,627bbf61f416d87703e62ba5,001,2025-05-04_17h06.08.084,empathy_intonation_perc,2024.1.4,Win32,60.0240096,,,,,,,,,,,,,,145,rúo,,,,,,131.888,134.169,0,1,1.746,,0,26,26,144,1,pseudoword,0,REAL,FALSA
,,,,,,,,,627bbf61f416d87703e62ba5,001,2025-05-04_17h06.08.084,empathy_intonation_perc,2024.1.4,Win32,60.0240096,,,,,,,,,,,,,,75,patada,,,,,,134.17,136.102,1,0,1.375,,0,27,27,74,1,non_cognate,1,REAL,FALSA
,,,,,,,,,627bbf61f416d87703e62ba5,001,2025-05-04_17h06.08.084,empathy_intonation_perc,2024.1.4,Win32,60.0240096,,,,,,,,,,,,,,179,suelet,,,,,,136.104,137.519,0,1,0.876,,0,28,28,178,1,pseudoword,0,REAL,FALSA
,,,,,,,,,627bbf61f416d87703e62ba5,001,2025-05-04_17h06.08.084,empathy_intonation_perc,2024.1.4,Win32,60.0240096,,,,,,,,,,,,,,17,clan,,,,,,137.52,138.968,1,0,0.911,,0,29,29,16,1,three_way_cognate,1,REAL,FALSA
,,,,,,,,,627bbf61f416d87703e62ba5,001,2025-05-04_17h06.08.084,empathy_intonation_perc,2024.1.4,Win32,60.0240096,,,,,,,,,,,,,,159,trcia,,,,,,138.969,140.6,0,1,1.087,,0,30,30,158,1,pseudoword,0,REAL,FALSA
,,,,,,,,,627bbf61f416d87703e62ba5,001,2025-05-04_17h06.08.084,empathy_intonation_perc,2024.1.4,Win32,60.0240096,,,,,,,,,,,,,,189,medium,,,,,,140.602,142.036,1,0,0.896,,0,31,31,188,1,pseudoword,0,REAL,FALSA
,,,,,,,,,627bbf61f416d87703e62ba5,001,2025-05-04_17h06.08.084,empathy_intonation_perc,2024.1.4,Win32,60.0240096,,,,,,,,,,,,,,146,gió,,,,,,142.037,145.383,0,1,2.814,,0,32,32,145,1,pseudoword,0,REAL,FALSA
,,,,,,,,,627bbf61f416d87703e62ba5,001,2025-05-04_17h06.08.084,empathy_intonation_perc,2024.1.4,Win32,60.0240096,,,,,,,,,,,,,,70,ánimo,,,,,,145.384,147.665,1,0,1.745,,0,33,33,69,1,non_cognate,1,REAL,FALSA
,,,,,,,,,627bbf61f416d87703e62ba5,001,2025-05-04_17h06.08.084,empathy_intonation_perc,2024.1.4,Win32,60.0240096,,,,,,,,,,,,,,46,mortal,,,,,,147.666,149.415,1,0,1.21,,0,34,34,45,1,two_way_cognate,1,REAL,FALSA
,,,,,,,,,627bbf61f416d87703e62ba5,001,2025-05-04_17h06.08.084,empathy_intonation_perc,2024.1.4,Win32,60.0240096,,,,,,,,,,,,,,88,percha,,,,,,149.415,151.948,0,1,1.989,,0,35,35,87,1,non_cognate,1,REAL,FALSA
,,,,,,,,,627bbf61f416d87703e62ba5,001,2025-05-04_17h06.08.084,empathy_intonation_perc,2024.1.4,Win32,60.0240096,,,,,,,,,,,,,,87,muleta,,,,,,151.949,153.93,1,0,1.45,,0,36,36,86,1,non_cognate,1,REAL,FALSA
,,,,,,,,,627bbf61f416d87703e62ba5,001,2025-05-04_17h06.08.084,empathy_intonation_perc,2024.1.4,Win32,60.0240096,,,,,,,,,,,,,,152,prave,,,,,,153.931,155.498,0,1,1.019,,0,37,37,151,1,pseudoword,0,REAL,FALSA
,,,,,,,,,627bbf61f416d87703e62ba5,001,2025-05-04_17h06.08.084,empathy_intonation_perc,2024.1.4,Win32,60.0240096,,,,,,,,,,,,,,99,bugor,,,,,,155.501,156.829,0,1,0.783,,0,38,38,98,1,pseudoword,0,REAL,FALSA
,,,,,,,,,627bbf61f416d87703e62ba5,001,2025-05-04_17h06.08.084,empathy_intonation_perc,2024.1.4,Win32,60.0240096,,,,,,,,,,,,,,180,pupica,,,,,,156.829,158.628,0,1,1.254,,0,39,39,179,1,pseudoword,0,REAL,FALSA
,,,,,,,,,627bbf61f416d87703e62ba5,001,2025-05-04_17h06.08.084,empathy_intonation_perc,2024.1.4,Win32,60.0240096,,,,,,,,,,,,,,109,laras,,,,,,158.63,160.894,0,1,1.723,,0,40,40,108,1,pseudoword,0,REAL,FALSA
,,,,,,,,,627bbf61f416d87703e62ba5,001,2025-05-04_17h06.08.084,empathy_intonation_perc,2024.1.4,Win32,60.0240096,,,,,,,,,,,,,,141,virios,,,,,,160.895,162.759,0,1,1.331,,0,41,41,140,1,pseudoword,0,REAL,FALSA
,,,,,,,,,627bbf61f416d87703e62ba5,001,2025-05-04_17h06.08.084,empathy_intonation_perc,2024.1.4,Win32,60.0240096,,,,,,,,,,,,,,100,épinas,,,,,,162.761,165.11,1,0,1.809,,0,42,42,99,1,pseudoword,0,REAL,FALSA
,,,,,,,,,627bbf61f416d87703e62ba5,001,2025-05-04_17h06.08.084,empathy_intonation_perc,2024.1.4,Win32,60.0240096,,,,,,,,,,,,,,81,sacar,,,,,,165.111,166.726,1,0,1.077,,0,43,43,80,1,non_cognate,1,REAL,FALSA
,,,,,,,,,627bbf61f416d87703e62ba5,001,2025-05-04_17h06.08.084,empathy_intonation_perc,2024.1.4,Win32,60.0240096,,,,,,,,,,,,,,164,tecia,,,,,,166.726,167.992,0,1,0.728,,0,44,44,163,1,pseudoword,0,REAL,FALSA
,,,,,,,,,627bbf61f416d87703e62ba5,001,2025-05-04_17h06.08.084,empathy_intonation_perc,2024.1.4,Win32,60.0240096,,,,,,,,,,,,,,163,llzan,,,,,,167.993,169.524,0,1,0.988,,0,45,45,162,1,pseudoword,0,REAL,FALSA
,,,,,,,,,627bbf61f416d87703e62ba5,001,2025-05-04_17h06.08.084,empathy_intonation_perc,2024.1.4,Win32,60.0240096,,,,,,,,,,,,,,24,retina,,,,,,169.525,171.007,1,0,0.943,,0,46,46,23,1,three_way_cognate,1,REAL,FALSA
,,,,,,,,,627bbf61f416d87703e62ba5,001,2025-05-04_17h06.08.084,empathy_intonation_perc,2024.1.4,Win32,60.0240096,,,,,,,,,,,,,,107,plago,,,,,,171.008,174.205,0,1,2.647,,0,47,47,106,1,pseudoword,0,REAL,FALSA
,,,,,,,,,627bbf61f416d87703e62ba5,001,2025-05-04_17h06.08.084,empathy_intonation_perc,2024.1.4,Win32,60.0240096,,,,,,,,,,,,,,151,prías,,,,,,174.206,175.905,0,1,1.175,,0,48,48,150,1,pseudoword,0,REAL,FALSA
,,,,,,,,,627bbf61f416d87703e62ba5,001,2025-05-04_17h06.08.084,empathy_intonation_perc,2024.1.4,Win32,60.0240096,,,,,,,,,,,,,,114,dibrea,,,,,,175.906,177.489,0,1,1.04,,0,49,49,113,1,pseudoword,0,REAL,FALSA
,,,,,,,,,627bbf61f416d87703e62ba5,001,2025-05-04_17h06.08.084,empathy_intonation_perc,2024.1.4,Win32,60.0240096,,,,,,,,,,,,,,147,alla,,,,,,177.489,179.32,1,0,1.301,,0,50,50,146,1,pseudoword,0,REAL,FALSA
,,,,,,,,,627bbf61f416d87703e62ba5,001,2025-05-04_17h06.08.084,empathy_intonation_perc,2024.1.4,Win32,60.0240096,,,,,,,,,,,,,,135,panté,,,,,,179.321,180.588,0,1,0.747,,0,51,51,134,1,pseudoword,0,REAL,FALSA
,,,,,,,,,627bbf61f416d87703e62ba5,001,2025-05-04_17h06.08.084,empathy_intonation_perc,2024.1.4,Win32,60.0240096,,,,,,,,,,,,,,105,peniz,,,,,,180.588,184.186,1,0,3.065,,0,52,52,104,1,pseudoword,0,REAL,FALSA
,,,,,,,,,627bbf61f416d87703e62ba5,001,2025-05-04_17h06.08.084,empathy_intonation_perc,2024.1.4,Win32,60.0240096,,,,,,,,,,,,,,36,viable,,,,,,184.187,185.619,0,1,0.9,,0,53,53,35,1,two_way_cognate,1,REAL,FALSA
,,,,,,,,,627bbf61f416d87703e62ba5,001,2025-05-04_17h06.08.084,empathy_intonation_perc,2024.1.4,Win32,60.0240096,,,,,,,,,,,,,,160,fomeó,,,,,,185.62,187.469,0,1,1.307,,0,54,54,159,1,pseudoword,0,REAL,FALSA
,,,,,,,,,627bbf61f416d87703e62ba5,001,2025-05-04_17h06.08.084,empathy_intonation_perc,2024.1.4,Win32,60.0240096,,,,,,,,,,,,,,131,fuar,,,,,,187.47,189.435,0,1,1.431,,0,55,55,130,1,pseudoword,0,REAL,FALSA
,,,,,,,,,627bbf61f416d87703e62ba5,001,2025-05-04_17h06.08.084,empathy_intonation_perc,2024.1.4,Win32,60.0240096,,,,,,,,,,,,,,172,dogue,,,,,,189.439,190.934,0,1,0.964,,0,56,56,171,1,pseudoword,0,REAL,FALSA
,,,,,,,,,627bbf61f416d87703e62ba5,001,2025-05-04_17h06.08.084,empathy_intonation_perc,2024.1.4,Win32,60.0240096,,,,,,,,,,,,,,35,aurora,,,,,,190.935,193.966,1,0,2.482,,0,57,57,34,1,two_way_cognate,1,REAL,FALSA
,,,,,,,,,627bbf61f416d87703e62ba5,001,2025-05-04_17h06.08.084,empathy_intonation_perc,2024.1.4,Win32,60.0240096,,,,,,,,,,,,,,143,hurcos,,,,,,193.967,195.349,0,1,0.843,,0,58,58,142,1,pseudoword,0,REAL,FALSA
,,,,,,,,,627bbf61f416d87703e62ba5,001,2025-05-04_17h06.08.084,empathy_intonation_perc,2024.1.4,Win32,60.0240096,,,,,,,,,,,,,,136,hueas,,,,,,195.35,198.181,1,0,2.291,,0,59,59,135,1,pseudoword,0,REAL,FALSA
,,,,,,,,,627bbf61f416d87703e62ba5,001,2025-05-04_17h06.08.084,empathy_intonation_perc,2024.1.4,Win32,60.0240096,,,,,,,,,,,,,,158,babrá,,,,,,198.182,199.447,0,1,0.721,,0,60,60,157,1,pseudoword,0,REAL,FALSA
,,,,,,,,,627bbf61f416d87703e62ba5,001,2025-05-04_17h06.08.084,empathy_intonation_perc,2024.1.4,Win32,60.0240096,,,,,,,,,,,,,,5,extra,,,,,,199.449,200.981,1,0,0.986,,0,61,61,4,1,three_way_cognate,1,REAL,FALSA
,,,,,,,,,627bbf61f416d87703e62ba5,001,2025-05-04_17h06.08.084,empathy_intonation_perc,2024.1.4,Win32,60.0240096,,,,,,,,,,,,,,97,nocita,,,,,,200.982,202.88,0,1,1.354,,0,62,62,96,1,pseudoword,0,REAL,FALSA
,,,,,,,,,627bbf61f416d87703e62ba5,001,2025-05-04_17h06.08.084,empathy_intonation_perc,2024.1.4,Win32,60.0240096,,,,,,,,,,,,,,110,densó,,,,,,202.882,204.379,0,1,0.962,,0,63,63,109,1,pseudoword,0,REAL,FALSA
,,,,,,,,,627bbf61f416d87703e62ba5,001,2025-05-04_17h06.08.084,empathy_intonation_perc,2024.1.4,Win32,60.0240096,,,,,,,,,,,,,,165,chote,,,,,,204.38,205.828,0,1,0.909,,0,64,64,164,1,pseudoword,0,REAL,FALSA
,,,,,,,,,627bbf61f416d87703e62ba5,001,2025-05-04_17h06.08.084,empathy_intonation_perc,2024.1.4,Win32,60.0240096,,,,,,,,,,,,,,37,torso,,,,,,205.829,207.478,1,0,1.105,,0,65,65,36,1,two_way_cognate,1,REAL,FALSA
,,,,,,,,,627bbf61f416d87703e62ba5,001,2025-05-04_17h06.08.084,empathy_intonation_perc,2024.1.4,Win32,60.0240096,,,,,,,,,,,,,,68,puñal,,,,,,207.479,209.177,0,1,1.148,,0,66,66,67,1,non_cognate,1,REAL,FALSA
,,,,,,,,,627bbf61f416d87703e62ba5,001,2025-05-04_17h06.08.084,empathy_intonation_perc,2024.1.4,Win32,60.0240096,,,,,,,,,,,,,,76,chocar,,,,,,209.178,211.261,0,1,1.548,,0,67,67,75,1,non_cognate,1,REAL,FALSA
,,,,,,,,,627bbf61f416d87703e62ba5,001,2025-05-04_17h06.08.084,empathy_intonation_perc,2024.1.4,Win32,60.0240096,,,,,,,,,,,,,,2,tumor,,,,,,211.263,212.627,1,0,0.823,,0,68,68,1,1,three_way_cognate,1,REAL,FALSA
,,,,,,,,,627bbf61f416d87703e62ba5,001,2025-05-04_17h06.08.084,empathy_intonation_perc,2024.1.4,Win32,60.0240096,,,,,,,,,,,,,,16,chat,,,,,,212.628,214.892,1,0,1.722,,0,69,69,15,1,three_way_cognate,1,REAL,FALSA
,,,,,,,,,627bbf61f416d87703e62ba5,001,2025-05-04_17h06.08.084,empathy_intonation_perc,2024.1.4,Win32,60.0240096,,,,,,,,,,,,,,32,animal,,,,,,214.893,216.291,1,0,0.863,,0,70,70,31,1,two_way_cognate,1,REAL,FALSA
,,,,,,,,,627bbf61f416d87703e62ba5,001,2025-05-04_17h06.08.084,empathy_intonation_perc,2024.1.4,Win32,60.0240096,,,,,,,,,,,,,,91,equipo,,,,,,216.292,219.307,1,0,2.463,,0,71,71,90,1,non_cognate,1,REAL,FALSA
,,,,,,,,,627bbf61f416d87703e62ba5,001,2025-05-04_17h06.08.084,empathy_intonation_perc,2024.1.4,Win32,60.0240096,,,,,,,,,,,,,,39,casual,,,,,,219.308,221.041,1,0,1.193,,0,72,72,38,1,two_way_cognate,1,REAL,FALSA
,,,,,,,,,627bbf61f416d87703e62ba5,001,2025-05-04_17h06.08.084,empathy_intonation_perc,2024.1.4,Win32,60.0240096,,,,,,,,,,,,,,55,maldad,,,,,,221.042,222.623,0,1,1.038,,0,73,73,54,1,non_cognate,1,REAL,FALSA
,,,,,,,,,627bbf61f416d87703e62ba5,001,2025-05-04_17h06.08.084,empathy_intonation_perc,2024.1.4,Win32,60.0240096,,,,,,,,,,,,,,156,ozoso,,,,,,222.627,224.756,0,1,1.595,,0,74,74,155,1,pseudoword,0,REAL,FALSA
,,,,,,,,,627bbf61f416d87703e62ba5,001,2025-05-04_17h06.08.084,empathy_intonation_perc,2024.1.4,Win32,60.0240096,,,,,,,,,,,,,,84,aviso,,,,,,224.756,226.421,0,1,1.115,,0,75,75,83,1,non_cognate,1,REAL,FALSA
,,,,,,,,,627bbf61f416d87703e62ba5,001,2025-05-04_17h06.08.084,empathy_intonation_perc,2024.1.4,Win32,60.0240096,,,,,,,,,,,,,,63,hilo,,,,,,226.422,227.705,0,1,0.753,,0,76,76,62,1,non_cognate,1,REAL,FALSA
,,,,,,,,,627bbf61f416d87703e62ba5,001,2025-05-04_17h06.08.084,empathy_intonation_perc,2024.1.4,Win32,60.0240096,,,,,,,,,,,,,,103,vueras,,,,,,227.707,229.154,0,1,0.91,,0,77,77,102,1,pseudoword,0,REAL,FALSA
,,,,,,,,,627bbf61f416d87703e62ba5,001,2025-05-04_17h06.08.084,empathy_intonation_perc,2024.1.4,Win32,60.0240096,,,,,,,,,,,,,,30,fiscal,,,,,,229.155,230.737,1,0,1.047,,0,78,78,29,1,two_way_cognate,1,REAL,FALSA
,,,,,,,,,627bbf61f416d87703e62ba5,001,2025-05-04_17h06.08.084,empathy_intonation_perc,2024.1.4,Win32,60.0240096,,,,,,,,,,,,,,123,arane,,,,,,230.737,232.27,0,1,0.997,,0,79,79,122,1,pseudoword,0,REAL,FALSA
,,,,,,,,,627bbf61f416d87703e62ba5,001,2025-05-04_17h06.08.084,empathy_intonation_perc,2024.1.4,Win32,60.0240096,,,,,,,,,,,,,,82,brillo,,,,,,232.271,234.385,1,0,1.574,,0,80,80,81,1,non_cognate,1,REAL,FALSA
,,,,,,,,,627bbf61f416d87703e62ba5,001,2025-05-04_17h06.08.084,empathy_intonation_perc,2024.1.4,Win32,60.0240096,,,,,,,,,,,,,,187,nomata,,,,,,234.386,235.835,0,1,0.902,,0,81,81,186,1,pseudoword,0,REAL,FALSA
,,,,,,,,,627bbf61f416d87703e62ba5,001,2025-05-04_17h06.08.084,empathy_intonation_perc,2024.1.4,Win32,60.0240096,,,,,,,,,,,,,,162,cengo,,,,,,235.836,237.267,0,1,0.883,,0,82,82,161,1,pseudoword,0,REAL,FALSA
,,,,,,,,,627bbf61f416d87703e62ba5,001,2025-05-04_17h06.08.084,empathy_intonation_perc,2024.1.4,Win32,60.0240096,,,,,,,,,,,,,,130,dubo,,,,,,237.268,239.017,0,1,1.204,,0,83,83,129,1,pseudoword,0,REAL,FALSA
,,,,,,,,,627bbf61f416d87703e62ba5,001,2025-05-04_17h06.08.084,empathy_intonation_perc,2024.1.4,Win32,60.0240096,,,,,,,,,,,,,,69,tiza,,,,,,239.018,240.733,1,0,1.185,,0,84,84,68,1,non_cognate,1,REAL,FALSA
,,,,,,,,,627bbf61f416d87703e62ba5,001,2025-05-04_17h06.08.084,empathy_intonation_perc,2024.1.4,Win32,60.0240096,,,,,,,,,,,,,,49,teñir,,,,,,240.734,242.916,0,1,1.645,,0,85,85,48,1,non_cognate,1,REAL,FALSA
,,,,,,,,,627bbf61f416d87703e62ba5,001,2025-05-04_17h06.08.084,empathy_intonation_perc,2024.1.4,Win32,60.0240096,,,,,,,,,,,,,,139,sasos,,,,,,242.917,244.348,0,1,0.879,,0,86,86,138,1,pseudoword,0,REAL,FALSA
,,,,,,,,,627bbf61f416d87703e62ba5,001,2025-05-04_17h06.08.084,empathy_intonation_perc,2024.1.4,Win32,60.0240096,,,,,,,,,,,,,,116,grigir,,,,,,244.349,245.665,0,1,0.788,,0,87,87,115,1,pseudoword,0,REAL,FALSA
,,,,,,,,,627bbf61f416d87703e62ba5,001,2025-05-04_17h06.08.084,empathy_intonation_perc,2024.1.4,Win32,60.0240096,,,,,,,,,,,,,,153,golla,,,,,,245.666,247.032,0,1,0.829,,0,88,88,152,1,pseudoword,0,REAL,FALSA
,,,,,,,,,627bbf61f416d87703e62ba5,001,2025-05-04_17h06.08.084,empathy_intonation_perc,2024.1.4,Win32,60.0240096,,,,,,,,,,,,,,54,tapón,,,,,,247.032,249.513,0,1,1.935,,0,89,89,53,1,non_cognate,1,REAL,FALSA
,,,,,,,,,627bbf61f416d87703e62ba5,001,2025-05-04_17h06.08.084,empathy_intonation_perc,2024.1.4,Win32,60.0240096,,,,,,,,,,,,,,10,drama,,,,,,249.514,250.763,1,0,0.707,,0,90,90,9,1,three_way_cognate,1,REAL,FALSA
,,,,,,,,,627bbf61f416d87703e62ba5,001,2025-05-04_17h06.08.084,empathy_intonation_perc,2024.1.4,Win32,60.0240096,,,,,,,,,,,,,,125,ceme,,,,,,250.764,252.162,0,1,0.856,,0,91,91,124,1,pseudoword,0,REAL,FALSA
,,,,,,,,,627bbf61f416d87703e62ba5,001,2025-05-04_17h06.08.084,empathy_intonation_perc,2024.1.4,Win32,60.0240096,,,,,,,,,,,,,,142,parre,,,,,,252.163,253.763,0,1,1.052,,0,92,92,141,1,pseudoword,0,REAL,FALSA
,,,,,,,,,627bbf61f416d87703e62ba5,001,2025-05-04_17h06.08.084,empathy_intonation_perc,2024.1.4,Win32,60.0240096,,,,,,,,,,,,,,51,listo,,,,,,253.766,255.311,1,0,1.012,,0,93,93,50,1,non_cognate,1,REAL,FALSA
,,,,,,,,,627bbf61f416d87703e62ba5,001,2025-05-04_17h06.08.084,empathy_intonation_perc,2024.1.4,Win32,60.0240096,,,,,,,,,,,,,,38,halo,,,,,,255.312,258.061,0,1,2.212,,0,94,94,37,1,two_way_cognate,1,REAL,FALSA
,,,,,,,,,627bbf61f416d87703e62ba5,001,2025-05-04_17h06.08.084,empathy_intonation_perc,2024.1.4,Win32,60.0240096,,,,,,,,,,,,,,31,civil,,,,,,258.062,259.644,1,0,1.049,,0,95,95,30,1,two_way_cognate,1,REAL,FALSA
,,,,,,,,,627bbf61f416d87703e62ba5,001,2025-05-04_17h06.08.084,empathy_intonation_perc,2024.1.4,Win32,60.0240096,,,,,,,,,,,,,,192,próces,,,,,,259.645,261.06,0,1,0.876,,0,96,96,191,1,pseudoword,0,REAL,FALSA
,,,,,,,,,627bbf61f416d87703e62ba5,001,2025-05-04_17h06.08.084,empathy_intonation_perc,2024.1.4,Win32,60.0240096,,,,,,,,,,,,,,61,aduana,,,,,,261.061,263.025,0,1,1.421,,0,97,97,60,1,non_cognate,1,REAL,FALSA
,,,,,,,,,627bbf61f416d87703e62ba5,001,2025-05-04_17h06.08.084,empathy_intonation_perc,2024.1.4,Win32,60.0240096,,,,,,,,,,,,,,178,inichó,,,,,,263.026,264.541,0,1,0.966,,0,98,98,177,1,pseudoword,0,REAL,FALSA
,,,,,,,,,627bbf61f416d87703e62ba5,001,2025-05-04_17h06.08.084,empathy_intonation_perc,2024.1.4,Win32,60.0240096,,,,,,,,,,,,,,12,dogma,,,,,,264.541,267.141,1,0,2.064,,0,99,99,11,1,three_way_cognate,1,REAL,FALSA
,,,,,,,,,627bbf61f416d87703e62ba5,001,2025-05-04_17h06.08.084,empathy_intonation_perc,2024.1.4,Win32,60.0240096,,,,,,,,,,,,,,43,honor,,,,,,267.143,268.657,1,0,0.98,,0,100,100,42,1,two_way_cognate,1,REAL,FALSA
,,,,,,,,,627bbf61f416d87703e62ba5,001,2025-05-04_17h06.08.084,empathy_intonation_perc,2024.1.4,Win32,60.0240096,,,,,,,,,,,,,,113,nasce,,,,,,268.658,269.94,0,1,0.738,,0,101,101,112,1,pseudoword,0,REAL,FALSA
,,,,,,,,,627bbf61f416d87703e62ba5,001,2025-05-04_17h06.08.084,empathy_intonation_perc,2024.1.4,Win32,60.0240096,,,,,,,,,,,,,,95,listo,,,,,,269.941,271.589,1,0,1.11,,0,102,102,94,1,non_cognate,1,REAL,FALSA
,,,,,,,,,627bbf61f416d87703e62ba5,001,2025-05-04_17h06.08.084,empathy_intonation_perc,2024.1.4,Win32,60.0240096,,,,,,,,,,,,,,154,harvé,,,,,,271.589,273.255,0,1,1.144,,0,103,103,153,1,pseudoword,0,REAL,FALSA
,,,,,,,,,627bbf61f416d87703e62ba5,001,2025-05-04_17h06.08.084,empathy_intonation_perc,2024.1.4,Win32,60.0240096,,,,,,,,,,,,,,26,enigma,,,,,,273.256,275.439,1,0,1.636,,0,104,104,25,1,two_way_cognate,1,REAL,FALSA
,,,,,,,,,627bbf61f416d87703e62ba5,001,2025-05-04_17h06.08.084,empathy_intonation_perc,2024.1.4,Win32,60.0240096,,,,,,,,,,,,,,45,total,,,,,,275.44,276.822,1,0,0.834,,0,105,105,44,1,two_way_cognate,1,REAL,FALSA
,,,,,,,,,627bbf61f416d87703e62ba5,001,2025-05-04_17h06.08.084,empathy_intonation_perc,2024.1.4,Win32,60.0240096,,,,,,,,,,,,,,15,test,,,,,,276.823,278.421,0,1,1.071,,0,106,106,14,1,three_way_cognate,1,REAL,FALSA
,,,,,,,,,627bbf61f416d87703e62ba5,001,2025-05-04_17h06.08.084,empathy_intonation_perc,2024.1.4,Win32,60.0240096,,,,,,,,,,,,,,19,mafia,,,,,,278.422,281.585,1,0,2.626,,0,107,107,18,1,three_way_cognate,1,REAL,FALSA
,,,,,,,,,627bbf61f416d87703e62ba5,001,2025-05-04_17h06.08.084,empathy_intonation_perc,2024.1.4,Win32,60.0240096,,,,,,,,,,,,,,27,piano,,,,,,281.587,283.985,1,0,1.862,,0,108,108,26,1,two_way_cognate,1,REAL,FALSA
,,,,,,,,,627bbf61f416d87703e62ba5,001,2025-05-04_17h06.08.084,empathy_intonation_perc,2024.1.4,Win32,60.0240096,,,,,,,,,,,,,,148,gino,,,,,,283.987,285.119,0,1,0.59,,0,109,109,147,1,pseudoword,0,REAL,FALSA
,,,,,,,,,627bbf61f416d87703e62ba5,001,2025-05-04_17h06.08.084,empathy_intonation_perc,2024.1.4,Win32,60.0240096,,,,,,,,,,,,,,3,disco,,,,,,285.124,286.635,1,0,0.967,,0,110,110,2,1,three_way_cognate,1,REAL,FALSA
,,,,,,,,,627bbf61f416d87703e62ba5,001,2025-05-04_17h06.08.084,empathy_intonation_perc,2024.1.4,Win32,60.0240096,,,,,,,,,,,,,,44,editor,,,,,,286.636,288.452,1,0,1.271,,0,111,111,43,1,two_way_cognate,1,REAL,FALSA
,,,,,,,,,627bbf61f416d87703e62ba5,001,2025-05-04_17h06.08.084,empathy_intonation_perc,2024.1.4,Win32,60.0240096,,,,,,,,,,,,,,190,asumie,,,,,,288.453,289.717,0,1,0.727,,0,112,112,189,1,pseudoword,0,REAL,FALSA
,,,,,,,,,627bbf61f416d87703e62ba5,001,2025-05-04_17h06.08.084,empathy_intonation_perc,2024.1.4,Win32,60.0240096,,,,,,,,,,,,,,77,suave,,,,,,289.718,291.05,1,0,0.794,,0,113,113,76,1,non_cognate,1,REAL,FALSA
,,,,,,,,,627bbf61f416d87703e62ba5,001,2025-05-04_17h06.08.084,empathy_intonation_perc,2024.1.4,Win32,60.0240096,,,,,,,,,,,,,,40,pelvis,,,,,,291.051,293.283,0,1,1.684,,0,114,114,39,1,two_way_cognate,1,REAL,FALSA
,,,,,,,,,627bbf61f416d87703e62ba5,001,2025-05-04_17h06.08.084,empathy_intonation_perc,2024.1.4,Win32,60.0240096,,,,,,,,,,,,,,78,rendir,,,,,,293.284,295.515,0,1,1.695,,0,115,115,77,1,non_cognate,1,REAL,FALSA
,,,,,,,,,627bbf61f416d87703e62ba5,001,2025-05-04_17h06.08.084,empathy_intonation_perc,2024.1.4,Win32,60.0240096,,,,,,,,,,,,,,167,dobbo,,,,,,295.516,296.864,0,1,0.805,,0,116,116,166,1,pseudoword,0,REAL,FALSA
,,,,,,,,,627bbf61f416d87703e62ba5,001,2025-05-04_17h06.08.084,empathy_intonation_perc,2024.1.4,Win32,60.0240096,,,,,,,,,,,,,,106,diebro,,,,,,296.865,299.279,0,1,1.874,,0,117,117,105,1,pseudoword,0,REAL,FALSA
,,,,,,,,,627bbf61f416d87703e62ba5,001,2025-05-04_17h06.08.084,empathy_intonation_perc,2024.1.4,Win32,60.0240096,,,,,,,,,,,,,,64,rizado,,,,,,299.28,300.696,0,1,0.867,,0,118,118,63,1,non_cognate,1,REAL,FALSA
,,,,,,,,,627bbf61f416d87703e62ba5,001,2025-05-04_17h06.08.084,empathy_intonation_perc,2024.1.4,Win32,60.0240096,,,,,,,,,,,,,,183,edioso,,,,,,300.698,302.429,0,1,1.192,,0,119,119,182,1,pseudoword,0,REAL,FALSA
,,,,,,,,,627bbf61f416d87703e62ba5,001,2025-05-04_17h06.08.084,empathy_intonation_perc,2024.1.4,Win32,60.0240096,,,,,,,,,,,,,,85,enorme,,,,,,302.43,303.862,1,0,0.882,,0,120,120,84,1,non_cognate,1,REAL,FALSA
,,,,,,,,,627bbf61f416d87703e62ba5,001,2025-05-04_17h06.08.084,empathy_intonation_perc,2024.1.4,Win32,60.0240096,,,,,,,,,,,,,,98,martir,,,,,,303.862,305.128,0,1,0.722,,0,121,121,97,1,pseudoword,0,REAL,FALSA
,,,,,,,,,627bbf61f416d87703e62ba5,001,2025-05-04_17h06.08.084,empathy_intonation_perc,2024.1.4,Win32,60.0240096,,,,,,,,,,,,,,29,clamor,,,,,,305.129,306.777,0,1,1.102,,0,122,122,28,1,two_way_cognate,1,REAL,FALSA
,,,,,,,,,627bbf61f416d87703e62ba5,001,2025-05-04_17h06.08.084,empathy_intonation_perc,2024.1.4,Win32,60.0240096,,,,,,,,,,,,,,23,plural,,,,,,306.778,309.127,1,0,1.824,,0,123,123,22,1,three_way_cognate,1,REAL,FALSA
,,,,,,,,,627bbf61f416d87703e62ba5,001,2025-05-04_17h06.08.084,empathy_intonation_perc,2024.1.4,Win32,60.0240096,,,,,,,,,,,,,,28,ardor,,,,,,309.127,310.676,0,1,0.997,,0,124,124,27,1,two_way_cognate,1,REAL,FALSA
,,,,,,,,,627bbf61f416d87703e62ba5,001,2025-05-04_17h06.08.084,empathy_intonation_perc,2024.1.4,Win32,60.0240096,,,,,,,,,,,,,,25,vigor,,,,,,310.677,312.792,1,0,1.585,,0,125,125,24,1,two_way_cognate,1,REAL,FALSA
,,,,,,,,,627bbf61f416d87703e62ba5,001,2025-05-04_17h06.08.084,empathy_intonation_perc,2024.1.4,Win32,60.0240096,,,,,,,,,,,,,,176,gripar,,,,,,312.792,313.892,0,1,0.582,,0,126,126,175,1,pseudoword,0,REAL,FALSA
,,,,,,,,,627bbf61f416d87703e62ba5,001,2025-05-04_17h06.08.084,empathy_intonation_perc,2024.1.4,Win32,60.0240096,,,,,,,,,,,,,,128,pelí,,,,,,313.893,315.124,0,1,0.699,,0,127,127,127,1,pseudoword,0,REAL,FALSA
,,,,,,,,,627bbf61f416d87703e62ba5,001,2025-05-04_17h06.08.084,empathy_intonation_perc,2024.1.4,Win32,60.0240096,,,,,,,,,,,,,,92,flecha,,,,,,315.124,316.48,0,1,0.827,,0,128,128,91,1,non_cognate,1,REAL,FALSA
,,,,,,,,,627bbf61f416d87703e62ba5,001,2025-05-04_17h06.08.084,empathy_intonation_perc,2024.1.4,Win32,60.0240096,,,,,,,,,,,,,,175,tradía,,,,,,316.482,317.941,0,1,0.916,,0,129,129,174,1,pseudoword,0,REAL,FALSA
,,,,,,,,,627bbf61f416d87703e62ba5,001,2025-05-04_17h06.08.084,empathy_intonation_perc,2024.1.4,Win32,60.0240096,,,,,,,,,,,,,,9,portal,,,,,,317.941,319.374,1,0,0.894,,0,130,130,8,1,three_way_cognate,1,REAL,FALSA
,,,,,,,,,627bbf61f416d87703e62ba5,001,2025-05-04_17h06.08.084,empathy_intonation_perc,2024.1.4,Win32,60.0240096,,,,,,,,,,,,,,86,cuenco,,,,,,319.374,321.056,0,1,1.141,,0,131,131,85,1,non_cognate,1,REAL,FALSA
,,,,,,,,,627bbf61f416d87703e62ba5,001,2025-05-04_17h06.08.084,empathy_intonation_perc,2024.1.4,Win32,60.0240096,,,,,,,,,,,,,,185,aljizo,,,,,,321.057,322.256,0,1,0.66,,0,132,132,184,1,pseudoword,0,REAL,FALSA
,,,,,,,,,627bbf61f416d87703e62ba5,001,2025-05-04_17h06.08.084,empathy_intonation_perc,2024.1.4,Win32,60.0240096,,,,,,,,,,,,,,66,aleta,,,,,,322.257,323.622,0,1,0.827,,0,133,133,65,1,non_cognate,1,REAL,FALSA
,,,,,,,,,627bbf61f416d87703e62ba5,001,2025-05-04_17h06.08.084,empathy_intonation_perc,2024.1.4,Win32,60.0240096,,,,,,,,,,,,,,161,civas,,,,,,323.623,324.821,0,1,0.649,,0,134,134,160,1,pseudoword,0,REAL,FALSA
,,,,,,,,,627bbf61f416d87703e62ba5,001,2025-05-04_17h06.08.084,empathy_intonation_perc,2024.1.4,Win32,60.0240096,,,,,,,,,,,,,,13,plan,,,,,,324.822,326.271,1,0,0.9,,0,135,135,12,1,three_way_cognate,1,REAL,FALSA
,,,,,,,,,627bbf61f416d87703e62ba5,001,2025-05-04_17h06.08.084,empathy_intonation_perc,2024.1.4,Win32,60.0240096,,,,,,,,,,,,,,52,blando,,,,,,326.271,327.353,0,1,0.546,,0,136,136,51,1,non_cognate,1,REAL,FALSA
,,,,,,,,,627bbf61f416d87703e62ba5,001,2025-05-04_17h06.08.084,empathy_intonation_perc,2024.1.4,Win32,60.0240096,,,,,,,,,,,,,,174,pabea,,,,,,327.354,328.737,0,1,0.845,,0,137,137,173,1,pseudoword,0,REAL,FALSA
,,,,,,,,,627bbf61f416d87703e62ba5,001,2025-05-04_17h06.08.084,empathy_intonation_perc,2024.1.4,Win32,60.0240096,,,,,,,,,,,,,,6,horror,,,,,,328.738,330.286,1,0,1.012,,0,138,138,5,1,three_way_cognate,1,REAL,FALSA
,,,,,,,,,627bbf61f416d87703e62ba5,001,2025-05-04_17h06.08.084,empathy_intonation_perc,2024.1.4,Win32,60.0240096,,,,,,,,,,,,,,89,muñeca,,,,,,330.288,332.119,1,0,1.292,,0,139,139,88,1,non_cognate,1,REAL,FALSA
,,,,,,,,,627bbf61f416d87703e62ba5,001,2025-05-04_17h06.08.084,empathy_intonation_perc,2024.1.4,Win32,60.0240096,,,,,,,,,,,,,,62,pegar,,,,,,332.12,333.952,1,0,1.287,,0,140,140,61,1,non_cognate,1,REAL,FALSA
,,,,,,,,,627bbf61f416d87703e62ba5,001,2025-05-04_17h06.08.084,empathy_intonation_perc,2024.1.4,Win32,60.0240096,,,,,,,,,,,,,,41,pasta,,,,,,333.952,335.334,1,0,0.846,,0,141,141,40,1,two_way_cognate,1,REAL,FALSA
,,,,,,,,,627bbf61f416d87703e62ba5,001,2025-05-04_17h06.08.084,empathy_intonation_perc,2024.1.4,Win32,60.0240096,,,,,,,,,,,,,,138,tator,,,,,,335.335,336.767,0,1,0.895,,0,142,142,137,1,pseudoword,0,REAL,FALSA
,,,,,,,,,627bbf61f416d87703e62ba5,001,2025-05-04_17h06.08.084,empathy_intonation_perc,2024.1.4,Win32,60.0240096,,,,,,,,,,,,,,181,gravés,,,,,,336.768,338.383,0,1,1.071,,0,143,143,180,1,pseudoword,0,REAL,FALSA
,,,,,,,,,627bbf61f416d87703e62ba5,001,2025-05-04_17h06.08.084,empathy_intonation_perc,2024.1.4,Win32,60.0240096,,,,,,,,,,,,,,11,golf,,,,,,338.384,339.866,0,1,0.95,,0,144,144,10,1,three_way_cognate,1,REAL,FALSA
,,,,,,,,,627bbf61f416d87703e62ba5,001,2025-05-04_17h06.08.084,empathy_intonation_perc,2024.1.4,Win32,60.0240096,,,,,,,,,,,,,,4,flora,,,,,,339.867,341.416,1,0,1.006,,0,145,145,3,1,three_way_cognate,1,REAL,FALSA
,,,,,,,,,627bbf61f416d87703e62ba5,001,2025-05-04_17h06.08.084,empathy_intonation_perc,2024.1.4,Win32,60.0240096,,,,,,,,,,,,,,150,cricó,,,,,,341.416,343.548,0,1,1.595,,0,146,146,149,1,pseudoword,0,REAL,FALSA
,,,,,,,,,627bbf61f416d87703e62ba5,001,2025-05-04_17h06.08.084,empathy_intonation_perc,2024.1.4,Win32,60.0240096,,,,,,,,,,,,,,56,pico,,,,,,343.55,344.831,0,1,0.742,,0,147,147,55,1,non_cognate,1,REAL,FALSA
,,,,,,,,,627bbf61f416d87703e62ba5,001,2025-05-04_17h06.08.084,empathy_intonation_perc,2024.1.4,Win32,60.0240096,,,,,,,,,,,,,,104,estulo,,,,,,344.832,346.164,0,1,0.797,,0,148,148,103,1,pseudoword,0,REAL,FALSA
,,,,,,,,,627bbf61f416d87703e62ba5,001,2025-05-04_17h06.08.084,empathy_intonation_perc,2024.1.4,Win32,60.0240096,,,,,,,,,,,,,,33,collar,,,,,,346.165,347.514,1,0,0.807,,0,149,149,32,1,two_way_cognate,1,REAL,FALSA
,,,,,,,,,627bbf61f416d87703e62ba5,001,2025-05-04_17h06.08.084,empathy_intonation_perc,2024.1.4,Win32,60.0240096,,,,,,,,,,,,,,122,boñaz,,,,,,347.514,349.013,0,1,0.957,,0,150,150,121,1,pseudoword,0,REAL,FALSA
,,,,,,,,,627bbf61f416d87703e62ba5,001,2025-05-04_17h06.08.084,empathy_intonation_perc,2024.1.4,Win32,60.0240096,,,,,,,,,,,,,,186,rizate,,,,,,349.014,350.38,0,1,0.821,,0,151,151,185,1,pseudoword,0,REAL,FALSA
,,,,,,,,,627bbf61f416d87703e62ba5,001,2025-05-04_17h06.08.084,empathy_intonation_perc,2024.1.4,Win32,60.0240096,,,,,,,,,,,,,,140,chorde,,,,,,350.383,351.513,0,1,0.598,,0,152,152,139,1,pseudoword,0,REAL,FALSA
,,,,,,,,,627bbf61f416d87703e62ba5,001,2025-05-04_17h06.08.084,empathy_intonation_perc,2024.1.4,Win32,60.0240096,,,,,,,,,,,,,,155,kugis,,,,,,351.514,352.678,0,1,0.626,,0,153,153,154,1,pseudoword,0,REAL,FALSA
,,,,,,,,,627bbf61f416d87703e62ba5,001,2025-05-04_17h06.08.084,empathy_intonation_perc,2024.1.4,Win32,60.0240096,,,,,,,,,,,,,,117,morrá,,,,,,352.68,353.861,0,1,0.642,,0,154,154,116,1,pseudoword,0,REAL,FALSA
,,,,,,,,,627bbf61f416d87703e62ba5,001,2025-05-04_17h06.08.084,empathy_intonation_perc,2024.1.4,Win32,60.0240096,,,,,,,,,,,,,,132,nocó,,,,,,353.862,355.178,0,1,0.771,,0,155,155,131,1,pseudoword,0,REAL,FALSA
,,,,,,,,,627bbf61f416d87703e62ba5,001,2025-05-04_17h06.08.084,empathy_intonation_perc,2024.1.4,Win32,60.0240096,,,,,,,,,,,,,,149,emén,,,,,,355.179,356.527,0,1,0.808,,0,156,156,148,1,pseudoword,0,REAL,FALSA
,,,,,,,,,627bbf61f416d87703e62ba5,001,2025-05-04_17h06.08.084,empathy_intonation_perc,2024.1.4,Win32,60.0240096,,,,,,,,,,,,,,71,torta,,,,,,356.528,358.61,0,1,1.545,,0,157,157,70,1,non_cognate,1,REAL,FALSA
,,,,,,,,,627bbf61f416d87703e62ba5,001,2025-05-04_17h06.08.084,empathy_intonation_perc,2024.1.4,Win32,60.0240096,,,,,,,,,,,,,,59,feo,,,,,,358.611,359.992,1,0,0.854,,0,158,158,58,1,non_cognate,1,REAL,FALSA
,,,,,,,,,627bbf61f416d87703e62ba5,001,2025-05-04_17h06.08.084,empathy_intonation_perc,2024.1.4,Win32,60.0240096,,,,,,,,,,,,,,133,conso,,,,,,359.992,361.292,0,1,0.776,,0,159,159,132,1,pseudoword,0,REAL,FALSA
,,,,,,,,,627bbf61f416d87703e62ba5,001,2025-05-04_17h06.08.084,empathy_intonation_perc,2024.1.4,Win32,60.0240096,,,,,,,,,,,,,,73,llevar,,,,,,361.294,362.858,1,0,1.029,,0,160,160,72,1,non_cognate,1,REAL,FALSA
,,,,,,,,,627bbf61f416d87703e62ba5,001,2025-05-04_17h06.08.084,empathy_intonation_perc,2024.1.4,Win32,60.0240096,,,,,,,,,,,,,,57,regalo,,,,,,362.858,364.307,1,0,0.925,,0,161,161,56,1,non_cognate,1,REAL,FALSA
,,,,,,,,,627bbf61f416d87703e62ba5,001,2025-05-04_17h06.08.084,empathy_intonation_perc,2024.1.4,Win32,60.0240096,,,,,,,,,,,,,,108,jauda,,,,,,364.308,365.573,0,1,0.715,,0,162,162,107,1,pseudoword,0,REAL,FALSA
,,,,,,,,,627bbf61f416d87703e62ba5,001,2025-05-04_17h06.08.084,empathy_intonation_perc,2024.1.4,Win32,60.0240096,,,,,,,,,,,,,,48,pelvis,,,,,,365.574,367.056,0,1,0.959,,0,163,163,47,1,two_way_cognate,1,REAL,FALSA
,,,,,,,,,627bbf61f416d87703e62ba5,001,2025-05-04_17h06.08.084,empathy_intonation_perc,2024.1.4,Win32,60.0240096,,,,,,,,,,,,,,53,punta,,,,,,367.056,369.389,0,1,1.809,,0,164,164,52,1,non_cognate,1,REAL,FALSA
,,,,,,,,,627bbf61f416d87703e62ba5,001,2025-05-04_17h06.08.084,empathy_intonation_perc,2024.1.4,Win32,60.0240096,,,,,,,,,,,,,,8,kilo,,,,,,369.39,371.989,0,1,2.064,,0,165,165,7,1,three_way_cognate,1,REAL,FALSA
,,,,,,,,,627bbf61f416d87703e62ba5,001,2025-05-04_17h06.08.084,empathy_intonation_perc,2024.1.4,Win32,60.0240096,,,,,,,,,,,,,,137,trugo,,,,,,371.99,373.238,0,1,0.703,,0,166,166,136,1,pseudoword,0,REAL,FALSA
,,,,,,,,,627bbf61f416d87703e62ba5,001,2025-05-04_17h06.08.084,empathy_intonation_perc,2024.1.4,Win32,60.0240096,,,,,,,,,,,,,,90,venado,,,,,,373.239,374.787,0,1,1.004,,0,167,167,89,1,non_cognate,1,REAL,FALSA
,,,,,,,,,627bbf61f416d87703e62ba5,001,2025-05-04_17h06.08.084,empathy_intonation_perc,2024.1.4,Win32,60.0240096,,,,,,,,,,,,,,166,anfia,,,,,,374.789,376.12,0,1,0.783,,0,168,168,165,1,pseudoword,0,REAL,FALSA
,,,,,,,,,627bbf61f416d87703e62ba5,001,2025-05-04_17h06.08.084,empathy_intonation_perc,2024.1.4,Win32,60.0240096,,,,,,,,,,,,,,18,altar,,,,,,376.121,377.987,1,0,1.323,,0,169,169,17,1,three_way_cognate,1,REAL,FALSA
,,,,,,,,,627bbf61f416d87703e62ba5,001,2025-05-04_17h06.08.084,empathy_intonation_perc,2024.1.4,Win32,60.0240096,,,,,,,,,,,,,,169,pitis,,,,,,377.988,379.137,0,1,0.605,,0,170,170,168,1,pseudoword,0,REAL,FALSA
,,,,,,,,,627bbf61f416d87703e62ba5,001,2025-05-04_17h06.08.084,empathy_intonation_perc,2024.1.4,Win32,60.0240096,,,,,,,,,,,,,,50,sierra,,,,,,379.137,380.452,1,0,0.774,,0,171,171,49,1,non_cognate,1,REAL,FALSA
,,,,,,,,,627bbf61f416d87703e62ba5,001,2025-05-04_17h06.08.084,empathy_intonation_perc,2024.1.4,Win32,60.0240096,,,,,,,,,,,,,,144,diroco,,,,,,380.453,381.586,0,1,0.593,,0,172,172,143,1,pseudoword,0,REAL,FALSA
,,,,,,,,,627bbf61f416d87703e62ba5,001,2025-05-04_17h06.08.084,empathy_intonation_perc,2024.1.4,Win32,60.0240096,,,,,,,,,,,,,,188,amplir,,,,,,381.589,382.718,0,1,0.585,,0,173,173,187,1,pseudoword,0,REAL,FALSA
,,,,,,,,,627bbf61f416d87703e62ba5,001,2025-05-04_17h06.08.084,empathy_intonation_perc,2024.1.4,Win32,60.0240096,,,,,,,,,,,,,,170,diabo,,,,,,382.719,383.918,0,1,0.655,,0,174,174,169,1,pseudoword,0,REAL,FALSA
,,,,,,,,,627bbf61f416d87703e62ba5,001,2025-05-04_17h06.08.084,empathy_intonation_perc,2024.1.4,Win32,60.0240096,,,,,,,,,,,,,,79,suelo,,,,,,383.918,386.24,1,0,1.78,,0,175,175,78,1,non_cognate,1,REAL,FALSA
,,,,,,,,,627bbf61f416d87703e62ba5,001,2025-05-04_17h06.08.084,empathy_intonation_perc,2024.1.4,Win32,60.0240096,,,,,,,,,,,,,,127,vien,,,,,,386.24,387.55,0,1,0.775,,0,176,176,126,1,pseudoword,0,REAL,FALSA
,,,,,,,,,627bbf61f416d87703e62ba5,001,2025-05-04_17h06.08.084,empathy_intonation_perc,2024.1.4,Win32,60.0240096,,,,,,,,,,,,,,115,lidena,,,,,,387.551,388.733,0,1,0.638,,0,177,177,114,1,pseudoword,0,REAL,FALSA
,,,,,,,,,627bbf61f416d87703e62ba5,001,2025-05-04_17h06.08.084,empathy_intonation_perc,2024.1.4,Win32,60.0240096,,,,,,,,,,,,,,42,rumor,,,,,,388.734,391.765,1,0,2.494,,0,178,178,41,1,two_way_cognate,1,REAL,FALSA
,,,,,,,,,627bbf61f416d87703e62ba5,001,2025-05-04_17h06.08.084,empathy_intonation_perc,2024.1.4,Win32,60.0240096,,,,,,,,,,,,,,1,moral,,,,,,391.766,393.215,1,0,0.899,,0,179,179,0,1,three_way_cognate,1,REAL,FALSA
,,,,,,,,,627bbf61f416d87703e62ba5,001,2025-05-04_17h06.08.084,empathy_intonation_perc,2024.1.4,Win32,60.0240096,,,,,,,,,,,,,,124,lobe,,,,,,393.216,394.365,0,1,0.61,,0,180,180,123,1,pseudoword,0,REAL,FALSA
,,,,,,,,,627bbf61f416d87703e62ba5,001,2025-05-04_17h06.08.084,empathy_intonation_perc,2024.1.4,Win32,60.0240096,,,,,,,,,,,,,,191,frasis,,,,,,394.365,395.598,0,1,0.688,,0,181,181,190,1,pseudoword,0,REAL,FALSA
,,,,,,,,,627bbf61f416d87703e62ba5,001,2025-05-04_17h06.08.084,empathy_intonation_perc,2024.1.4,Win32,60.0240096,,,,,,,,,,,,,,94,forro,,,,,,395.599,397.08,0,1,0.941,,0,182,182,93,1,non_cognate,1,REAL,FALSA
,,,,,,,,,627bbf61f416d87703e62ba5,001,2025-05-04_17h06.08.084,empathy_intonation_perc,2024.1.4,Win32,60.0240096,,,,,,,,,,,,,,67,llamar,,,,,,397.081,398.446,1,0,0.819,,0,183,183,66,1,non_cognate,1,REAL,FALSA
,,,,,,,,,627bbf61f416d87703e62ba5,001,2025-05-04_17h06.08.084,empathy_intonation_perc,2024.1.4,Win32,60.0240096,,,,,,,,,,,,,,118,bará,,,,,,398.447,399.562,0,1,0.571,,0,184,184,117,1,pseudoword,0,REAL,FALSA
,,,,,,,,,627bbf61f416d87703e62ba5,001,2025-05-04_17h06.08.084,empathy_intonation_perc,2024.1.4,Win32,60.0240096,,,,,,,,,,,,,,129,vinzó,,,,,,399.563,400.812,0,1,0.728,,0,185,185,128,1,pseudoword,0,REAL,FALSA
,,,,,,,,,627bbf61f416d87703e62ba5,001,2025-05-04_17h06.08.084,empathy_intonation_perc,2024.1.4,Win32,60.0240096,,,,,,,,,,,,,,58,colcha,,,,,,400.813,401.978,0,1,0.629,,0,186,186,57,1,non_cognate,1,REAL,FALSA
,,,,,,,,,627bbf61f416d87703e62ba5,001,2025-05-04_17h06.08.084,empathy_intonation_perc,2024.1.4,Win32,60.0240096,,,,,,,,,,,,,,22,mango,,,,,,401.979,403.777,1,0,1.254,,0,187,187,21,1,three_way_cognate,1,REAL,FALSA
,,,,,,,,,627bbf61f416d87703e62ba5,001,2025-05-04_17h06.08.084,empathy_intonation_perc,2024.1.4,Win32,60.0240096,,,,,,,,,,,,,,7,albino,,,,,,403.778,405.543,0,1,1.235,,0,188,188,6,1,three_way_cognate,1,REAL,FALSA
,,,,,,,,,627bbf61f416d87703e62ba5,001,2025-05-04_17h06.08.084,empathy_intonation_perc,2024.1.4,Win32,60.0240096,,,,,,,,,,,,,,72,rostro,,,,,,405.543,406.81,1,0,0.734,,0,189,189,71,1,non_cognate,1,REAL,FALSA
,,,,,,,,,627bbf61f416d87703e62ba5,001,2025-05-04_17h06.08.084,empathy_intonation_perc,2024.1.4,Win32,60.0240096,,,,,,,,,,,,,,60,siglo,,,,,,406.811,408.126,0,1,0.783,,0,190,190,59,1,non_cognate,1,REAL,FALSA
,,,,,,,,,627bbf61f416d87703e62ba5,001,2025-05-04_17h06.08.084,empathy_intonation_perc,2024.1.4,Win32,60.0240096,,,,,,,,,,,,,,121,barbs,,,,,,408.127,409.242,0,1,0.569,,0,191,191,120,1,pseudoword,0,REAL,FALSA
