lextale_instructions.started,lextale_instructions.stopped,lextale_instructions_loop.thisRepN,lextale_instructions_loop.thisTrialN,lextale_instructions_loop.thisN,lextale_instructions_loop.thisIndex,lextale_instructions_loop.ran,instructions_text,continue_text,participant,session,date,expName,psychopyVersion,OS,frameRate,lextale_practice.started,lextale_practice.stopped,key_resp_lextale_practice.keys,key_resp_lextale_practice.corr,key_resp_lextale_practice.rt,key_resp_lextale_practice.duration,lextale_practice_feedback.started,lextale_practice_feedback.stopped,lextale_practice_trials.thisRepN,lextale_practice_trials.thisTrialN,lextale_practice_trials.thisN,lextale_practice_trials.thisIndex,lextale_practice_trials.ran,stim,word,correct_response,prac_button_real,prac_button_false,lextale_check.started,lextale_check.stopped,lextale_trial.started,lextale_trial.stopped,key_resp_lextale_trial.keys,key_resp_lextale_trial.corr,key_resp_lextale_trial.rt,key_resp_lextale_trial.duration,lextail_trials.thisRepN,lextail_trials.thisTrialN,lextail_trials.thisN,lextail_trials.thisIndex,lextail_trials.ran,type,correct_reponse,button_real,button_false
0.0028,6.0539,0,0,0,0,1,"Este es un test de vocabulario en español. 
  
  A continuación vas a ver 90 secuencias de letras que parecen 'españolas'.
  
  Solo algunas de ellas son palabras de verdad.",(presiona la barra espaciadora para continuar),627be8df969ba21063c8a31f,001,2025-05-07_11h46.12.004,empathy_intonation_perc,2024.1.4,Win32,59.17159763,,,,,,,,,,,,,,,,,,,,,,,,,,,,,,,,,,,
6.0551,13.0224,0,1,1,1,1,"Por favor, señala las palabras que tú conoces (aquellas que estás convencido que son palabras españolas, incluso aunque no seas capaz de dar el significado preciso).",(presiona la barra espaciadora para continuar),627be8df969ba21063c8a31f,001,2025-05-07_11h46.12.004,empathy_intonation_perc,2024.1.4,Win32,59.17159763,,,,,,,,,,,,,,,,,,,,,,,,,,,,,,,,,,,
13.023,21.9256,0,2,2,2,1,Pero cuidado: los errores se penalizan. Por eso no tiene sentido tratar de incrementar tu puntuación marcando como reales palabras que nunca has visto.,(presiona la barra espaciadora para continuar),627be8df969ba21063c8a31f,001,2025-05-07_11h46.12.004,empathy_intonation_perc,2024.1.4,Win32,59.17159763,,,,,,,,,,,,,,,,,,,,,,,,,,,,,,,,,,,
21.9262,28.6117,0,3,3,3,1,"Presiona la tecla 1 si piensas que es una palabra real y la tecla 
  0 si piensas que es una palabra falsa. 
  
  Vamos a practicar un poco...",(presiona la barra espaciadora para continuar),627be8df969ba21063c8a31f,001,2025-05-07_11h46.12.004,empathy_intonation_perc,2024.1.4,Win32,59.17159763,,,,,,,,,,,,,,,,,,,,,,,,,,,,,,,,,,,
,,,,,,,,,627be8df969ba21063c8a31f,001,2025-05-07_11h46.12.004,empathy_intonation_perc,2024.1.4,Win32,59.17159763,28.6179,30.5787,0,1,1.4173,,30.5791,31.5794,0,0,0,0,1,0,depiste,0,REAL,FALSA,,,,,,,,,,,,,,,,,
,,,,,,,,,627be8df969ba21063c8a31f,001,2025-05-07_11h46.12.004,empathy_intonation_perc,2024.1.4,Win32,59.17159763,31.5802,32.8631,1,1,0.7428,,32.8632,33.8633,0,1,1,1,1,0,sí,1,REAL,FALSA,,,,,,,,,,,,,,,,,
,,,,,,,,,627be8df969ba21063c8a31f,001,2025-05-07_11h46.12.004,empathy_intonation_perc,2024.1.4,Win32,59.17159763,33.8638,35.2975,0,1,0.8854,,35.2975,36.2978,0,2,2,2,1,0,coné,0,REAL,FALSA,,,,,,,,,,,,,,,,,
,,,,,,,,,627be8df969ba21063c8a31f,001,2025-05-07_11h46.12.004,empathy_intonation_perc,2024.1.4,Win32,59.17159763,36.2983,37.4649,1,0,0.6232,,37.465,38.4654,0,3,3,3,1,0,calpar,0,REAL,FALSA,,,,,,,,,,,,,,,,,
,,,,,,,,,627be8df969ba21063c8a31f,001,2025-05-07_11h46.12.004,empathy_intonation_perc,2024.1.4,Win32,59.17159763,38.466,39.9989,0,1,0.9926,,39.9991,40.9988,0,4,4,4,1,0,joten,0,REAL,FALSA,,,,,,,,,,,,,,,,,
,,,,,,,,,627be8df969ba21063c8a31f,001,2025-05-07_11h46.12.004,empathy_intonation_perc,2024.1.4,Win32,59.17159763,40.9992,42.45,1,1,0.9264,,42.4501,43.4503,0,5,5,5,1,0,sacapuntas,1,REAL,FALSA,,,,,,,,,,,,,,,,,
,,,,,,,,,627be8df969ba21063c8a31f,001,2025-05-07_11h46.12.004,empathy_intonation_perc,2024.1.4,Win32,59.17159763,43.4509,44.8509,0,1,0.8536,,44.8511,45.8512,0,6,6,6,1,0,priba,0,REAL,FALSA,,,,,,,,,,,,,,,,,
,,,,,,,,,627be8df969ba21063c8a31f,001,2025-05-07_11h46.12.004,empathy_intonation_perc,2024.1.4,Win32,59.17159763,45.8517,47.4187,0,1,1.0254,,47.4188,48.4187,0,7,7,7,1,0,pelasula,0,REAL,FALSA,,,,,,,,,,,,,,,,,
,,,,,,,,,627be8df969ba21063c8a31f,001,2025-05-07_11h46.12.004,empathy_intonation_perc,2024.1.4,Win32,59.17159763,48.4193,49.6194,1,1,0.6517,,49.6194,50.6197,0,8,8,8,1,0,bien,1,REAL,FALSA,,,,,,,,,,,,,,,,,
,,,,,,,,,627be8df969ba21063c8a31f,001,2025-05-07_11h46.12.004,empathy_intonation_perc,2024.1.4,Win32,59.17159763,50.6202,51.787,1,1,0.6187,,51.7871,52.7874,0,9,9,9,1,0,casa,1,REAL,FALSA,,,,,,,,,,,,,,,,,
,,,,,,,,,627be8df969ba21063c8a31f,001,2025-05-07_11h46.12.004,empathy_intonation_perc,2024.1.4,Win32,59.17159763,52.7881,54.0379,0,1,0.7021,,54.038,55.0382,0,10,10,10,1,0,lejo,0,REAL,FALSA,,,,,,,,,,,,,,,,,
,,,,,,,,,627be8df969ba21063c8a31f,001,2025-05-07_11h46.12.004,empathy_intonation_perc,2024.1.4,Win32,59.17159763,55.0387,56.7554,1,0,1.1723,,56.7555,57.7559,0,11,11,11,1,0,pretantas,0,REAL,FALSA,,,,,,,,,,,,,,,,,
,,,,,,,,,627be8df969ba21063c8a31f,001,2025-05-07_11h46.12.004,empathy_intonation_perc,2024.1.4,Win32,59.17159763,,,,,,,,,,,,,,,,,,,57.7564,60.6242,,,,,,,,,,,,,,,
,,,,,,,,,627be8df969ba21063c8a31f,001,2025-05-07_11h46.12.004,empathy_intonation_perc,2024.1.4,Win32,59.17159763,,,,,,,,,,,,,,25,vigor,,,,,,60.6329,62.0415,1,0,0.8683,,0,0,0,24,1,two_way_cognate,1,REAL,FALSA
,,,,,,,,,627be8df969ba21063c8a31f,001,2025-05-07_11h46.12.004,empathy_intonation_perc,2024.1.4,Win32,59.17159763,,,,,,,,,,,,,,120,mauja,,,,,,62.0424,63.3247,0,1,0.7354,,0,1,1,119,1,pseudoword,0,REAL,FALSA
,,,,,,,,,627be8df969ba21063c8a31f,001,2025-05-07_11h46.12.004,empathy_intonation_perc,2024.1.4,Win32,59.17159763,,,,,,,,,,,,,,94,forro,,,,,,63.3253,64.6916,1,0,0.8165,,0,2,2,93,1,non_cognate,1,REAL,FALSA
,,,,,,,,,627be8df969ba21063c8a31f,001,2025-05-07_11h46.12.004,empathy_intonation_perc,2024.1.4,Win32,59.17159763,,,,,,,,,,,,,,4,flora,,,,,,64.692,65.9584,1,0,0.7181,,0,3,3,3,1,three_way_cognate,1,REAL,FALSA
,,,,,,,,,627be8df969ba21063c8a31f,001,2025-05-07_11h46.12.004,empathy_intonation_perc,2024.1.4,Win32,59.17159763,,,,,,,,,,,,,,121,barbs,,,,,,65.9586,67.4764,0,1,0.9855,,0,4,4,120,1,pseudoword,0,REAL,FALSA
,,,,,,,,,627be8df969ba21063c8a31f,001,2025-05-07_11h46.12.004,empathy_intonation_perc,2024.1.4,Win32,59.17159763,,,,,,,,,,,,,,190,asumie,,,,,,67.4771,68.9603,0,1,0.9356,,0,5,5,189,1,pseudoword,0,REAL,FALSA
,,,,,,,,,627be8df969ba21063c8a31f,001,2025-05-07_11h46.12.004,empathy_intonation_perc,2024.1.4,Win32,59.17159763,,,,,,,,,,,,,,124,lobe,,,,,,68.9609,70.811,0,1,1.3022,,0,6,6,123,1,pseudoword,0,REAL,FALSA
,,,,,,,,,627be8df969ba21063c8a31f,001,2025-05-07_11h46.12.004,empathy_intonation_perc,2024.1.4,Win32,59.17159763,,,,,,,,,,,,,,82,brillo,,,,,,70.8117,72.078,1,0,0.7227,,0,7,7,81,1,non_cognate,1,REAL,FALSA
,,,,,,,,,627be8df969ba21063c8a31f,001,2025-05-07_11h46.12.004,empathy_intonation_perc,2024.1.4,Win32,59.17159763,,,,,,,,,,,,,,84,aviso,,,,,,72.0787,73.595,1,0,0.9668,,0,8,8,83,1,non_cognate,1,REAL,FALSA
,,,,,,,,,627be8df969ba21063c8a31f,001,2025-05-07_11h46.12.004,empathy_intonation_perc,2024.1.4,Win32,59.17159763,,,,,,,,,,,,,,103,vueras,,,,,,73.5953,75.5128,0,1,1.369,,0,9,9,102,1,pseudoword,0,REAL,FALSA
,,,,,,,,,627be8df969ba21063c8a31f,001,2025-05-07_11h46.12.004,empathy_intonation_perc,2024.1.4,Win32,59.17159763,,,,,,,,,,,,,,23,plural,,,,,,75.5135,77.0633,1,0,1.0032,,0,10,10,22,1,three_way_cognate,1,REAL,FALSA
,,,,,,,,,627be8df969ba21063c8a31f,001,2025-05-07_11h46.12.004,empathy_intonation_perc,2024.1.4,Win32,59.17159763,,,,,,,,,,,,,,154,harvé,,,,,,77.0639,78.3803,0,1,0.7721,,0,11,11,153,1,pseudoword,0,REAL,FALSA
,,,,,,,,,627be8df969ba21063c8a31f,001,2025-05-07_11h46.12.004,empathy_intonation_perc,2024.1.4,Win32,59.17159763,,,,,,,,,,,,,,63,hilo,,,,,,78.3808,79.6307,0,1,0.7102,,0,12,12,62,1,non_cognate,1,REAL,FALSA
,,,,,,,,,627be8df969ba21063c8a31f,001,2025-05-07_11h46.12.004,empathy_intonation_perc,2024.1.4,Win32,59.17159763,,,,,,,,,,,,,,174,pabea,,,,,,79.6312,81.1316,0,1,0.958,,0,13,13,173,1,pseudoword,0,REAL,FALSA
,,,,,,,,,627be8df969ba21063c8a31f,001,2025-05-07_11h46.12.004,empathy_intonation_perc,2024.1.4,Win32,59.17159763,,,,,,,,,,,,,,16,chat,,,,,,81.1322,82.732,1,0,1.0687,,0,14,14,15,1,three_way_cognate,1,REAL,FALSA
,,,,,,,,,627be8df969ba21063c8a31f,001,2025-05-07_11h46.12.004,empathy_intonation_perc,2024.1.4,Win32,59.17159763,,,,,,,,,,,,,,151,prías,,,,,,82.7326,85.0331,0,1,1.7528,,0,15,15,150,1,pseudoword,0,REAL,FALSA
,,,,,,,,,627be8df969ba21063c8a31f,001,2025-05-07_11h46.12.004,empathy_intonation_perc,2024.1.4,Win32,59.17159763,,,,,,,,,,,,,,132,nocó,,,,,,85.0337,86.3835,0,1,0.8093,,0,16,16,131,1,pseudoword,0,REAL,FALSA
,,,,,,,,,627be8df969ba21063c8a31f,001,2025-05-07_11h46.12.004,empathy_intonation_perc,2024.1.4,Win32,59.17159763,,,,,,,,,,,,,,90,venado,,,,,,86.3842,87.6508,1,0,0.7255,,0,17,17,89,1,non_cognate,1,REAL,FALSA
,,,,,,,,,627be8df969ba21063c8a31f,001,2025-05-07_11h46.12.004,empathy_intonation_perc,2024.1.4,Win32,59.17159763,,,,,,,,,,,,,,61,aduana,,,,,,87.6514,89.018,0,1,0.8187,,0,18,18,60,1,non_cognate,1,REAL,FALSA
,,,,,,,,,627be8df969ba21063c8a31f,001,2025-05-07_11h46.12.004,empathy_intonation_perc,2024.1.4,Win32,59.17159763,,,,,,,,,,,,,,170,diabo,,,,,,89.0186,90.5184,0,1,0.9544,,0,19,19,169,1,pseudoword,0,REAL,FALSA
,,,,,,,,,627be8df969ba21063c8a31f,001,2025-05-07_11h46.12.004,empathy_intonation_perc,2024.1.4,Win32,59.17159763,,,,,,,,,,,,,,175,tradía,,,,,,90.519,92.4522,0,1,1.393,,0,20,20,174,1,pseudoword,0,REAL,FALSA
,,,,,,,,,627be8df969ba21063c8a31f,001,2025-05-07_11h46.12.004,empathy_intonation_perc,2024.1.4,Win32,59.17159763,,,,,,,,,,,,,,160,fomeó,,,,,,92.4527,93.9197,0,1,0.9192,,0,21,21,159,1,pseudoword,0,REAL,FALSA
,,,,,,,,,627be8df969ba21063c8a31f,001,2025-05-07_11h46.12.004,empathy_intonation_perc,2024.1.4,Win32,59.17159763,,,,,,,,,,,,,,158,babrá,,,,,,93.9204,95.2701,0,1,0.8108,,0,22,22,157,1,pseudoword,0,REAL,FALSA
,,,,,,,,,627be8df969ba21063c8a31f,001,2025-05-07_11h46.12.004,empathy_intonation_perc,2024.1.4,Win32,59.17159763,,,,,,,,,,,,,,166,anfia,,,,,,95.2707,96.5708,0,1,0.7517,,0,23,23,165,1,pseudoword,0,REAL,FALSA
,,,,,,,,,627be8df969ba21063c8a31f,001,2025-05-07_11h46.12.004,empathy_intonation_perc,2024.1.4,Win32,59.17159763,,,,,,,,,,,,,,109,laras,,,,,,96.5714,98.0047,0,1,0.8857,,0,24,24,108,1,pseudoword,0,REAL,FALSA
,,,,,,,,,627be8df969ba21063c8a31f,001,2025-05-07_11h46.12.004,empathy_intonation_perc,2024.1.4,Win32,59.17159763,,,,,,,,,,,,,,107,plago,,,,,,98.0052,99.0715,1,0,0.5239,,0,25,25,106,1,pseudoword,0,REAL,FALSA
,,,,,,,,,627be8df969ba21063c8a31f,001,2025-05-07_11h46.12.004,empathy_intonation_perc,2024.1.4,Win32,59.17159763,,,,,,,,,,,,,,168,cobén,,,,,,99.0721,100.5051,0,1,0.8938,,0,26,26,167,1,pseudoword,0,REAL,FALSA
,,,,,,,,,627be8df969ba21063c8a31f,001,2025-05-07_11h46.12.004,empathy_intonation_perc,2024.1.4,Win32,59.17159763,,,,,,,,,,,,,,11,golf,,,,,,100.5053,101.8556,1,0,0.8278,,0,27,27,10,1,three_way_cognate,1,REAL,FALSA
,,,,,,,,,627be8df969ba21063c8a31f,001,2025-05-07_11h46.12.004,empathy_intonation_perc,2024.1.4,Win32,59.17159763,,,,,,,,,,,,,,77,suave,,,,,,101.8558,103.4568,1,0,1.069,,0,28,28,76,1,non_cognate,1,REAL,FALSA
,,,,,,,,,627be8df969ba21063c8a31f,001,2025-05-07_11h46.12.004,empathy_intonation_perc,2024.1.4,Win32,59.17159763,,,,,,,,,,,,,,92,flecha,,,,,,103.4573,105.3404,1,0,1.3445,,0,29,29,91,1,non_cognate,1,REAL,FALSA
,,,,,,,,,627be8df969ba21063c8a31f,001,2025-05-07_11h46.12.004,empathy_intonation_perc,2024.1.4,Win32,59.17159763,,,,,,,,,,,,,,68,puñal,,,,,,105.3408,106.6246,0,1,0.7355,,0,30,30,67,1,non_cognate,1,REAL,FALSA
,,,,,,,,,627be8df969ba21063c8a31f,001,2025-05-07_11h46.12.004,empathy_intonation_perc,2024.1.4,Win32,59.17159763,,,,,,,,,,,,,,26,enigma,,,,,,106.6252,107.8582,1,0,0.6907,,0,31,31,25,1,two_way_cognate,1,REAL,FALSA
,,,,,,,,,627be8df969ba21063c8a31f,001,2025-05-07_11h46.12.004,empathy_intonation_perc,2024.1.4,Win32,59.17159763,,,,,,,,,,,,,,138,tator,,,,,,107.8586,109.1757,0,1,0.7708,,0,32,32,137,1,pseudoword,0,REAL,FALSA
,,,,,,,,,627be8df969ba21063c8a31f,001,2025-05-07_11h46.12.004,empathy_intonation_perc,2024.1.4,Win32,59.17159763,,,,,,,,,,,,,,17,clan,,,,,,109.1767,110.5926,1,0,0.8797,,0,33,33,16,1,three_way_cognate,1,REAL,FALSA
,,,,,,,,,627be8df969ba21063c8a31f,001,2025-05-07_11h46.12.004,empathy_intonation_perc,2024.1.4,Win32,59.17159763,,,,,,,,,,,,,,24,retina,,,,,,110.5932,111.91,1,0,0.7694,,0,34,34,23,1,three_way_cognate,1,REAL,FALSA
,,,,,,,,,627be8df969ba21063c8a31f,001,2025-05-07_11h46.12.004,empathy_intonation_perc,2024.1.4,Win32,59.17159763,,,,,,,,,,,,,,163,llzan,,,,,,111.9106,113.5272,0,1,1.0705,,0,35,35,162,1,pseudoword,0,REAL,FALSA
,,,,,,,,,627be8df969ba21063c8a31f,001,2025-05-07_11h46.12.004,empathy_intonation_perc,2024.1.4,Win32,59.17159763,,,,,,,,,,,,,,100,épinas,,,,,,113.5278,116.2611,0,1,2.185,,0,36,36,99,1,pseudoword,0,REAL,FALSA
,,,,,,,,,627be8df969ba21063c8a31f,001,2025-05-07_11h46.12.004,empathy_intonation_perc,2024.1.4,Win32,59.17159763,,,,,,,,,,,,,,80,cuenco,,,,,,116.2614,117.5121,0,1,0.7246,,0,37,37,79,1,non_cognate,1,REAL,FALSA
,,,,,,,,,627be8df969ba21063c8a31f,001,2025-05-07_11h46.12.004,empathy_intonation_perc,2024.1.4,Win32,59.17159763,,,,,,,,,,,,,,81,sacar,,,,,,117.5127,118.8788,1,0,0.8175,,0,38,38,80,1,non_cognate,1,REAL,FALSA
,,,,,,,,,627be8df969ba21063c8a31f,001,2025-05-07_11h46.12.004,empathy_intonation_perc,2024.1.4,Win32,59.17159763,,,,,,,,,,,,,,36,viable,,,,,,118.8791,120.2132,1,0,0.8022,,0,39,39,35,1,two_way_cognate,1,REAL,FALSA
,,,,,,,,,627be8df969ba21063c8a31f,001,2025-05-07_11h46.12.004,empathy_intonation_perc,2024.1.4,Win32,59.17159763,,,,,,,,,,,,,,126,tobre,,,,,,120.2137,121.5137,0,1,0.7521,,0,40,40,125,1,pseudoword,0,REAL,FALSA
,,,,,,,,,627be8df969ba21063c8a31f,001,2025-05-07_11h46.12.004,empathy_intonation_perc,2024.1.4,Win32,59.17159763,,,,,,,,,,,,,,49,teñir,,,,,,121.5143,123.5977,1,0,1.5352,,0,41,41,48,1,non_cognate,1,REAL,FALSA
,,,,,,,,,627be8df969ba21063c8a31f,001,2025-05-07_11h46.12.004,empathy_intonation_perc,2024.1.4,Win32,59.17159763,,,,,,,,,,,,,,134,molor,,,,,,123.5982,124.7483,0,1,0.6014,,0,42,42,133,1,pseudoword,0,REAL,FALSA
,,,,,,,,,627be8df969ba21063c8a31f,001,2025-05-07_11h46.12.004,empathy_intonation_perc,2024.1.4,Win32,59.17159763,,,,,,,,,,,,,,191,frasis,,,,,,124.7489,125.882,0,1,0.5964,,0,43,43,190,1,pseudoword,0,REAL,FALSA
,,,,,,,,,627be8df969ba21063c8a31f,001,2025-05-07_11h46.12.004,empathy_intonation_perc,2024.1.4,Win32,59.17159763,,,,,,,,,,,,,,56,pico,,,,,,125.8825,127.0489,1,0,0.6197,,0,44,44,55,1,non_cognate,1,REAL,FALSA
,,,,,,,,,627be8df969ba21063c8a31f,001,2025-05-07_11h46.12.004,empathy_intonation_perc,2024.1.4,Win32,59.17159763,,,,,,,,,,,,,,10,drama,,,,,,127.0494,128.1829,1,0,0.5851,,0,45,45,9,1,three_way_cognate,1,REAL,FALSA
,,,,,,,,,627be8df969ba21063c8a31f,001,2025-05-07_11h46.12.004,empathy_intonation_perc,2024.1.4,Win32,59.17159763,,,,,,,,,,,,,,57,regalo,,,,,,128.1837,129.7331,1,0,1.0057,,0,46,46,56,1,non_cognate,1,REAL,FALSA
,,,,,,,,,627be8df969ba21063c8a31f,001,2025-05-07_11h46.12.004,empathy_intonation_perc,2024.1.4,Win32,59.17159763,,,,,,,,,,,,,,91,equipo,,,,,,129.7334,131.4842,1,0,1.2188,,0,47,47,90,1,non_cognate,1,REAL,FALSA
,,,,,,,,,627be8df969ba21063c8a31f,001,2025-05-07_11h46.12.004,empathy_intonation_perc,2024.1.4,Win32,59.17159763,,,,,,,,,,,,,,31,civil,,,,,,131.4847,132.6345,1,0,0.6026,,0,48,48,30,1,two_way_cognate,1,REAL,FALSA
,,,,,,,,,627be8df969ba21063c8a31f,001,2025-05-07_11h46.12.004,empathy_intonation_perc,2024.1.4,Win32,59.17159763,,,,,,,,,,,,,,185,aljizo,,,,,,132.635,133.7682,0,1,0.5865,,0,49,49,184,1,pseudoword,0,REAL,FALSA
,,,,,,,,,627be8df969ba21063c8a31f,001,2025-05-07_11h46.12.004,empathy_intonation_perc,2024.1.4,Win32,59.17159763,,,,,,,,,,,,,,125,ceme,,,,,,133.7688,135.0023,0,1,0.6911,,0,50,50,124,1,pseudoword,0,REAL,FALSA
,,,,,,,,,627be8df969ba21063c8a31f,001,2025-05-07_11h46.12.004,empathy_intonation_perc,2024.1.4,Win32,59.17159763,,,,,,,,,,,,,,153,golla,,,,,,135.0028,136.4029,0,1,0.8629,,0,51,51,152,1,pseudoword,0,REAL,FALSA
,,,,,,,,,627be8df969ba21063c8a31f,001,2025-05-07_11h46.12.004,empathy_intonation_perc,2024.1.4,Win32,59.17159763,,,,,,,,,,,,,,59,feo,,,,,,136.4036,137.7865,0,1,0.8351,,0,52,52,58,1,non_cognate,1,REAL,FALSA
,,,,,,,,,627be8df969ba21063c8a31f,001,2025-05-07_11h46.12.004,empathy_intonation_perc,2024.1.4,Win32,59.17159763,,,,,,,,,,,,,,89,muñeca,,,,,,137.7871,139.2039,0,1,0.8683,,0,53,53,88,1,non_cognate,1,REAL,FALSA
,,,,,,,,,627be8df969ba21063c8a31f,001,2025-05-07_11h46.12.004,empathy_intonation_perc,2024.1.4,Win32,59.17159763,,,,,,,,,,,,,,38,halo,,,,,,139.2045,140.6376,0,1,0.8862,,0,54,54,37,1,two_way_cognate,1,REAL,FALSA
,,,,,,,,,627be8df969ba21063c8a31f,001,2025-05-07_11h46.12.004,empathy_intonation_perc,2024.1.4,Win32,59.17159763,,,,,,,,,,,,,,87,muleta,,,,,,140.6383,141.8881,0,1,0.7013,,0,55,55,86,1,non_cognate,1,REAL,FALSA
,,,,,,,,,627be8df969ba21063c8a31f,001,2025-05-07_11h46.12.004,empathy_intonation_perc,2024.1.4,Win32,59.17159763,,,,,,,,,,,,,,41,pasta,,,,,,141.8888,143.1218,1,0,0.6899,,0,56,56,40,1,two_way_cognate,1,REAL,FALSA
,,,,,,,,,627be8df969ba21063c8a31f,001,2025-05-07_11h46.12.004,empathy_intonation_perc,2024.1.4,Win32,59.17159763,,,,,,,,,,,,,,144,diroco,,,,,,143.1223,144.389,0,1,0.724,,0,57,57,143,1,pseudoword,0,REAL,FALSA
,,,,,,,,,627be8df969ba21063c8a31f,001,2025-05-07_11h46.12.004,empathy_intonation_perc,2024.1.4,Win32,59.17159763,,,,,,,,,,,,,,188,amplir,,,,,,144.3896,145.7568,1,0,0.8294,,0,58,58,187,1,pseudoword,0,REAL,FALSA
,,,,,,,,,627be8df969ba21063c8a31f,001,2025-05-07_11h46.12.004,empathy_intonation_perc,2024.1.4,Win32,59.17159763,,,,,,,,,,,,,,15,test,,,,,,145.7575,147.0234,1,0,0.7179,,0,59,59,14,1,three_way_cognate,1,REAL,FALSA
,,,,,,,,,627be8df969ba21063c8a31f,001,2025-05-07_11h46.12.004,empathy_intonation_perc,2024.1.4,Win32,59.17159763,,,,,,,,,,,,,,13,plan,,,,,,147.024,148.4243,1,0,0.8502,,0,60,60,12,1,three_way_cognate,1,REAL,FALSA
,,,,,,,,,627be8df969ba21063c8a31f,001,2025-05-07_11h46.12.004,empathy_intonation_perc,2024.1.4,Win32,59.17159763,,,,,,,,,,,,,,8,kilo,,,,,,148.4246,149.6245,1,0,0.6557,,0,61,61,7,1,three_way_cognate,1,REAL,FALSA
,,,,,,,,,627be8df969ba21063c8a31f,001,2025-05-07_11h46.12.004,empathy_intonation_perc,2024.1.4,Win32,59.17159763,,,,,,,,,,,,,,22,mango,,,,,,149.6251,150.7416,1,0,0.5723,,0,62,62,21,1,three_way_cognate,1,REAL,FALSA
,,,,,,,,,627be8df969ba21063c8a31f,001,2025-05-07_11h46.12.004,empathy_intonation_perc,2024.1.4,Win32,59.17159763,,,,,,,,,,,,,,45,total,,,,,,150.7422,151.8253,1,0,0.5407,,0,63,63,44,1,two_way_cognate,1,REAL,FALSA
,,,,,,,,,627be8df969ba21063c8a31f,001,2025-05-07_11h46.12.004,empathy_intonation_perc,2024.1.4,Win32,59.17159763,,,,,,,,,,,,,,88,percha,,,,,,151.8259,153.3259,0,1,0.9556,,0,64,64,87,1,non_cognate,1,REAL,FALSA
,,,,,,,,,627be8df969ba21063c8a31f,001,2025-05-07_11h46.12.004,empathy_intonation_perc,2024.1.4,Win32,59.17159763,,,,,,,,,,,,,,148,gino,,,,,,153.3266,154.9256,1,0,1.0569,,0,65,65,147,1,pseudoword,0,REAL,FALSA
,,,,,,,,,627be8df969ba21063c8a31f,001,2025-05-07_11h46.12.004,empathy_intonation_perc,2024.1.4,Win32,59.17159763,,,,,,,,,,,,,,111,monue,,,,,,154.926,156.1938,0,1,0.7346,,0,66,66,110,1,pseudoword,0,REAL,FALSA
,,,,,,,,,627be8df969ba21063c8a31f,001,2025-05-07_11h46.12.004,empathy_intonation_perc,2024.1.4,Win32,59.17159763,,,,,,,,,,,,,,40,pelvis,,,,,,156.1943,157.4774,1,0,0.7346,,0,67,67,39,1,two_way_cognate,1,REAL,FALSA
,,,,,,,,,627be8df969ba21063c8a31f,001,2025-05-07_11h46.12.004,empathy_intonation_perc,2024.1.4,Win32,59.17159763,,,,,,,,,,,,,,43,honor,,,,,,157.4782,159.5282,1,0,1.5088,,0,68,68,42,1,two_way_cognate,1,REAL,FALSA
,,,,,,,,,627be8df969ba21063c8a31f,001,2025-05-07_11h46.12.004,empathy_intonation_perc,2024.1.4,Win32,59.17159763,,,,,,,,,,,,,,122,boñaz,,,,,,159.5287,160.6954,0,1,0.6189,,0,69,69,121,1,pseudoword,0,REAL,FALSA
,,,,,,,,,627be8df969ba21063c8a31f,001,2025-05-07_11h46.12.004,empathy_intonation_perc,2024.1.4,Win32,59.17159763,,,,,,,,,,,,,,179,suelet,,,,,,160.6959,162.0291,0,1,0.7889,,0,70,70,178,1,pseudoword,0,REAL,FALSA
,,,,,,,,,627be8df969ba21063c8a31f,001,2025-05-07_11h46.12.004,empathy_intonation_perc,2024.1.4,Win32,59.17159763,,,,,,,,,,,,,,172,dogue,,,,,,162.0297,163.4629,0,1,0.8909,,0,71,71,171,1,pseudoword,0,REAL,FALSA
,,,,,,,,,627be8df969ba21063c8a31f,001,2025-05-07_11h46.12.004,empathy_intonation_perc,2024.1.4,Win32,59.17159763,,,,,,,,,,,,,,123,arane,,,,,,163.4634,165.664,0,1,1.6506,,0,72,72,122,1,pseudoword,0,REAL,FALSA
,,,,,,,,,627be8df969ba21063c8a31f,001,2025-05-07_11h46.12.004,empathy_intonation_perc,2024.1.4,Win32,59.17159763,,,,,,,,,,,,,,182,desaro,,,,,,165.6646,167.1645,1,0,0.9554,,0,73,73,181,1,pseudoword,0,REAL,FALSA
,,,,,,,,,627be8df969ba21063c8a31f,001,2025-05-07_11h46.12.004,empathy_intonation_perc,2024.1.4,Win32,59.17159763,,,,,,,,,,,,,,47,color,,,,,,167.1651,168.3487,1,0,0.6459,,0,74,74,46,1,two_way_cognate,1,REAL,FALSA
,,,,,,,,,627be8df969ba21063c8a31f,001,2025-05-07_11h46.12.004,empathy_intonation_perc,2024.1.4,Win32,59.17159763,,,,,,,,,,,,,,143,hurcos,,,,,,168.3493,169.482,0,1,0.5923,,0,75,75,142,1,pseudoword,0,REAL,FALSA
,,,,,,,,,627be8df969ba21063c8a31f,001,2025-05-07_11h46.12.004,empathy_intonation_perc,2024.1.4,Win32,59.17159763,,,,,,,,,,,,,,140,chorde,,,,,,169.4827,170.9656,0,1,0.9372,,0,76,76,139,1,pseudoword,0,REAL,FALSA
,,,,,,,,,627be8df969ba21063c8a31f,001,2025-05-07_11h46.12.004,empathy_intonation_perc,2024.1.4,Win32,59.17159763,,,,,,,,,,,,,,14,aura,,,,,,170.9658,172.1331,1,0,0.6424,,0,77,77,13,1,three_way_cognate,1,REAL,FALSA
,,,,,,,,,627be8df969ba21063c8a31f,001,2025-05-07_11h46.12.004,empathy_intonation_perc,2024.1.4,Win32,59.17159763,,,,,,,,,,,,,,70,ánimo,,,,,,172.1337,173.4336,1,0,0.7515,,0,78,78,69,1,non_cognate,1,REAL,FALSA
,,,,,,,,,627be8df969ba21063c8a31f,001,2025-05-07_11h46.12.004,empathy_intonation_perc,2024.1.4,Win32,59.17159763,,,,,,,,,,,,,,42,rumor,,,,,,173.4342,175.7677,1,0,1.791,,0,79,79,41,1,two_way_cognate,1,REAL,FALSA
,,,,,,,,,627be8df969ba21063c8a31f,001,2025-05-07_11h46.12.004,empathy_intonation_perc,2024.1.4,Win32,59.17159763,,,,,,,,,,,,,,20,trauma,,,,,,175.7682,176.885,1,0,0.5721,,0,80,80,19,1,three_way_cognate,1,REAL,FALSA
,,,,,,,,,627be8df969ba21063c8a31f,001,2025-05-07_11h46.12.004,empathy_intonation_perc,2024.1.4,Win32,59.17159763,,,,,,,,,,,,,,99,bugor,,,,,,176.8856,177.9853,0,1,0.5528,,0,81,81,98,1,pseudoword,0,REAL,FALSA
,,,,,,,,,627be8df969ba21063c8a31f,001,2025-05-07_11h46.12.004,empathy_intonation_perc,2024.1.4,Win32,59.17159763,,,,,,,,,,,,,,113,nasce,,,,,,177.986,179.4859,1,0,0.9518,,0,82,82,112,1,pseudoword,0,REAL,FALSA
,,,,,,,,,627be8df969ba21063c8a31f,001,2025-05-07_11h46.12.004,empathy_intonation_perc,2024.1.4,Win32,59.17159763,,,,,,,,,,,,,,181,gravés,,,,,,179.4865,181.1197,1,0,1.085,,0,83,83,180,1,pseudoword,0,REAL,FALSA
,,,,,,,,,627be8df969ba21063c8a31f,001,2025-05-07_11h46.12.004,empathy_intonation_perc,2024.1.4,Win32,59.17159763,,,,,,,,,,,,,,177,entodo,,,,,,181.1202,182.3369,0,1,0.6671,,0,84,84,176,1,pseudoword,0,REAL,FALSA
,,,,,,,,,627be8df969ba21063c8a31f,001,2025-05-07_11h46.12.004,empathy_intonation_perc,2024.1.4,Win32,59.17159763,,,,,,,,,,,,,,108,jauda,,,,,,182.3373,183.5375,0,1,0.6524,,0,85,85,107,1,pseudoword,0,REAL,FALSA
,,,,,,,,,627be8df969ba21063c8a31f,001,2025-05-07_11h46.12.004,empathy_intonation_perc,2024.1.4,Win32,59.17159763,,,,,,,,,,,,,,28,ardor,,,,,,183.5382,185.0547,0,1,0.9691,,0,86,86,27,1,two_way_cognate,1,REAL,FALSA
,,,,,,,,,627be8df969ba21063c8a31f,001,2025-05-07_11h46.12.004,empathy_intonation_perc,2024.1.4,Win32,59.17159763,,,,,,,,,,,,,,21,hotel,,,,,,185.0555,186.1882,1,0,0.5943,,0,87,87,20,1,three_way_cognate,1,REAL,FALSA
,,,,,,,,,627be8df969ba21063c8a31f,001,2025-05-07_11h46.12.004,empathy_intonation_perc,2024.1.4,Win32,59.17159763,,,,,,,,,,,,,,130,dubo,,,,,,186.1887,187.4556,0,1,0.7229,,0,88,88,129,1,pseudoword,0,REAL,FALSA
,,,,,,,,,627be8df969ba21063c8a31f,001,2025-05-07_11h46.12.004,empathy_intonation_perc,2024.1.4,Win32,59.17159763,,,,,,,,,,,,,,7,albino,,,,,,187.4562,188.7066,1,0,0.7132,,0,89,89,6,1,three_way_cognate,1,REAL,FALSA
,,,,,,,,,627be8df969ba21063c8a31f,001,2025-05-07_11h46.12.004,empathy_intonation_perc,2024.1.4,Win32,59.17159763,,,,,,,,,,,,,,32,animal,,,,,,188.7075,189.7731,1,0,0.5204,,0,90,90,31,1,two_way_cognate,1,REAL,FALSA
,,,,,,,,,627be8df969ba21063c8a31f,001,2025-05-07_11h46.12.004,empathy_intonation_perc,2024.1.4,Win32,59.17159763,,,,,,,,,,,,,,176,gripar,,,,,,189.7737,190.9737,0,1,0.6574,,0,91,91,175,1,pseudoword,0,REAL,FALSA
,,,,,,,,,627be8df969ba21063c8a31f,001,2025-05-07_11h46.12.004,empathy_intonation_perc,2024.1.4,Win32,59.17159763,,,,,,,,,,,,,,30,fiscal,,,,,,190.9743,192.6575,1,0,1.1459,,0,92,92,29,1,two_way_cognate,1,REAL,FALSA
,,,,,,,,,627be8df969ba21063c8a31f,001,2025-05-07_11h46.12.004,empathy_intonation_perc,2024.1.4,Win32,59.17159763,,,,,,,,,,,,,,105,peniz,,,,,,192.658,193.9911,0,1,0.7947,,0,93,93,104,1,pseudoword,0,REAL,FALSA
,,,,,,,,,627be8df969ba21063c8a31f,001,2025-05-07_11h46.12.004,empathy_intonation_perc,2024.1.4,Win32,59.17159763,,,,,,,,,,,,,,101,losco,,,,,,193.9916,196.1757,0,1,1.6386,,0,94,94,100,1,pseudoword,0,REAL,FALSA
,,,,,,,,,627be8df969ba21063c8a31f,001,2025-05-07_11h46.12.004,empathy_intonation_perc,2024.1.4,Win32,59.17159763,,,,,,,,,,,,,,12,dogma,,,,,,196.1763,197.5929,1,0,0.8689,,0,95,95,11,1,three_way_cognate,1,REAL,FALSA
,,,,,,,,,627be8df969ba21063c8a31f,001,2025-05-07_11h46.12.004,empathy_intonation_perc,2024.1.4,Win32,59.17159763,,,,,,,,,,,,,,167,dobbo,,,,,,197.5935,198.843,0,1,0.7068,,0,96,96,166,1,pseudoword,0,REAL,FALSA
,,,,,,,,,627be8df969ba21063c8a31f,001,2025-05-07_11h46.12.004,empathy_intonation_perc,2024.1.4,Win32,59.17159763,,,,,,,,,,,,,,72,rostro,,,,,,198.8432,200.0433,0,1,0.6787,,0,97,97,71,1,non_cognate,1,REAL,FALSA
,,,,,,,,,627be8df969ba21063c8a31f,001,2025-05-07_11h46.12.004,empathy_intonation_perc,2024.1.4,Win32,59.17159763,,,,,,,,,,,,,,73,llevar,,,,,,200.0436,201.5275,1,0,0.9426,,0,98,98,72,1,non_cognate,1,REAL,FALSA
,,,,,,,,,627be8df969ba21063c8a31f,001,2025-05-07_11h46.12.004,empathy_intonation_perc,2024.1.4,Win32,59.17159763,,,,,,,,,,,,,,29,clamor,,,,,,201.528,204.9457,0,1,2.8756,,0,99,99,28,1,two_way_cognate,1,REAL,FALSA
,,,,,,,,,627be8df969ba21063c8a31f,001,2025-05-07_11h46.12.004,empathy_intonation_perc,2024.1.4,Win32,59.17159763,,,,,,,,,,,,,,164,tecia,,,,,,204.9462,206.1123,0,1,0.6278,,0,100,100,163,1,pseudoword,0,REAL,FALSA
,,,,,,,,,627be8df969ba21063c8a31f,001,2025-05-07_11h46.12.004,empathy_intonation_perc,2024.1.4,Win32,59.17159763,,,,,,,,,,,,,,19,mafia,,,,,,206.1128,207.6634,1,0,1.0231,,0,101,101,18,1,three_way_cognate,1,REAL,FALSA
,,,,,,,,,627be8df969ba21063c8a31f,001,2025-05-07_11h46.12.004,empathy_intonation_perc,2024.1.4,Win32,59.17159763,,,,,,,,,,,,,,159,trcia,,,,,,207.664,209.1973,0,1,0.9876,,0,102,102,158,1,pseudoword,0,REAL,FALSA
,,,,,,,,,627be8df969ba21063c8a31f,001,2025-05-07_11h46.12.004,empathy_intonation_perc,2024.1.4,Win32,59.17159763,,,,,,,,,,,,,,34,actor,,,,,,209.1979,211.3147,1,0,1.5727,,0,103,103,33,1,two_way_cognate,1,REAL,FALSA
,,,,,,,,,627be8df969ba21063c8a31f,001,2025-05-07_11h46.12.004,empathy_intonation_perc,2024.1.4,Win32,59.17159763,,,,,,,,,,,,,,52,blando,,,,,,211.3152,213.1819,0,1,1.3279,,0,104,104,51,1,non_cognate,1,REAL,FALSA
,,,,,,,,,627be8df969ba21063c8a31f,001,2025-05-07_11h46.12.004,empathy_intonation_perc,2024.1.4,Win32,59.17159763,,,,,,,,,,,,,,135,panté,,,,,,213.1825,214.3824,0,1,0.6614,,0,105,105,134,1,pseudoword,0,REAL,FALSA
,,,,,,,,,627be8df969ba21063c8a31f,001,2025-05-07_11h46.12.004,empathy_intonation_perc,2024.1.4,Win32,59.17159763,,,,,,,,,,,,,,139,sasos,,,,,,214.383,215.5823,0,1,0.6517,,0,106,106,138,1,pseudoword,0,REAL,FALSA
,,,,,,,,,627be8df969ba21063c8a31f,001,2025-05-07_11h46.12.004,empathy_intonation_perc,2024.1.4,Win32,59.17159763,,,,,,,,,,,,,,86,cuenco,,,,,,215.5827,216.7201,0,1,0.6176,,0,107,107,85,1,non_cognate,1,REAL,FALSA
,,,,,,,,,627be8df969ba21063c8a31f,001,2025-05-07_11h46.12.004,empathy_intonation_perc,2024.1.4,Win32,59.17159763,,,,,,,,,,,,,,79,suelo,,,,,,216.7206,218.0673,0,1,0.8111,,0,108,108,78,1,non_cognate,1,REAL,FALSA
,,,,,,,,,627be8df969ba21063c8a31f,001,2025-05-07_11h46.12.004,empathy_intonation_perc,2024.1.4,Win32,59.17159763,,,,,,,,,,,,,,137,trugo,,,,,,218.0679,219.2345,0,1,0.6187,,0,109,109,136,1,pseudoword,0,REAL,FALSA
,,,,,,,,,627be8df969ba21063c8a31f,001,2025-05-07_11h46.12.004,empathy_intonation_perc,2024.1.4,Win32,59.17159763,,,,,,,,,,,,,,117,morrá,,,,,,219.2352,220.4351,0,1,0.6541,,0,110,110,116,1,pseudoword,0,REAL,FALSA
,,,,,,,,,627be8df969ba21063c8a31f,001,2025-05-07_11h46.12.004,empathy_intonation_perc,2024.1.4,Win32,59.17159763,,,,,,,,,,,,,,183,edioso,,,,,,220.4357,222.4348,0,1,1.4639,,0,111,111,182,1,pseudoword,0,REAL,FALSA
,,,,,,,,,627be8df969ba21063c8a31f,001,2025-05-07_11h46.12.004,empathy_intonation_perc,2024.1.4,Win32,59.17159763,,,,,,,,,,,,,,104,estulo,,,,,,222.4353,223.9864,1,0,1.019,,0,112,112,103,1,pseudoword,0,REAL,FALSA
,,,,,,,,,627be8df969ba21063c8a31f,001,2025-05-07_11h46.12.004,empathy_intonation_perc,2024.1.4,Win32,59.17159763,,,,,,,,,,,,,,178,inichó,,,,,,223.9871,225.1533,0,1,0.6192,,0,113,113,177,1,pseudoword,0,REAL,FALSA
,,,,,,,,,627be8df969ba21063c8a31f,001,2025-05-07_11h46.12.004,empathy_intonation_perc,2024.1.4,Win32,59.17159763,,,,,,,,,,,,,,75,patada,,,,,,225.1539,226.804,0,1,1.1104,,0,114,114,74,1,non_cognate,1,REAL,FALSA
,,,,,,,,,627be8df969ba21063c8a31f,001,2025-05-07_11h46.12.004,empathy_intonation_perc,2024.1.4,Win32,59.17159763,,,,,,,,,,,,,,46,mortal,,,,,,226.8046,228.0877,1,0,0.7345,,0,115,115,45,1,two_way_cognate,1,REAL,FALSA
,,,,,,,,,627be8df969ba21063c8a31f,001,2025-05-07_11h46.12.004,empathy_intonation_perc,2024.1.4,Win32,59.17159763,,,,,,,,,,,,,,169,pitis,,,,,,228.088,229.4554,0,1,0.8295,,0,116,116,168,1,pseudoword,0,REAL,FALSA
,,,,,,,,,627be8df969ba21063c8a31f,001,2025-05-07_11h46.12.004,empathy_intonation_perc,2024.1.4,Win32,59.17159763,,,,,,,,,,,,,,95,listo,,,,,,229.456,230.5713,0,1,0.5763,,0,117,117,94,1,non_cognate,1,REAL,FALSA
,,,,,,,,,627be8df969ba21063c8a31f,001,2025-05-07_11h46.12.004,empathy_intonation_perc,2024.1.4,Win32,59.17159763,,,,,,,,,,,,,,187,nomata,,,,,,230.5716,231.9055,0,1,0.8093,,0,118,118,186,1,pseudoword,0,REAL,FALSA
,,,,,,,,,627be8df969ba21063c8a31f,001,2025-05-07_11h46.12.004,empathy_intonation_perc,2024.1.4,Win32,59.17159763,,,,,,,,,,,,,,141,virios,,,,,,231.9058,233.44,0,1,1.0015,,0,119,119,140,1,pseudoword,0,REAL,FALSA
,,,,,,,,,627be8df969ba21063c8a31f,001,2025-05-07_11h46.12.004,empathy_intonation_perc,2024.1.4,Win32,59.17159763,,,,,,,,,,,,,,83,hálito,,,,,,233.4406,234.6739,0,1,0.6835,,0,120,120,82,1,non_cognate,1,REAL,FALSA
,,,,,,,,,627be8df969ba21063c8a31f,001,2025-05-07_11h46.12.004,empathy_intonation_perc,2024.1.4,Win32,59.17159763,,,,,,,,,,,,,,97,nocita,,,,,,234.6746,236.5079,0,1,1.2866,,0,121,121,96,1,pseudoword,0,REAL,FALSA
,,,,,,,,,627be8df969ba21063c8a31f,001,2025-05-07_11h46.12.004,empathy_intonation_perc,2024.1.4,Win32,59.17159763,,,,,,,,,,,,,,152,prave,,,,,,236.5085,237.925,0,1,0.8773,,0,122,122,151,1,pseudoword,0,REAL,FALSA
,,,,,,,,,627be8df969ba21063c8a31f,001,2025-05-07_11h46.12.004,empathy_intonation_perc,2024.1.4,Win32,59.17159763,,,,,,,,,,,,,,85,enorme,,,,,,237.9256,239.0922,1,0,0.628,,0,123,123,84,1,non_cognate,1,REAL,FALSA
,,,,,,,,,627be8df969ba21063c8a31f,001,2025-05-07_11h46.12.004,empathy_intonation_perc,2024.1.4,Win32,59.17159763,,,,,,,,,,,,,,171,gotro,,,,,,239.0931,240.4428,0,1,0.8019,,0,124,124,170,1,pseudoword,0,REAL,FALSA
,,,,,,,,,627be8df969ba21063c8a31f,001,2025-05-07_11h46.12.004,empathy_intonation_perc,2024.1.4,Win32,59.17159763,,,,,,,,,,,,,,67,llamar,,,,,,240.4434,241.7433,1,0,0.7594,,0,125,125,66,1,non_cognate,1,REAL,FALSA
,,,,,,,,,627be8df969ba21063c8a31f,001,2025-05-07_11h46.12.004,empathy_intonation_perc,2024.1.4,Win32,59.17159763,,,,,,,,,,,,,,58,colcha,,,,,,241.7441,244.444,0,1,2.1593,,0,126,126,57,1,non_cognate,1,REAL,FALSA
,,,,,,,,,627be8df969ba21063c8a31f,001,2025-05-07_11h46.12.004,empathy_intonation_perc,2024.1.4,Win32,59.17159763,,,,,,,,,,,,,,115,lidena,,,,,,244.4446,246.2446,0,1,1.2516,,0,127,127,114,1,pseudoword,0,REAL,FALSA
,,,,,,,,,627be8df969ba21063c8a31f,001,2025-05-07_11h46.12.004,empathy_intonation_perc,2024.1.4,Win32,59.17159763,,,,,,,,,,,,,,44,editor,,,,,,246.245,247.4616,1,0,0.6767,,0,128,128,43,1,two_way_cognate,1,REAL,FALSA
,,,,,,,,,627be8df969ba21063c8a31f,001,2025-05-07_11h46.12.004,empathy_intonation_perc,2024.1.4,Win32,59.17159763,,,,,,,,,,,,,,48,pelvis,,,,,,247.4619,249.2628,1,0,1.2518,,0,129,129,47,1,two_way_cognate,1,REAL,FALSA
,,,,,,,,,627be8df969ba21063c8a31f,001,2025-05-07_11h46.12.004,empathy_intonation_perc,2024.1.4,Win32,59.17159763,,,,,,,,,,,,,,131,fuar,,,,,,249.2633,250.4465,0,1,0.6455,,0,130,130,130,1,pseudoword,0,REAL,FALSA
,,,,,,,,,627be8df969ba21063c8a31f,001,2025-05-07_11h46.12.004,empathy_intonation_perc,2024.1.4,Win32,59.17159763,,,,,,,,,,,,,,110,densó,,,,,,250.4472,251.73,0,1,0.7447,,0,131,131,109,1,pseudoword,0,REAL,FALSA
,,,,,,,,,627be8df969ba21063c8a31f,001,2025-05-07_11h46.12.004,empathy_intonation_perc,2024.1.4,Win32,59.17159763,,,,,,,,,,,,,,2,tumor,,,,,,251.7305,253.5143,1,0,1.2349,,0,132,132,1,1,three_way_cognate,1,REAL,FALSA
,,,,,,,,,627be8df969ba21063c8a31f,001,2025-05-07_11h46.12.004,empathy_intonation_perc,2024.1.4,Win32,59.17159763,,,,,,,,,,,,,,112,samón,,,,,,253.5149,255.2983,1,0,1.235,,0,133,133,111,1,pseudoword,0,REAL,FALSA
,,,,,,,,,627be8df969ba21063c8a31f,001,2025-05-07_11h46.12.004,empathy_intonation_perc,2024.1.4,Win32,59.17159763,,,,,,,,,,,,,,173,mibro,,,,,,255.299,256.6155,0,1,0.7687,,0,134,134,172,1,pseudoword,0,REAL,FALSA
,,,,,,,,,627be8df969ba21063c8a31f,001,2025-05-07_11h46.12.004,empathy_intonation_perc,2024.1.4,Win32,59.17159763,,,,,,,,,,,,,,51,listo,,,,,,256.6162,257.799,1,0,0.6446,,0,135,135,50,1,non_cognate,1,REAL,FALSA
,,,,,,,,,627be8df969ba21063c8a31f,001,2025-05-07_11h46.12.004,empathy_intonation_perc,2024.1.4,Win32,59.17159763,,,,,,,,,,,,,,192,próces,,,,,,257.7998,259.4331,1,0,1.0847,,0,136,136,191,1,pseudoword,0,REAL,FALSA
,,,,,,,,,627be8df969ba21063c8a31f,001,2025-05-07_11h46.12.004,empathy_intonation_perc,2024.1.4,Win32,59.17159763,,,,,,,,,,,,,,98,martir,,,,,,259.4337,261.0004,0,1,1.0182,,0,137,137,97,1,pseudoword,0,REAL,FALSA
,,,,,,,,,627be8df969ba21063c8a31f,001,2025-05-07_11h46.12.004,empathy_intonation_perc,2024.1.4,Win32,59.17159763,,,,,,,,,,,,,,114,dibrea,,,,,,261.001,262.2841,0,1,0.7457,,0,138,138,113,1,pseudoword,0,REAL,FALSA
,,,,,,,,,627be8df969ba21063c8a31f,001,2025-05-07_11h46.12.004,empathy_intonation_perc,2024.1.4,Win32,59.17159763,,,,,,,,,,,,,,180,pupica,,,,,,262.2846,263.6848,0,1,0.8513,,0,139,139,179,1,pseudoword,0,REAL,FALSA
,,,,,,,,,627be8df969ba21063c8a31f,001,2025-05-07_11h46.12.004,empathy_intonation_perc,2024.1.4,Win32,59.17159763,,,,,,,,,,,,,,27,piano,,,,,,263.6853,264.7685,1,0,0.5446,,0,140,140,26,1,two_way_cognate,1,REAL,FALSA
,,,,,,,,,627be8df969ba21063c8a31f,001,2025-05-07_11h46.12.004,empathy_intonation_perc,2024.1.4,Win32,59.17159763,,,,,,,,,,,,,,149,emén,,,,,,264.7692,266.5026,0,1,1.1855,,0,141,141,148,1,pseudoword,0,REAL,FALSA
,,,,,,,,,627be8df969ba21063c8a31f,001,2025-05-07_11h46.12.004,empathy_intonation_perc,2024.1.4,Win32,59.17159763,,,,,,,,,,,,,,157,seled,,,,,,266.5032,267.9026,0,1,0.8562,,0,142,142,156,1,pseudoword,0,REAL,FALSA
,,,,,,,,,627be8df969ba21063c8a31f,001,2025-05-07_11h46.12.004,empathy_intonation_perc,2024.1.4,Win32,59.17159763,,,,,,,,,,,,,,39,casual,,,,,,267.9031,269.1867,1,0,0.7446,,0,143,143,38,1,two_way_cognate,1,REAL,FALSA
,,,,,,,,,627be8df969ba21063c8a31f,001,2025-05-07_11h46.12.004,empathy_intonation_perc,2024.1.4,Win32,59.17159763,,,,,,,,,,,,,,136,hueas,,,,,,269.1873,270.604,0,1,0.8765,,0,144,144,135,1,pseudoword,0,REAL,FALSA
,,,,,,,,,627be8df969ba21063c8a31f,001,2025-05-07_11h46.12.004,empathy_intonation_perc,2024.1.4,Win32,59.17159763,,,,,,,,,,,,,,129,vinzó,,,,,,270.6046,271.9707,0,1,0.8185,,0,145,145,128,1,pseudoword,0,REAL,FALSA
,,,,,,,,,627be8df969ba21063c8a31f,001,2025-05-07_11h46.12.004,empathy_intonation_perc,2024.1.4,Win32,59.17159763,,,,,,,,,,,,,,3,disco,,,,,,271.971,273.2045,1,0,0.7068,,0,146,146,2,1,three_way_cognate,1,REAL,FALSA
,,,,,,,,,627be8df969ba21063c8a31f,001,2025-05-07_11h46.12.004,empathy_intonation_perc,2024.1.4,Win32,59.17159763,,,,,,,,,,,,,,60,siglo,,,,,,273.2047,274.4224,0,1,0.6895,,0,147,147,59,1,non_cognate,1,REAL,FALSA
,,,,,,,,,627be8df969ba21063c8a31f,001,2025-05-07_11h46.12.004,empathy_intonation_perc,2024.1.4,Win32,59.17159763,,,,,,,,,,,,,,9,portal,,,,,,274.423,275.8391,1,0,0.8685,,0,148,148,8,1,three_way_cognate,1,REAL,FALSA
,,,,,,,,,627be8df969ba21063c8a31f,001,2025-05-07_11h46.12.004,empathy_intonation_perc,2024.1.4,Win32,59.17159763,,,,,,,,,,,,,,189,medium,,,,,,275.8396,276.9896,1,0,0.6075,,0,149,149,188,1,pseudoword,0,REAL,FALSA
,,,,,,,,,627be8df969ba21063c8a31f,001,2025-05-07_11h46.12.004,empathy_intonation_perc,2024.1.4,Win32,59.17159763,,,,,,,,,,,,,,156,ozoso,,,,,,276.9901,278.1903,0,1,0.6596,,0,150,150,155,1,pseudoword,0,REAL,FALSA
,,,,,,,,,627be8df969ba21063c8a31f,001,2025-05-07_11h46.12.004,empathy_intonation_perc,2024.1.4,Win32,59.17159763,,,,,,,,,,,,,,65,guerra,,,,,,278.1908,279.6904,1,0,0.9564,,0,151,151,64,1,non_cognate,1,REAL,FALSA
,,,,,,,,,627be8df969ba21063c8a31f,001,2025-05-07_11h46.12.004,empathy_intonation_perc,2024.1.4,Win32,59.17159763,,,,,,,,,,,,,,162,cengo,,,,,,279.6907,280.9243,0,1,0.684,,0,152,152,161,1,pseudoword,0,REAL,FALSA
,,,,,,,,,627be8df969ba21063c8a31f,001,2025-05-07_11h46.12.004,empathy_intonation_perc,2024.1.4,Win32,59.17159763,,,,,,,,,,,,,,116,grigir,,,,,,280.9247,282.7254,1,0,1.2682,,0,153,153,115,1,pseudoword,0,REAL,FALSA
,,,,,,,,,627be8df969ba21063c8a31f,001,2025-05-07_11h46.12.004,empathy_intonation_perc,2024.1.4,Win32,59.17159763,,,,,,,,,,,,,,145,rúo,,,,,,282.7261,283.8922,0,1,0.6292,,0,154,154,144,1,pseudoword,0,REAL,FALSA
,,,,,,,,,627be8df969ba21063c8a31f,001,2025-05-07_11h46.12.004,empathy_intonation_perc,2024.1.4,Win32,59.17159763,,,,,,,,,,,,,,161,civas,,,,,,283.8926,285.3264,0,1,0.8849,,0,155,155,160,1,pseudoword,0,REAL,FALSA
,,,,,,,,,627be8df969ba21063c8a31f,001,2025-05-07_11h46.12.004,empathy_intonation_perc,2024.1.4,Win32,59.17159763,,,,,,,,,,,,,,74,ala,,,,,,285.3271,286.4769,0,1,0.6025,,0,156,156,73,1,non_cognate,1,REAL,FALSA
,,,,,,,,,627be8df969ba21063c8a31f,001,2025-05-07_11h46.12.004,empathy_intonation_perc,2024.1.4,Win32,59.17159763,,,,,,,,,,,,,,142,parre,,,,,,286.4775,287.6939,0,1,0.6757,,0,157,157,141,1,pseudoword,0,REAL,FALSA
,,,,,,,,,627be8df969ba21063c8a31f,001,2025-05-07_11h46.12.004,empathy_intonation_perc,2024.1.4,Win32,59.17159763,,,,,,,,,,,,,,5,extra,,,,,,287.6945,288.9112,1,0,0.6682,,0,158,158,4,1,three_way_cognate,1,REAL,FALSA
,,,,,,,,,627be8df969ba21063c8a31f,001,2025-05-07_11h46.12.004,empathy_intonation_perc,2024.1.4,Win32,59.17159763,,,,,,,,,,,,,,55,maldad,,,,,,288.9118,290.3451,0,1,0.8851,,0,159,159,54,1,non_cognate,1,REAL,FALSA
,,,,,,,,,627be8df969ba21063c8a31f,001,2025-05-07_11h46.12.004,empathy_intonation_perc,2024.1.4,Win32,59.17159763,,,,,,,,,,,,,,33,collar,,,,,,290.3457,292.6792,1,0,1.7883,,0,160,160,32,1,two_way_cognate,1,REAL,FALSA
,,,,,,,,,627be8df969ba21063c8a31f,001,2025-05-07_11h46.12.004,empathy_intonation_perc,2024.1.4,Win32,59.17159763,,,,,,,,,,,,,,165,chote,,,,,,292.6799,293.7291,0,1,0.5006,,0,161,161,164,1,pseudoword,0,REAL,FALSA
,,,,,,,,,627be8df969ba21063c8a31f,001,2025-05-07_11h46.12.004,empathy_intonation_perc,2024.1.4,Win32,59.17159763,,,,,,,,,,,,,,37,torso,,,,,,293.7294,294.9296,1,0,0.6683,,0,162,162,36,1,two_way_cognate,1,REAL,FALSA
,,,,,,,,,627be8df969ba21063c8a31f,001,2025-05-07_11h46.12.004,empathy_intonation_perc,2024.1.4,Win32,59.17159763,,,,,,,,,,,,,,78,rendir,,,,,,294.9299,296.1472,0,1,0.6882,,0,163,163,77,1,non_cognate,1,REAL,FALSA
,,,,,,,,,627be8df969ba21063c8a31f,001,2025-05-07_11h46.12.004,empathy_intonation_perc,2024.1.4,Win32,59.17159763,,,,,,,,,,,,,,66,aleta,,,,,,296.1477,297.3978,0,1,0.7018,,0,164,164,65,1,non_cognate,1,REAL,FALSA
,,,,,,,,,627be8df969ba21063c8a31f,001,2025-05-07_11h46.12.004,empathy_intonation_perc,2024.1.4,Win32,59.17159763,,,,,,,,,,,,,,54,tapón,,,,,,297.3984,298.6147,0,1,0.6781,,0,165,165,53,1,non_cognate,1,REAL,FALSA
,,,,,,,,,627be8df969ba21063c8a31f,001,2025-05-07_11h46.12.004,empathy_intonation_perc,2024.1.4,Win32,59.17159763,,,,,,,,,,,,,,62,pegar,,,,,,298.6152,299.7483,0,1,0.5852,,0,166,166,61,1,non_cognate,1,REAL,FALSA
,,,,,,,,,627be8df969ba21063c8a31f,001,2025-05-07_11h46.12.004,empathy_intonation_perc,2024.1.4,Win32,59.17159763,,,,,,,,,,,,,,186,rizate,,,,,,299.7491,301.099,0,1,0.8068,,0,167,167,185,1,pseudoword,0,REAL,FALSA
,,,,,,,,,627be8df969ba21063c8a31f,001,2025-05-07_11h46.12.004,empathy_intonation_perc,2024.1.4,Win32,59.17159763,,,,,,,,,,,,,,69,tiza,,,,,,301.0996,302.6998,0,1,1.0569,,0,168,168,68,1,non_cognate,1,REAL,FALSA
,,,,,,,,,627be8df969ba21063c8a31f,001,2025-05-07_11h46.12.004,empathy_intonation_perc,2024.1.4,Win32,59.17159763,,,,,,,,,,,,,,71,torta,,,,,,302.7004,304.1838,1,0,0.9463,,0,169,169,70,1,non_cognate,1,REAL,FALSA
,,,,,,,,,627be8df969ba21063c8a31f,001,2025-05-07_11h46.12.004,empathy_intonation_perc,2024.1.4,Win32,59.17159763,,,,,,,,,,,,,,155,kugis,,,,,,304.1844,305.2842,0,1,0.5631,,0,170,170,154,1,pseudoword,0,REAL,FALSA
,,,,,,,,,627be8df969ba21063c8a31f,001,2025-05-07_11h46.12.004,empathy_intonation_perc,2024.1.4,Win32,59.17159763,,,,,,,,,,,,,,18,altar,,,,,,305.2848,306.4345,1,0,0.6015,,0,171,171,17,1,three_way_cognate,1,REAL,FALSA
,,,,,,,,,627be8df969ba21063c8a31f,001,2025-05-07_11h46.12.004,empathy_intonation_perc,2024.1.4,Win32,59.17159763,,,,,,,,,,,,,,35,aurora,,,,,,306.4352,308.5684,1,0,1.5945,,0,172,172,34,1,two_way_cognate,1,REAL,FALSA
,,,,,,,,,627be8df969ba21063c8a31f,001,2025-05-07_11h46.12.004,empathy_intonation_perc,2024.1.4,Win32,59.17159763,,,,,,,,,,,,,,50,sierra,,,,,,308.569,309.9691,1,0,0.8524,,0,173,173,49,1,non_cognate,1,REAL,FALSA
,,,,,,,,,627be8df969ba21063c8a31f,001,2025-05-07_11h46.12.004,empathy_intonation_perc,2024.1.4,Win32,59.17159763,,,,,,,,,,,,,,146,gió,,,,,,309.9697,312.17,0,1,1.6584,,0,174,174,145,1,pseudoword,0,REAL,FALSA
,,,,,,,,,627be8df969ba21063c8a31f,001,2025-05-07_11h46.12.004,empathy_intonation_perc,2024.1.4,Win32,59.17159763,,,,,,,,,,,,,,6,horror,,,,,,312.1706,313.3538,1,0,0.6345,,0,175,175,5,1,three_way_cognate,1,REAL,FALSA
,,,,,,,,,627be8df969ba21063c8a31f,001,2025-05-07_11h46.12.004,empathy_intonation_perc,2024.1.4,Win32,59.17159763,,,,,,,,,,,,,,102,coyo,,,,,,313.3544,315.0712,1,0,1.1687,,0,176,176,101,1,pseudoword,0,REAL,FALSA
,,,,,,,,,627be8df969ba21063c8a31f,001,2025-05-07_11h46.12.004,empathy_intonation_perc,2024.1.4,Win32,59.17159763,,,,,,,,,,,,,,147,alla,,,,,,315.0719,316.5382,1,0,0.9277,,0,177,177,146,1,pseudoword,0,REAL,FALSA
,,,,,,,,,627be8df969ba21063c8a31f,001,2025-05-07_11h46.12.004,empathy_intonation_perc,2024.1.4,Win32,59.17159763,,,,,,,,,,,,,,1,moral,,,,,,316.5389,317.7221,1,0,0.6347,,0,178,178,0,1,three_way_cognate,1,REAL,FALSA
,,,,,,,,,627be8df969ba21063c8a31f,001,2025-05-07_11h46.12.004,empathy_intonation_perc,2024.1.4,Win32,59.17159763,,,,,,,,,,,,,,93,tapa,,,,,,317.723,319.1728,0,1,0.9084,,0,179,179,92,1,non_cognate,1,REAL,FALSA
,,,,,,,,,627be8df969ba21063c8a31f,001,2025-05-07_11h46.12.004,empathy_intonation_perc,2024.1.4,Win32,59.17159763,,,,,,,,,,,,,,96,caro,,,,,,319.1734,320.7739,1,0,1.0634,,0,180,180,95,1,non_cognate,1,REAL,FALSA
,,,,,,,,,627be8df969ba21063c8a31f,001,2025-05-07_11h46.12.004,empathy_intonation_perc,2024.1.4,Win32,59.17159763,,,,,,,,,,,,,,119,esís,,,,,,320.7746,321.9735,0,1,0.6611,,0,181,181,118,1,pseudoword,0,REAL,FALSA
,,,,,,,,,627be8df969ba21063c8a31f,001,2025-05-07_11h46.12.004,empathy_intonation_perc,2024.1.4,Win32,59.17159763,,,,,,,,,,,,,,128,pelí,,,,,,321.9741,323.1409,0,1,0.6256,,0,182,182,127,1,pseudoword,0,REAL,FALSA
,,,,,,,,,627be8df969ba21063c8a31f,001,2025-05-07_11h46.12.004,empathy_intonation_perc,2024.1.4,Win32,59.17159763,,,,,,,,,,,,,,106,diebro,,,,,,323.1417,324.6075,0,1,0.925,,0,183,183,105,1,pseudoword,0,REAL,FALSA
,,,,,,,,,627be8df969ba21063c8a31f,001,2025-05-07_11h46.12.004,empathy_intonation_perc,2024.1.4,Win32,59.17159763,,,,,,,,,,,,,,133,conso,,,,,,324.6078,326.042,0,1,0.9042,,0,184,184,132,1,pseudoword,0,REAL,FALSA
,,,,,,,,,627be8df969ba21063c8a31f,001,2025-05-07_11h46.12.004,empathy_intonation_perc,2024.1.4,Win32,59.17159763,,,,,,,,,,,,,,64,rizado,,,,,,326.0426,327.1929,0,1,0.6128,,0,185,185,63,1,non_cognate,1,REAL,FALSA
,,,,,,,,,627be8df969ba21063c8a31f,001,2025-05-07_11h46.12.004,empathy_intonation_perc,2024.1.4,Win32,59.17159763,,,,,,,,,,,,,,76,chocar,,,,,,327.1935,328.3763,0,1,0.6346,,0,186,186,75,1,non_cognate,1,REAL,FALSA
,,,,,,,,,627be8df969ba21063c8a31f,001,2025-05-07_11h46.12.004,empathy_intonation_perc,2024.1.4,Win32,59.17159763,,,,,,,,,,,,,,127,vien,,,,,,328.3769,330.1099,0,1,1.1936,,0,187,187,126,1,pseudoword,0,REAL,FALSA
,,,,,,,,,627be8df969ba21063c8a31f,001,2025-05-07_11h46.12.004,empathy_intonation_perc,2024.1.4,Win32,59.17159763,,,,,,,,,,,,,,118,bará,,,,,,330.1106,331.294,0,1,0.6393,,0,188,188,117,1,pseudoword,0,REAL,FALSA
,,,,,,,,,627be8df969ba21063c8a31f,001,2025-05-07_11h46.12.004,empathy_intonation_perc,2024.1.4,Win32,59.17159763,,,,,,,,,,,,,,53,punta,,,,,,331.2946,332.5776,1,0,0.7348,,0,189,189,52,1,non_cognate,1,REAL,FALSA
,,,,,,,,,627be8df969ba21063c8a31f,001,2025-05-07_11h46.12.004,empathy_intonation_perc,2024.1.4,Win32,59.17159763,,,,,,,,,,,,,,150,cricó,,,,,,332.5781,333.8446,0,1,0.7247,,0,190,190,149,1,pseudoword,0,REAL,FALSA
,,,,,,,,,627be8df969ba21063c8a31f,001,2025-05-07_11h46.12.004,empathy_intonation_perc,2024.1.4,Win32,59.17159763,,,,,,,,,,,,,,184,huenos,,,,,,333.8448,334.9792,0,1,0.6128,,0,191,191,183,1,pseudoword,0,REAL,FALSA
