lextale_instructions.started,lextale_instructions.stopped,lextale_instructions_loop.thisRepN,lextale_instructions_loop.thisTrialN,lextale_instructions_loop.thisN,lextale_instructions_loop.thisIndex,lextale_instructions_loop.ran,instructions_text,continue_text,participant,session,date,expName,psychopyVersion,OS,frameRate,lextale_practice.started,lextale_practice.stopped,key_resp_lextale_practice.keys,key_resp_lextale_practice.corr,key_resp_lextale_practice.rt,key_resp_lextale_practice.duration,lextale_practice_feedback.started,lextale_practice_feedback.stopped,lextale_practice_trials.thisRepN,lextale_practice_trials.thisTrialN,lextale_practice_trials.thisN,lextale_practice_trials.thisIndex,lextale_practice_trials.ran,stim,word,correct_response,prac_button_real,prac_button_false,lextale_check.started,lextale_check.stopped,lextale_trial.started,lextale_trial.stopped,key_resp_lextale_trial.keys,key_resp_lextale_trial.corr,key_resp_lextale_trial.rt,key_resp_lextale_trial.duration,lextail_trials.thisRepN,lextail_trials.thisTrialN,lextail_trials.thisN,lextail_trials.thisIndex,lextail_trials.ran,type,correct_reponse,button_real,button_false
0.006,12.661,0,0,0,0,1,"Este es un test de vocabulario en español. 
  
  A continuación vas a ver 90 secuencias de letras que parecen 'españolas'.
  
  Solo algunas de ellas son palabras de verdad.",(presiona la barra espaciadora para continuar),627e7906b82dabdbe672cdd1,001,2025-04-30_18h45.08.698,empathy_intonation_perc,2024.1.4,Win32,19.94415636,,,,,,,,,,,,,,,,,,,,,,,,,,,,,,,,,,,
12.662,26.793,0,1,1,1,1,"Por favor, señala las palabras que tú conoces (aquellas que estás convencido que son palabras españolas, incluso aunque no seas capaz de dar el significado preciso).",(presiona la barra espaciadora para continuar),627e7906b82dabdbe672cdd1,001,2025-04-30_18h45.08.698,empathy_intonation_perc,2024.1.4,Win32,19.94415636,,,,,,,,,,,,,,,,,,,,,,,,,,,,,,,,,,,
26.795,40.729,0,2,2,2,1,Pero cuidado: los errores se penalizan. Por eso no tiene sentido tratar de incrementar tu puntuación marcando como reales palabras que nunca has visto.,(presiona la barra espaciadora para continuar),627e7906b82dabdbe672cdd1,001,2025-04-30_18h45.08.698,empathy_intonation_perc,2024.1.4,Win32,19.94415636,,,,,,,,,,,,,,,,,,,,,,,,,,,,,,,,,,,
40.731,54.778,0,3,3,3,1,"Presiona la tecla 1 si piensas que es una palabra real y la tecla 
  0 si piensas que es una palabra falsa. 
  
  Vamos a practicar un poco...",(presiona la barra espaciadora para continuar),627e7906b82dabdbe672cdd1,001,2025-04-30_18h45.08.698,empathy_intonation_perc,2024.1.4,Win32,19.94415636,,,,,,,,,,,,,,,,,,,,,,,,,,,,,,,,,,,
,,,,,,,,,627e7906b82dabdbe672cdd1,001,2025-04-30_18h45.08.698,empathy_intonation_perc,2024.1.4,Win32,19.94415636,54.789,57.232,1,0,1.914,,57.233,58.229,0,0,0,0,1,0,depiste,0,REAL,FALSA,,,,,,,,,,,,,,,,,
,,,,,,,,,627e7906b82dabdbe672cdd1,001,2025-04-30_18h45.08.698,empathy_intonation_perc,2024.1.4,Win32,19.94415636,58.23,61.862,1,1,3.102,,61.863,62.86,0,1,1,1,1,0,sí,1,REAL,FALSA,,,,,,,,,,,,,,,,,
,,,,,,,,,627e7906b82dabdbe672cdd1,001,2025-04-30_18h45.08.698,empathy_intonation_perc,2024.1.4,Win32,19.94415636,62.865,66.694,1,0,3.288,,66.694,67.695,0,2,2,2,1,0,coné,0,REAL,FALSA,,,,,,,,,,,,,,,,,
,,,,,,,,,627e7906b82dabdbe672cdd1,001,2025-04-30_18h45.08.698,empathy_intonation_perc,2024.1.4,Win32,19.94415636,67.705,70.078,1,0,1.836,,70.078,71.077,0,3,3,3,1,0,calpar,0,REAL,FALSA,,,,,,,,,,,,,,,,,
,,,,,,,,,627e7906b82dabdbe672cdd1,001,2025-04-30_18h45.08.698,empathy_intonation_perc,2024.1.4,Win32,19.94415636,71.084,72.878,1,0,1.25,,72.878,73.878,0,4,4,4,1,0,joten,0,REAL,FALSA,,,,,,,,,,,,,,,,,
,,,,,,,,,627e7906b82dabdbe672cdd1,001,2025-04-30_18h45.08.698,empathy_intonation_perc,2024.1.4,Win32,19.94415636,73.88,77.545,0,0,3.119,,77.546,78.544,0,5,5,5,1,0,sacapuntas,1,REAL,FALSA,,,,,,,,,,,,,,,,,
,,,,,,,,,627e7906b82dabdbe672cdd1,001,2025-04-30_18h45.08.698,empathy_intonation_perc,2024.1.4,Win32,19.94415636,78.546,80.245,0,1,1.165,,80.246,81.244,0,6,6,6,1,0,priba,0,REAL,FALSA,,,,,,,,,,,,,,,,,
,,,,,,,,,627e7906b82dabdbe672cdd1,001,2025-04-30_18h45.08.698,empathy_intonation_perc,2024.1.4,Win32,19.94415636,81.245,83.47,1,0,1.689,,83.47,84.461,0,7,7,7,1,0,pelasula,0,REAL,FALSA,,,,,,,,,,,,,,,,,
,,,,,,,,,627e7906b82dabdbe672cdd1,001,2025-04-30_18h45.08.698,empathy_intonation_perc,2024.1.4,Win32,19.94415636,84.468,87.277,1,1,2.273,,87.279,88.278,0,8,8,8,1,0,bien,1,REAL,FALSA,,,,,,,,,,,,,,,,,
,,,,,,,,,627e7906b82dabdbe672cdd1,001,2025-04-30_18h45.08.698,empathy_intonation_perc,2024.1.4,Win32,19.94415636,88.279,89.878,1,1,1.058,,89.878,90.878,0,9,9,9,1,0,casa,1,REAL,FALSA,,,,,,,,,,,,,,,,,
,,,,,,,,,627e7906b82dabdbe672cdd1,001,2025-04-30_18h45.08.698,empathy_intonation_perc,2024.1.4,Win32,19.94415636,90.88,92.212,1,0,0.8,,92.214,93.211,0,10,10,10,1,0,lejo,0,REAL,FALSA,,,,,,,,,,,,,,,,,
,,,,,,,,,627e7906b82dabdbe672cdd1,001,2025-04-30_18h45.08.698,empathy_intonation_perc,2024.1.4,Win32,19.94415636,93.215,96.631,0,1,2.877,,96.631,97.629,0,11,11,11,1,0,pretantas,0,REAL,FALSA,,,,,,,,,,,,,,,,,
,,,,,,,,,627e7906b82dabdbe672cdd1,001,2025-04-30_18h45.08.698,empathy_intonation_perc,2024.1.4,Win32,19.94415636,,,,,,,,,,,,,,,,,,,97.637,101.378,,,,,,,,,,,,,,,
,,,,,,,,,627e7906b82dabdbe672cdd1,001,2025-04-30_18h45.08.698,empathy_intonation_perc,2024.1.4,Win32,19.94415636,,,,,,,,,,,,,,80,cuenco,,,,,,101.401,104.246,0,1,2.309,,0,0,0,79,1,non_cognate,1,REAL,FALSA
,,,,,,,,,627e7906b82dabdbe672cdd1,001,2025-04-30_18h45.08.698,empathy_intonation_perc,2024.1.4,Win32,19.94415636,,,,,,,,,,,,,,48,pelvis,,,,,,104.247,107.232,1,0,2.449,,0,1,1,47,1,two_way_cognate,1,REAL,FALSA
,,,,,,,,,627e7906b82dabdbe672cdd1,001,2025-04-30_18h45.08.698,empathy_intonation_perc,2024.1.4,Win32,19.94415636,,,,,,,,,,,,,,130,dubo,,,,,,107.234,108.933,0,1,1.16,,0,2,2,129,1,pseudoword,0,REAL,FALSA
,,,,,,,,,627e7906b82dabdbe672cdd1,001,2025-04-30_18h45.08.698,empathy_intonation_perc,2024.1.4,Win32,19.94415636,,,,,,,,,,,,,,121,barbs,,,,,,108.933,111.164,0,1,1.697,,0,3,3,120,1,pseudoword,0,REAL,FALSA
,,,,,,,,,627e7906b82dabdbe672cdd1,001,2025-04-30_18h45.08.698,empathy_intonation_perc,2024.1.4,Win32,19.94415636,,,,,,,,,,,,,,100,épinas,,,,,,111.165,112.782,1,0,1.074,,0,4,4,99,1,pseudoword,0,REAL,FALSA
,,,,,,,,,627e7906b82dabdbe672cdd1,001,2025-04-30_18h45.08.698,empathy_intonation_perc,2024.1.4,Win32,19.94415636,,,,,,,,,,,,,,111,monue,,,,,,112.783,114.445,0,1,1.122,,0,5,5,110,1,pseudoword,0,REAL,FALSA
,,,,,,,,,627e7906b82dabdbe672cdd1,001,2025-04-30_18h45.08.698,empathy_intonation_perc,2024.1.4,Win32,19.94415636,,,,,,,,,,,,,,96,caro,,,,,,114.446,116.013,1,0,1.042,,0,6,6,95,1,non_cognate,1,REAL,FALSA
,,,,,,,,,627e7906b82dabdbe672cdd1,001,2025-04-30_18h45.08.698,empathy_intonation_perc,2024.1.4,Win32,19.94415636,,,,,,,,,,,,,,170,diabo,,,,,,116.015,118.818,0,1,2.265,,0,7,7,169,1,pseudoword,0,REAL,FALSA
,,,,,,,,,627e7906b82dabdbe672cdd1,001,2025-04-30_18h45.08.698,empathy_intonation_perc,2024.1.4,Win32,19.94415636,,,,,,,,,,,,,,89,muñeca,,,,,,118.819,120.746,1,0,1.376,,0,8,8,88,1,non_cognate,1,REAL,FALSA
,,,,,,,,,627e7906b82dabdbe672cdd1,001,2025-04-30_18h45.08.698,empathy_intonation_perc,2024.1.4,Win32,19.94415636,,,,,,,,,,,,,,173,mibro,,,,,,120.748,122.283,0,1,1.012,,0,9,9,172,1,pseudoword,0,REAL,FALSA
,,,,,,,,,627e7906b82dabdbe672cdd1,001,2025-04-30_18h45.08.698,empathy_intonation_perc,2024.1.4,Win32,19.94415636,,,,,,,,,,,,,,129,vinzó,,,,,,122.283,124.951,1,0,2.127,,0,10,10,128,1,pseudoword,0,REAL,FALSA
,,,,,,,,,627e7906b82dabdbe672cdd1,001,2025-04-30_18h45.08.698,empathy_intonation_perc,2024.1.4,Win32,19.94415636,,,,,,,,,,,,,,91,equipo,,,,,,124.959,126.45,1,0,0.963,,0,11,11,90,1,non_cognate,1,REAL,FALSA
,,,,,,,,,627e7906b82dabdbe672cdd1,001,2025-04-30_18h45.08.698,empathy_intonation_perc,2024.1.4,Win32,19.94415636,,,,,,,,,,,,,,51,listo,,,,,,126.451,128.279,1,0,1.299,,0,12,12,50,1,non_cognate,1,REAL,FALSA
,,,,,,,,,627e7906b82dabdbe672cdd1,001,2025-04-30_18h45.08.698,empathy_intonation_perc,2024.1.4,Win32,19.94415636,,,,,,,,,,,,,,36,viable,,,,,,128.28,130.78,1,0,1.959,,0,13,13,35,1,two_way_cognate,1,REAL,FALSA
,,,,,,,,,627e7906b82dabdbe672cdd1,001,2025-04-30_18h45.08.698,empathy_intonation_perc,2024.1.4,Win32,19.94415636,,,,,,,,,,,,,,133,conso,,,,,,130.781,132.496,0,1,1.169,,0,14,14,132,1,pseudoword,0,REAL,FALSA
,,,,,,,,,627e7906b82dabdbe672cdd1,001,2025-04-30_18h45.08.698,empathy_intonation_perc,2024.1.4,Win32,19.94415636,,,,,,,,,,,,,,7,albino,,,,,,132.497,133.966,1,0,0.93,,0,15,15,6,1,three_way_cognate,1,REAL,FALSA
,,,,,,,,,627e7906b82dabdbe672cdd1,001,2025-04-30_18h45.08.698,empathy_intonation_perc,2024.1.4,Win32,19.94415636,,,,,,,,,,,,,,105,peniz,,,,,,133.968,136.197,1,0,1.684,,0,16,16,104,1,pseudoword,0,REAL,FALSA
,,,,,,,,,627e7906b82dabdbe672cdd1,001,2025-04-30_18h45.08.698,empathy_intonation_perc,2024.1.4,Win32,19.94415636,,,,,,,,,,,,,,60,siglo,,,,,,136.198,137.795,0,1,1.047,,0,17,17,59,1,non_cognate,1,REAL,FALSA
,,,,,,,,,627e7906b82dabdbe672cdd1,001,2025-04-30_18h45.08.698,empathy_intonation_perc,2024.1.4,Win32,19.94415636,,,,,,,,,,,,,,137,trugo,,,,,,137.796,139.466,0,1,1.124,,0,18,18,136,1,pseudoword,0,REAL,FALSA
,,,,,,,,,627e7906b82dabdbe672cdd1,001,2025-04-30_18h45.08.698,empathy_intonation_perc,2024.1.4,Win32,19.94415636,,,,,,,,,,,,,,57,regalo,,,,,,139.467,140.796,1,0,0.807,,0,19,19,56,1,non_cognate,1,REAL,FALSA
,,,,,,,,,627e7906b82dabdbe672cdd1,001,2025-04-30_18h45.08.698,empathy_intonation_perc,2024.1.4,Win32,19.94415636,,,,,,,,,,,,,,160,fomeó,,,,,,140.797,142.847,1,0,1.498,,0,20,20,159,1,pseudoword,0,REAL,FALSA
,,,,,,,,,627e7906b82dabdbe672cdd1,001,2025-04-30_18h45.08.698,empathy_intonation_perc,2024.1.4,Win32,19.94415636,,,,,,,,,,,,,,166,anfia,,,,,,142.848,144.35,0,1,0.965,,0,21,21,165,1,pseudoword,0,REAL,FALSA
,,,,,,,,,627e7906b82dabdbe672cdd1,001,2025-04-30_18h45.08.698,empathy_intonation_perc,2024.1.4,Win32,19.94415636,,,,,,,,,,,,,,77,suave,,,,,,144.351,145.896,1,0,0.999,,0,22,22,76,1,non_cognate,1,REAL,FALSA
,,,,,,,,,627e7906b82dabdbe672cdd1,001,2025-04-30_18h45.08.698,empathy_intonation_perc,2024.1.4,Win32,19.94415636,,,,,,,,,,,,,,65,guerra,,,,,,145.902,147.479,1,0,1.032,,0,23,23,64,1,non_cognate,1,REAL,FALSA
,,,,,,,,,627e7906b82dabdbe672cdd1,001,2025-04-30_18h45.08.698,empathy_intonation_perc,2024.1.4,Win32,19.94415636,,,,,,,,,,,,,,61,aduana,,,,,,147.481,150.63,0,1,2.603,,0,24,24,60,1,non_cognate,1,REAL,FALSA
,,,,,,,,,627e7906b82dabdbe672cdd1,001,2025-04-30_18h45.08.698,empathy_intonation_perc,2024.1.4,Win32,19.94415636,,,,,,,,,,,,,,158,babrá,,,,,,150.63,152.321,0,1,1.149,,0,25,25,157,1,pseudoword,0,REAL,FALSA
,,,,,,,,,627e7906b82dabdbe672cdd1,001,2025-04-30_18h45.08.698,empathy_intonation_perc,2024.1.4,Win32,19.94415636,,,,,,,,,,,,,,38,halo,,,,,,152.34,153.779,1,0,0.903,,0,26,26,37,1,two_way_cognate,1,REAL,FALSA
,,,,,,,,,627e7906b82dabdbe672cdd1,001,2025-04-30_18h45.08.698,empathy_intonation_perc,2024.1.4,Win32,19.94415636,,,,,,,,,,,,,,112,samón,,,,,,153.78,155.313,1,0,0.997,,0,27,27,111,1,pseudoword,0,REAL,FALSA
,,,,,,,,,627e7906b82dabdbe672cdd1,001,2025-04-30_18h45.08.698,empathy_intonation_perc,2024.1.4,Win32,19.94415636,,,,,,,,,,,,,,49,teñir,,,,,,155.314,156.655,1,0,0.813,,0,28,28,48,1,non_cognate,1,REAL,FALSA
,,,,,,,,,627e7906b82dabdbe672cdd1,001,2025-04-30_18h45.08.698,empathy_intonation_perc,2024.1.4,Win32,19.94415636,,,,,,,,,,,,,,125,ceme,,,,,,156.655,158.38,0,1,1.184,,0,29,29,124,1,pseudoword,0,REAL,FALSA
,,,,,,,,,627e7906b82dabdbe672cdd1,001,2025-04-30_18h45.08.698,empathy_intonation_perc,2024.1.4,Win32,19.94415636,,,,,,,,,,,,,,134,molor,,,,,,158.381,160.132,0,1,1.203,,0,30,30,133,1,pseudoword,0,REAL,FALSA
,,,,,,,,,627e7906b82dabdbe672cdd1,001,2025-04-30_18h45.08.698,empathy_intonation_perc,2024.1.4,Win32,19.94415636,,,,,,,,,,,,,,53,punta,,,,,,160.136,161.43,1,0,0.752,,0,31,31,52,1,non_cognate,1,REAL,FALSA
,,,,,,,,,627e7906b82dabdbe672cdd1,001,2025-04-30_18h45.08.698,empathy_intonation_perc,2024.1.4,Win32,19.94415636,,,,,,,,,,,,,,70,ánimo,,,,,,161.431,163.301,1,0,1.329,,0,32,32,69,1,non_cognate,1,REAL,FALSA
,,,,,,,,,627e7906b82dabdbe672cdd1,001,2025-04-30_18h45.08.698,empathy_intonation_perc,2024.1.4,Win32,19.94415636,,,,,,,,,,,,,,186,rizate,,,,,,163.301,165.134,0,1,1.299,,0,33,33,185,1,pseudoword,0,REAL,FALSA
,,,,,,,,,627e7906b82dabdbe672cdd1,001,2025-04-30_18h45.08.698,empathy_intonation_perc,2024.1.4,Win32,19.94415636,,,,,,,,,,,,,,98,martir,,,,,,165.135,167.014,1,0,1.334,,0,34,34,97,1,pseudoword,0,REAL,FALSA
,,,,,,,,,627e7906b82dabdbe672cdd1,001,2025-04-30_18h45.08.698,empathy_intonation_perc,2024.1.4,Win32,19.94415636,,,,,,,,,,,,,,146,gió,,,,,,167.015,169.797,1,0,2.248,,0,35,35,145,1,pseudoword,0,REAL,FALSA
,,,,,,,,,627e7906b82dabdbe672cdd1,001,2025-04-30_18h45.08.698,empathy_intonation_perc,2024.1.4,Win32,19.94415636,,,,,,,,,,,,,,18,altar,,,,,,169.799,171.396,1,0,1.06,,0,36,36,17,1,three_way_cognate,1,REAL,FALSA
,,,,,,,,,627e7906b82dabdbe672cdd1,001,2025-04-30_18h45.08.698,empathy_intonation_perc,2024.1.4,Win32,19.94415636,,,,,,,,,,,,,,174,pabea,,,,,,171.397,173.047,0,1,1.119,,0,37,37,173,1,pseudoword,0,REAL,FALSA
,,,,,,,,,627e7906b82dabdbe672cdd1,001,2025-04-30_18h45.08.698,empathy_intonation_perc,2024.1.4,Win32,19.94415636,,,,,,,,,,,,,,123,arane,,,,,,173.048,174.48,0,1,0.89,,0,38,38,122,1,pseudoword,0,REAL,FALSA
,,,,,,,,,627e7906b82dabdbe672cdd1,001,2025-04-30_18h45.08.698,empathy_intonation_perc,2024.1.4,Win32,19.94415636,,,,,,,,,,,,,,102,coyo,,,,,,174.482,176.072,1,0,1.038,,0,39,39,101,1,pseudoword,0,REAL,FALSA
,,,,,,,,,627e7906b82dabdbe672cdd1,001,2025-04-30_18h45.08.698,empathy_intonation_perc,2024.1.4,Win32,19.94415636,,,,,,,,,,,,,,154,harvé,,,,,,176.072,178.086,0,1,1.492,,0,40,40,153,1,pseudoword,0,REAL,FALSA
,,,,,,,,,627e7906b82dabdbe672cdd1,001,2025-04-30_18h45.08.698,empathy_intonation_perc,2024.1.4,Win32,19.94415636,,,,,,,,,,,,,,165,chote,,,,,,178.086,180.186,0,1,1.56,,0,41,41,164,1,pseudoword,0,REAL,FALSA
,,,,,,,,,627e7906b82dabdbe672cdd1,001,2025-04-30_18h45.08.698,empathy_intonation_perc,2024.1.4,Win32,19.94415636,,,,,,,,,,,,,,142,parre,,,,,,180.186,181.932,0,1,1.206,,0,42,42,141,1,pseudoword,0,REAL,FALSA
,,,,,,,,,627e7906b82dabdbe672cdd1,001,2025-04-30_18h45.08.698,empathy_intonation_perc,2024.1.4,Win32,19.94415636,,,,,,,,,,,,,,40,pelvis,,,,,,181.933,183.318,1,0,0.844,,0,43,43,39,1,two_way_cognate,1,REAL,FALSA
,,,,,,,,,627e7906b82dabdbe672cdd1,001,2025-04-30_18h45.08.698,empathy_intonation_perc,2024.1.4,Win32,19.94415636,,,,,,,,,,,,,,132,nocó,,,,,,183.318,184.998,0,1,1.144,,0,44,44,131,1,pseudoword,0,REAL,FALSA
,,,,,,,,,627e7906b82dabdbe672cdd1,001,2025-04-30_18h45.08.698,empathy_intonation_perc,2024.1.4,Win32,19.94415636,,,,,,,,,,,,,,181,gravés,,,,,,184.998,186.964,1,0,1.419,,0,45,45,180,1,pseudoword,0,REAL,FALSA
,,,,,,,,,627e7906b82dabdbe672cdd1,001,2025-04-30_18h45.08.698,empathy_intonation_perc,2024.1.4,Win32,19.94415636,,,,,,,,,,,,,,14,aura,,,,,,186.964,188.397,1,0,0.905,,0,46,46,13,1,three_way_cognate,1,REAL,FALSA
,,,,,,,,,627e7906b82dabdbe672cdd1,001,2025-04-30_18h45.08.698,empathy_intonation_perc,2024.1.4,Win32,19.94415636,,,,,,,,,,,,,,108,jauda,,,,,,188.398,190.281,0,1,1.337,,0,47,47,107,1,pseudoword,0,REAL,FALSA
,,,,,,,,,627e7906b82dabdbe672cdd1,001,2025-04-30_18h45.08.698,empathy_intonation_perc,2024.1.4,Win32,19.94415636,,,,,,,,,,,,,,78,rendir,,,,,,190.281,192.469,0,1,1.657,,0,48,48,77,1,non_cognate,1,REAL,FALSA
,,,,,,,,,627e7906b82dabdbe672cdd1,001,2025-04-30_18h45.08.698,empathy_intonation_perc,2024.1.4,Win32,19.94415636,,,,,,,,,,,,,,141,virios,,,,,,192.469,194.444,0,1,1.411,,0,49,49,140,1,pseudoword,0,REAL,FALSA
,,,,,,,,,627e7906b82dabdbe672cdd1,001,2025-04-30_18h45.08.698,empathy_intonation_perc,2024.1.4,Win32,19.94415636,,,,,,,,,,,,,,37,torso,,,,,,194.452,195.781,1,0,0.795,,0,50,50,36,1,two_way_cognate,1,REAL,FALSA
,,,,,,,,,627e7906b82dabdbe672cdd1,001,2025-04-30_18h45.08.698,empathy_intonation_perc,2024.1.4,Win32,19.94415636,,,,,,,,,,,,,,41,pasta,,,,,,195.783,197.101,1,0,0.795,,0,51,51,40,1,two_way_cognate,1,REAL,FALSA
,,,,,,,,,627e7906b82dabdbe672cdd1,001,2025-04-30_18h45.08.698,empathy_intonation_perc,2024.1.4,Win32,19.94415636,,,,,,,,,,,,,,177,entodo,,,,,,197.102,198.997,1,0,1.356,,0,52,52,176,1,pseudoword,0,REAL,FALSA
,,,,,,,,,627e7906b82dabdbe672cdd1,001,2025-04-30_18h45.08.698,empathy_intonation_perc,2024.1.4,Win32,19.94415636,,,,,,,,,,,,,,140,chorde,,,,,,198.997,201.247,1,0,1.715,,0,53,53,139,1,pseudoword,0,REAL,FALSA
,,,,,,,,,627e7906b82dabdbe672cdd1,001,2025-04-30_18h45.08.698,empathy_intonation_perc,2024.1.4,Win32,19.94415636,,,,,,,,,,,,,,162,cengo,,,,,,201.248,203.067,0,1,1.266,,0,54,54,161,1,pseudoword,0,REAL,FALSA
,,,,,,,,,627e7906b82dabdbe672cdd1,001,2025-04-30_18h45.08.698,empathy_intonation_perc,2024.1.4,Win32,19.94415636,,,,,,,,,,,,,,35,aurora,,,,,,203.069,204.43,1,0,0.823,,0,55,55,34,1,two_way_cognate,1,REAL,FALSA
,,,,,,,,,627e7906b82dabdbe672cdd1,001,2025-04-30_18h45.08.698,empathy_intonation_perc,2024.1.4,Win32,19.94415636,,,,,,,,,,,,,,180,pupica,,,,,,204.431,206.234,0,1,1.27,,0,56,56,179,1,pseudoword,0,REAL,FALSA
,,,,,,,,,627e7906b82dabdbe672cdd1,001,2025-04-30_18h45.08.698,empathy_intonation_perc,2024.1.4,Win32,19.94415636,,,,,,,,,,,,,,27,piano,,,,,,206.235,207.549,1,0,0.775,,0,57,57,26,1,two_way_cognate,1,REAL,FALSA
,,,,,,,,,627e7906b82dabdbe672cdd1,001,2025-04-30_18h45.08.698,empathy_intonation_perc,2024.1.4,Win32,19.94415636,,,,,,,,,,,,,,34,actor,,,,,,207.55,208.948,1,0,0.865,,0,58,58,33,1,two_way_cognate,1,REAL,FALSA
,,,,,,,,,627e7906b82dabdbe672cdd1,001,2025-04-30_18h45.08.698,empathy_intonation_perc,2024.1.4,Win32,19.94415636,,,,,,,,,,,,,,107,plago,,,,,,208.949,210.648,0,1,1.154,,0,59,59,106,1,pseudoword,0,REAL,FALSA
,,,,,,,,,627e7906b82dabdbe672cdd1,001,2025-04-30_18h45.08.698,empathy_intonation_perc,2024.1.4,Win32,19.94415636,,,,,,,,,,,,,,163,llzan,,,,,,210.651,212.299,0,1,1.11,,0,60,60,162,1,pseudoword,0,REAL,FALSA
,,,,,,,,,627e7906b82dabdbe672cdd1,001,2025-04-30_18h45.08.698,empathy_intonation_perc,2024.1.4,Win32,19.94415636,,,,,,,,,,,,,,109,laras,,,,,,212.3,213.749,0,1,0.913,,0,61,61,108,1,pseudoword,0,REAL,FALSA
,,,,,,,,,627e7906b82dabdbe672cdd1,001,2025-04-30_18h45.08.698,empathy_intonation_perc,2024.1.4,Win32,19.94415636,,,,,,,,,,,,,,42,rumor,,,,,,213.749,214.964,1,0,0.681,,0,62,62,41,1,two_way_cognate,1,REAL,FALSA
,,,,,,,,,627e7906b82dabdbe672cdd1,001,2025-04-30_18h45.08.698,empathy_intonation_perc,2024.1.4,Win32,19.94415636,,,,,,,,,,,,,,72,rostro,,,,,,214.965,217.097,0,1,1.588,,0,63,63,71,1,non_cognate,1,REAL,FALSA
,,,,,,,,,627e7906b82dabdbe672cdd1,001,2025-04-30_18h45.08.698,empathy_intonation_perc,2024.1.4,Win32,19.94415636,,,,,,,,,,,,,,124,lobe,,,,,,217.098,218.651,0,1,1.024,,0,64,64,123,1,pseudoword,0,REAL,FALSA
,,,,,,,,,627e7906b82dabdbe672cdd1,001,2025-04-30_18h45.08.698,empathy_intonation_perc,2024.1.4,Win32,19.94415636,,,,,,,,,,,,,,12,dogma,,,,,,218.652,220.036,1,0,0.851,,0,65,65,11,1,three_way_cognate,1,REAL,FALSA
,,,,,,,,,627e7906b82dabdbe672cdd1,001,2025-04-30_18h45.08.698,empathy_intonation_perc,2024.1.4,Win32,19.94415636,,,,,,,,,,,,,,115,lidena,,,,,,220.036,222.372,0,1,1.804,,0,66,66,114,1,pseudoword,0,REAL,FALSA
,,,,,,,,,627e7906b82dabdbe672cdd1,001,2025-04-30_18h45.08.698,empathy_intonation_perc,2024.1.4,Win32,19.94415636,,,,,,,,,,,,,,88,percha,,,,,,222.372,223.765,1,0,0.852,,0,67,67,87,1,non_cognate,1,REAL,FALSA
,,,,,,,,,627e7906b82dabdbe672cdd1,001,2025-04-30_18h45.08.698,empathy_intonation_perc,2024.1.4,Win32,19.94415636,,,,,,,,,,,,,,5,extra,,,,,,223.765,225.038,1,0,0.723,,0,68,68,4,1,three_way_cognate,1,REAL,FALSA
,,,,,,,,,627e7906b82dabdbe672cdd1,001,2025-04-30_18h45.08.698,empathy_intonation_perc,2024.1.4,Win32,19.94415636,,,,,,,,,,,,,,183,edioso,,,,,,225.039,226.673,1,0,1.099,,0,69,69,182,1,pseudoword,0,REAL,FALSA
,,,,,,,,,627e7906b82dabdbe672cdd1,001,2025-04-30_18h45.08.698,empathy_intonation_perc,2024.1.4,Win32,19.94415636,,,,,,,,,,,,,,131,fuar,,,,,,226.677,228.348,1,0,1.146,,0,70,70,130,1,pseudoword,0,REAL,FALSA
,,,,,,,,,627e7906b82dabdbe672cdd1,001,2025-04-30_18h45.08.698,empathy_intonation_perc,2024.1.4,Win32,19.94415636,,,,,,,,,,,,,,149,emén,,,,,,228.35,229.749,0,1,0.862,,0,71,71,148,1,pseudoword,0,REAL,FALSA
,,,,,,,,,627e7906b82dabdbe672cdd1,001,2025-04-30_18h45.08.698,empathy_intonation_perc,2024.1.4,Win32,19.94415636,,,,,,,,,,,,,,39,casual,,,,,,229.751,231.065,1,0,0.774,,0,72,72,38,1,two_way_cognate,1,REAL,FALSA
,,,,,,,,,627e7906b82dabdbe672cdd1,001,2025-04-30_18h45.08.698,empathy_intonation_perc,2024.1.4,Win32,19.94415636,,,,,,,,,,,,,,55,maldad,,,,,,231.066,232.576,0,1,0.971,,0,73,73,54,1,non_cognate,1,REAL,FALSA
,,,,,,,,,627e7906b82dabdbe672cdd1,001,2025-04-30_18h45.08.698,empathy_intonation_perc,2024.1.4,Win32,19.94415636,,,,,,,,,,,,,,144,diroco,,,,,,232.577,234.484,0,1,1.378,,0,74,74,143,1,pseudoword,0,REAL,FALSA
,,,,,,,,,627e7906b82dabdbe672cdd1,001,2025-04-30_18h45.08.698,empathy_intonation_perc,2024.1.4,Win32,19.94415636,,,,,,,,,,,,,,26,enigma,,,,,,234.485,235.832,1,0,0.797,,0,75,75,25,1,two_way_cognate,1,REAL,FALSA
,,,,,,,,,627e7906b82dabdbe672cdd1,001,2025-04-30_18h45.08.698,empathy_intonation_perc,2024.1.4,Win32,19.94415636,,,,,,,,,,,,,,185,aljizo,,,,,,235.833,237.915,0,1,1.536,,0,76,76,184,1,pseudoword,0,REAL,FALSA
,,,,,,,,,627e7906b82dabdbe672cdd1,001,2025-04-30_18h45.08.698,empathy_intonation_perc,2024.1.4,Win32,19.94415636,,,,,,,,,,,,,,190,asumie,,,,,,237.917,239.685,0,1,1.23,,0,77,77,189,1,pseudoword,0,REAL,FALSA
,,,,,,,,,627e7906b82dabdbe672cdd1,001,2025-04-30_18h45.08.698,empathy_intonation_perc,2024.1.4,Win32,19.94415636,,,,,,,,,,,,,,15,test,,,,,,239.686,240.832,1,0,0.619,,0,78,78,14,1,three_way_cognate,1,REAL,FALSA
,,,,,,,,,627e7906b82dabdbe672cdd1,001,2025-04-30_18h45.08.698,empathy_intonation_perc,2024.1.4,Win32,19.94415636,,,,,,,,,,,,,,23,plural,,,,,,240.832,242.351,1,0,0.99,,0,79,79,22,1,three_way_cognate,1,REAL,FALSA
,,,,,,,,,627e7906b82dabdbe672cdd1,001,2025-04-30_18h45.08.698,empathy_intonation_perc,2024.1.4,Win32,19.94415636,,,,,,,,,,,,,,81,sacar,,,,,,242.352,243.671,1,0,0.785,,0,80,80,80,1,non_cognate,1,REAL,FALSA
,,,,,,,,,627e7906b82dabdbe672cdd1,001,2025-04-30_18h45.08.698,empathy_intonation_perc,2024.1.4,Win32,19.94415636,,,,,,,,,,,,,,104,estulo,,,,,,243.673,245.154,0,1,0.947,,0,81,81,103,1,pseudoword,0,REAL,FALSA
,,,,,,,,,627e7906b82dabdbe672cdd1,001,2025-04-30_18h45.08.698,empathy_intonation_perc,2024.1.4,Win32,19.94415636,,,,,,,,,,,,,,82,brillo,,,,,,245.154,246.615,0,1,0.915,,0,82,82,81,1,non_cognate,1,REAL,FALSA
,,,,,,,,,627e7906b82dabdbe672cdd1,001,2025-04-30_18h45.08.698,empathy_intonation_perc,2024.1.4,Win32,19.94415636,,,,,,,,,,,,,,103,vueras,,,,,,246.616,248.232,0,1,1.073,,0,83,83,102,1,pseudoword,0,REAL,FALSA
,,,,,,,,,627e7906b82dabdbe672cdd1,001,2025-04-30_18h45.08.698,empathy_intonation_perc,2024.1.4,Win32,19.94415636,,,,,,,,,,,,,,16,chat,,,,,,248.233,250.054,1,0,1.277,,0,84,84,15,1,three_way_cognate,1,REAL,FALSA
,,,,,,,,,627e7906b82dabdbe672cdd1,001,2025-04-30_18h45.08.698,empathy_intonation_perc,2024.1.4,Win32,19.94415636,,,,,,,,,,,,,,8,kilo,,,,,,250.054,251.491,1,0,0.913,,0,85,85,7,1,three_way_cognate,1,REAL,FALSA
,,,,,,,,,627e7906b82dabdbe672cdd1,001,2025-04-30_18h45.08.698,empathy_intonation_perc,2024.1.4,Win32,19.94415636,,,,,,,,,,,,,,175,tradía,,,,,,251.491,252.982,1,0,0.949,,0,86,86,174,1,pseudoword,0,REAL,FALSA
,,,,,,,,,627e7906b82dabdbe672cdd1,001,2025-04-30_18h45.08.698,empathy_intonation_perc,2024.1.4,Win32,19.94415636,,,,,,,,,,,,,,113,nasce,,,,,,252.983,254.432,0,1,0.908,,0,87,87,112,1,pseudoword,0,REAL,FALSA
,,,,,,,,,627e7906b82dabdbe672cdd1,001,2025-04-30_18h45.08.698,empathy_intonation_perc,2024.1.4,Win32,19.94415636,,,,,,,,,,,,,,126,tobre,,,,,,254.433,256.048,0,1,1.076,,0,88,88,125,1,pseudoword,0,REAL,FALSA
,,,,,,,,,627e7906b82dabdbe672cdd1,001,2025-04-30_18h45.08.698,empathy_intonation_perc,2024.1.4,Win32,19.94415636,,,,,,,,,,,,,,120,mauja,,,,,,256.049,257.549,0,1,0.979,,0,89,89,119,1,pseudoword,0,REAL,FALSA
,,,,,,,,,627e7906b82dabdbe672cdd1,001,2025-04-30_18h45.08.698,empathy_intonation_perc,2024.1.4,Win32,19.94415636,,,,,,,,,,,,,,167,dobbo,,,,,,257.549,258.982,0,1,0.904,,0,90,90,166,1,pseudoword,0,REAL,FALSA
,,,,,,,,,627e7906b82dabdbe672cdd1,001,2025-04-30_18h45.08.698,empathy_intonation_perc,2024.1.4,Win32,19.94415636,,,,,,,,,,,,,,189,medium,,,,,,258.983,260.218,1,0,0.687,,0,91,91,188,1,pseudoword,0,REAL,FALSA
,,,,,,,,,627e7906b82dabdbe672cdd1,001,2025-04-30_18h45.08.698,empathy_intonation_perc,2024.1.4,Win32,19.94415636,,,,,,,,,,,,,,168,cobén,,,,,,260.222,261.786,1,0,1.023,,0,92,92,167,1,pseudoword,0,REAL,FALSA
,,,,,,,,,627e7906b82dabdbe672cdd1,001,2025-04-30_18h45.08.698,empathy_intonation_perc,2024.1.4,Win32,19.94415636,,,,,,,,,,,,,,47,color,,,,,,261.787,262.969,1,0,0.653,,0,93,93,46,1,two_way_cognate,1,REAL,FALSA
,,,,,,,,,627e7906b82dabdbe672cdd1,001,2025-04-30_18h45.08.698,empathy_intonation_perc,2024.1.4,Win32,19.94415636,,,,,,,,,,,,,,99,bugor,,,,,,262.97,264.982,0,1,1.483,,0,94,94,98,1,pseudoword,0,REAL,FALSA
,,,,,,,,,627e7906b82dabdbe672cdd1,001,2025-04-30_18h45.08.698,empathy_intonation_perc,2024.1.4,Win32,19.94415636,,,,,,,,,,,,,,52,blando,,,,,,264.984,266.952,0,1,1.428,,0,95,95,51,1,non_cognate,1,REAL,FALSA
,,,,,,,,,627e7906b82dabdbe672cdd1,001,2025-04-30_18h45.08.698,empathy_intonation_perc,2024.1.4,Win32,19.94415636,,,,,,,,,,,,,,151,prías,,,,,,266.953,268.783,0,1,1.289,,0,96,96,150,1,pseudoword,0,REAL,FALSA
,,,,,,,,,627e7906b82dabdbe672cdd1,001,2025-04-30_18h45.08.698,empathy_intonation_perc,2024.1.4,Win32,19.94415636,,,,,,,,,,,,,,21,hotel,,,,,,268.785,269.966,1,0,0.639,,0,97,97,20,1,three_way_cognate,1,REAL,FALSA
,,,,,,,,,627e7906b82dabdbe672cdd1,001,2025-04-30_18h45.08.698,empathy_intonation_perc,2024.1.4,Win32,19.94415636,,,,,,,,,,,,,,69,tiza,,,,,,269.967,271.85,0,1,1.36,,0,98,98,68,1,non_cognate,1,REAL,FALSA
,,,,,,,,,627e7906b82dabdbe672cdd1,001,2025-04-30_18h45.08.698,empathy_intonation_perc,2024.1.4,Win32,19.94415636,,,,,,,,,,,,,,122,boñaz,,,,,,271.851,273.432,1,0,1.036,,0,99,99,121,1,pseudoword,0,REAL,FALSA
,,,,,,,,,627e7906b82dabdbe672cdd1,001,2025-04-30_18h45.08.698,empathy_intonation_perc,2024.1.4,Win32,19.94415636,,,,,,,,,,,,,,178,inichó,,,,,,273.434,275.041,1,0,1.07,,0,100,100,177,1,pseudoword,0,REAL,FALSA
,,,,,,,,,627e7906b82dabdbe672cdd1,001,2025-04-30_18h45.08.698,empathy_intonation_perc,2024.1.4,Win32,19.94415636,,,,,,,,,,,,,,43,honor,,,,,,275.042,276.301,1,0,0.726,,0,101,101,42,1,two_way_cognate,1,REAL,FALSA
,,,,,,,,,627e7906b82dabdbe672cdd1,001,2025-04-30_18h45.08.698,empathy_intonation_perc,2024.1.4,Win32,19.94415636,,,,,,,,,,,,,,19,mafia,,,,,,276.302,277.749,1,0,0.901,,0,102,102,18,1,three_way_cognate,1,REAL,FALSA
,,,,,,,,,627e7906b82dabdbe672cdd1,001,2025-04-30_18h45.08.698,empathy_intonation_perc,2024.1.4,Win32,19.94415636,,,,,,,,,,,,,,156,ozoso,,,,,,277.749,279.286,0,1,1.002,,0,103,103,155,1,pseudoword,0,REAL,FALSA
,,,,,,,,,627e7906b82dabdbe672cdd1,001,2025-04-30_18h45.08.698,empathy_intonation_perc,2024.1.4,Win32,19.94415636,,,,,,,,,,,,,,192,próces,,,,,,279.287,280.637,1,0,0.816,,0,104,104,191,1,pseudoword,0,REAL,FALSA
,,,,,,,,,627e7906b82dabdbe672cdd1,001,2025-04-30_18h45.08.698,empathy_intonation_perc,2024.1.4,Win32,19.94415636,,,,,,,,,,,,,,157,seled,,,,,,280.638,282.236,0,1,1.056,,0,105,105,156,1,pseudoword,0,REAL,FALSA
,,,,,,,,,627e7906b82dabdbe672cdd1,001,2025-04-30_18h45.08.698,empathy_intonation_perc,2024.1.4,Win32,19.94415636,,,,,,,,,,,,,,44,editor,,,,,,282.237,283.44,1,0,0.677,,0,106,106,43,1,two_way_cognate,1,REAL,FALSA
,,,,,,,,,627e7906b82dabdbe672cdd1,001,2025-04-30_18h45.08.698,empathy_intonation_perc,2024.1.4,Win32,19.94415636,,,,,,,,,,,,,,114,dibrea,,,,,,283.441,284.999,0,1,1.012,,0,107,107,113,1,pseudoword,0,REAL,FALSA
,,,,,,,,,627e7906b82dabdbe672cdd1,001,2025-04-30_18h45.08.698,empathy_intonation_perc,2024.1.4,Win32,19.94415636,,,,,,,,,,,,,,6,horror,,,,,,285,286.317,1,0,0.767,,0,108,108,5,1,three_way_cognate,1,REAL,FALSA
,,,,,,,,,627e7906b82dabdbe672cdd1,001,2025-04-30_18h45.08.698,empathy_intonation_perc,2024.1.4,Win32,19.94415636,,,,,,,,,,,,,,13,plan,,,,,,286.318,287.517,1,0,0.666,,0,109,109,12,1,three_way_cognate,1,REAL,FALSA
,,,,,,,,,627e7906b82dabdbe672cdd1,001,2025-04-30_18h45.08.698,empathy_intonation_perc,2024.1.4,Win32,19.94415636,,,,,,,,,,,,,,33,collar,,,,,,287.518,288.933,1,0,0.872,,0,110,110,32,1,two_way_cognate,1,REAL,FALSA
,,,,,,,,,627e7906b82dabdbe672cdd1,001,2025-04-30_18h45.08.698,empathy_intonation_perc,2024.1.4,Win32,19.94415636,,,,,,,,,,,,,,179,suelet,,,,,,288.934,290.566,0,1,1.093,,0,111,111,178,1,pseudoword,0,REAL,FALSA
,,,,,,,,,627e7906b82dabdbe672cdd1,001,2025-04-30_18h45.08.698,empathy_intonation_perc,2024.1.4,Win32,19.94415636,,,,,,,,,,,,,,62,pegar,,,,,,290.567,292.04,1,0,0.935,,0,112,112,61,1,non_cognate,1,REAL,FALSA
,,,,,,,,,627e7906b82dabdbe672cdd1,001,2025-04-30_18h45.08.698,empathy_intonation_perc,2024.1.4,Win32,19.94415636,,,,,,,,,,,,,,147,alla,,,,,,292.045,293.686,0,1,1.117,,0,113,113,146,1,pseudoword,0,REAL,FALSA
,,,,,,,,,627e7906b82dabdbe672cdd1,001,2025-04-30_18h45.08.698,empathy_intonation_perc,2024.1.4,Win32,19.94415636,,,,,,,,,,,,,,182,desaro,,,,,,293.687,295.451,0,1,1.224,,0,114,114,181,1,pseudoword,0,REAL,FALSA
,,,,,,,,,627e7906b82dabdbe672cdd1,001,2025-04-30_18h45.08.698,empathy_intonation_perc,2024.1.4,Win32,19.94415636,,,,,,,,,,,,,,94,forro,,,,,,295.452,296.942,0,1,0.956,,0,115,115,93,1,non_cognate,1,REAL,FALSA
,,,,,,,,,627e7906b82dabdbe672cdd1,001,2025-04-30_18h45.08.698,empathy_intonation_perc,2024.1.4,Win32,19.94415636,,,,,,,,,,,,,,32,animal,,,,,,296.943,298.15,1,0,0.684,,0,116,116,31,1,two_way_cognate,1,REAL,FALSA
,,,,,,,,,627e7906b82dabdbe672cdd1,001,2025-04-30_18h45.08.698,empathy_intonation_perc,2024.1.4,Win32,19.94415636,,,,,,,,,,,,,,159,trcia,,,,,,298.151,299.699,0,1,1.01,,0,117,117,158,1,pseudoword,0,REAL,FALSA
,,,,,,,,,627e7906b82dabdbe672cdd1,001,2025-04-30_18h45.08.698,empathy_intonation_perc,2024.1.4,Win32,19.94415636,,,,,,,,,,,,,,74,ala,,,,,,299.7,301.1,0,1,0.866,,0,118,118,73,1,non_cognate,1,REAL,FALSA
,,,,,,,,,627e7906b82dabdbe672cdd1,001,2025-04-30_18h45.08.698,empathy_intonation_perc,2024.1.4,Win32,19.94415636,,,,,,,,,,,,,,153,golla,,,,,,301.102,302.45,0,1,0.803,,0,119,119,152,1,pseudoword,0,REAL,FALSA
,,,,,,,,,627e7906b82dabdbe672cdd1,001,2025-04-30_18h45.08.698,empathy_intonation_perc,2024.1.4,Win32,19.94415636,,,,,,,,,,,,,,150,cricó,,,,,,302.451,304.207,0,1,1.223,,0,120,120,149,1,pseudoword,0,REAL,FALSA
,,,,,,,,,627e7906b82dabdbe672cdd1,001,2025-04-30_18h45.08.698,empathy_intonation_perc,2024.1.4,Win32,19.94415636,,,,,,,,,,,,,,76,chocar,,,,,,304.209,306.167,1,0,1.42,,0,121,121,75,1,non_cognate,1,REAL,FALSA
,,,,,,,,,627e7906b82dabdbe672cdd1,001,2025-04-30_18h45.08.698,empathy_intonation_perc,2024.1.4,Win32,19.94415636,,,,,,,,,,,,,,152,prave,,,,,,306.168,307.821,0,1,1.108,,0,122,122,151,1,pseudoword,0,REAL,FALSA
,,,,,,,,,627e7906b82dabdbe672cdd1,001,2025-04-30_18h45.08.698,empathy_intonation_perc,2024.1.4,Win32,19.94415636,,,,,,,,,,,,,,45,total,,,,,,307.822,309.017,1,0,0.651,,0,123,123,44,1,two_way_cognate,1,REAL,FALSA
,,,,,,,,,627e7906b82dabdbe672cdd1,001,2025-04-30_18h45.08.698,empathy_intonation_perc,2024.1.4,Win32,19.94415636,,,,,,,,,,,,,,46,mortal,,,,,,309.018,310.317,1,0,0.752,,0,124,124,45,1,two_way_cognate,1,REAL,FALSA
,,,,,,,,,627e7906b82dabdbe672cdd1,001,2025-04-30_18h45.08.698,empathy_intonation_perc,2024.1.4,Win32,19.94415636,,,,,,,,,,,,,,25,vigor,,,,,,310.317,312.134,1,0,1.298,,0,125,125,24,1,two_way_cognate,1,REAL,FALSA
,,,,,,,,,627e7906b82dabdbe672cdd1,001,2025-04-30_18h45.08.698,empathy_intonation_perc,2024.1.4,Win32,19.94415636,,,,,,,,,,,,,,50,sierra,,,,,,312.134,313.621,1,0,0.944,,0,126,126,49,1,non_cognate,1,REAL,FALSA
,,,,,,,,,627e7906b82dabdbe672cdd1,001,2025-04-30_18h45.08.698,empathy_intonation_perc,2024.1.4,Win32,19.94415636,,,,,,,,,,,,,,136,hueas,,,,,,313.621,315.367,0,1,1.207,,0,127,127,135,1,pseudoword,0,REAL,FALSA
,,,,,,,,,627e7906b82dabdbe672cdd1,001,2025-04-30_18h45.08.698,empathy_intonation_perc,2024.1.4,Win32,19.94415636,,,,,,,,,,,,,,29,clamor,,,,,,315.368,316.698,1,0,0.796,,0,128,128,28,1,two_way_cognate,1,REAL,FALSA
,,,,,,,,,627e7906b82dabdbe672cdd1,001,2025-04-30_18h45.08.698,empathy_intonation_perc,2024.1.4,Win32,19.94415636,,,,,,,,,,,,,,171,gotro,,,,,,316.699,318.221,0,1,1.007,,0,129,129,170,1,pseudoword,0,REAL,FALSA
,,,,,,,,,627e7906b82dabdbe672cdd1,001,2025-04-30_18h45.08.698,empathy_intonation_perc,2024.1.4,Win32,19.94415636,,,,,,,,,,,,,,17,clan,,,,,,318.221,319.783,1,0,1.021,,0,130,130,16,1,three_way_cognate,1,REAL,FALSA
,,,,,,,,,627e7906b82dabdbe672cdd1,001,2025-04-30_18h45.08.698,empathy_intonation_perc,2024.1.4,Win32,19.94415636,,,,,,,,,,,,,,79,suelo,,,,,,319.784,321.317,1,0,0.997,,0,131,131,78,1,non_cognate,1,REAL,FALSA
,,,,,,,,,627e7906b82dabdbe672cdd1,001,2025-04-30_18h45.08.698,empathy_intonation_perc,2024.1.4,Win32,19.94415636,,,,,,,,,,,,,,117,morrá,,,,,,321.317,322.822,0,1,0.968,,0,132,132,116,1,pseudoword,0,REAL,FALSA
,,,,,,,,,627e7906b82dabdbe672cdd1,001,2025-04-30_18h45.08.698,empathy_intonation_perc,2024.1.4,Win32,19.94415636,,,,,,,,,,,,,,30,fiscal,,,,,,322.856,324.284,1,0,0.885,,0,133,133,29,1,two_way_cognate,1,REAL,FALSA
,,,,,,,,,627e7906b82dabdbe672cdd1,001,2025-04-30_18h45.08.698,empathy_intonation_perc,2024.1.4,Win32,19.94415636,,,,,,,,,,,,,,138,tator,,,,,,324.285,325.75,0,1,0.932,,0,134,134,137,1,pseudoword,0,REAL,FALSA
,,,,,,,,,627e7906b82dabdbe672cdd1,001,2025-04-30_18h45.08.698,empathy_intonation_perc,2024.1.4,Win32,19.94415636,,,,,,,,,,,,,,116,grigir,,,,,,325.751,327.668,0,1,1.378,,0,135,135,115,1,pseudoword,0,REAL,FALSA
,,,,,,,,,627e7906b82dabdbe672cdd1,001,2025-04-30_18h45.08.698,empathy_intonation_perc,2024.1.4,Win32,19.94415636,,,,,,,,,,,,,,1,moral,,,,,,327.67,328.95,1,0,0.748,,0,136,136,0,1,three_way_cognate,1,REAL,FALSA
,,,,,,,,,627e7906b82dabdbe672cdd1,001,2025-04-30_18h45.08.698,empathy_intonation_perc,2024.1.4,Win32,19.94415636,,,,,,,,,,,,,,106,diebro,,,,,,328.952,330.8,0,1,1.316,,0,137,137,105,1,pseudoword,0,REAL,FALSA
,,,,,,,,,627e7906b82dabdbe672cdd1,001,2025-04-30_18h45.08.698,empathy_intonation_perc,2024.1.4,Win32,19.94415636,,,,,,,,,,,,,,66,aleta,,,,,,330.802,332.736,0,1,1.391,,0,138,138,65,1,non_cognate,1,REAL,FALSA
,,,,,,,,,627e7906b82dabdbe672cdd1,001,2025-04-30_18h45.08.698,empathy_intonation_perc,2024.1.4,Win32,19.94415636,,,,,,,,,,,,,,28,ardor,,,,,,332.738,334.399,1,0,1.124,,0,139,139,27,1,two_way_cognate,1,REAL,FALSA
,,,,,,,,,627e7906b82dabdbe672cdd1,001,2025-04-30_18h45.08.698,empathy_intonation_perc,2024.1.4,Win32,19.94415636,,,,,,,,,,,,,,148,gino,,,,,,334.4,336.06,0,1,1.121,,0,140,140,147,1,pseudoword,0,REAL,FALSA
,,,,,,,,,627e7906b82dabdbe672cdd1,001,2025-04-30_18h45.08.698,empathy_intonation_perc,2024.1.4,Win32,19.94415636,,,,,,,,,,,,,,59,feo,,,,,,336.06,337.466,1,0,0.884,,0,141,141,58,1,non_cognate,1,REAL,FALSA
,,,,,,,,,627e7906b82dabdbe672cdd1,001,2025-04-30_18h45.08.698,empathy_intonation_perc,2024.1.4,Win32,19.94415636,,,,,,,,,,,,,,67,llamar,,,,,,337.467,338.751,1,0,0.751,,0,142,142,66,1,non_cognate,1,REAL,FALSA
,,,,,,,,,627e7906b82dabdbe672cdd1,001,2025-04-30_18h45.08.698,empathy_intonation_perc,2024.1.4,Win32,19.94415636,,,,,,,,,,,,,,63,hilo,,,,,,338.753,341.7,0,1,2.413,,0,143,143,62,1,non_cognate,1,REAL,FALSA
,,,,,,,,,627e7906b82dabdbe672cdd1,001,2025-04-30_18h45.08.698,empathy_intonation_perc,2024.1.4,Win32,19.94415636,,,,,,,,,,,,,,3,disco,,,,,,341.701,343.075,1,0,0.852,,0,144,144,2,1,three_way_cognate,1,REAL,FALSA
,,,,,,,,,627e7906b82dabdbe672cdd1,001,2025-04-30_18h45.08.698,empathy_intonation_perc,2024.1.4,Win32,19.94415636,,,,,,,,,,,,,,184,huenos,,,,,,343.076,344.835,0,1,1.21,,0,145,145,183,1,pseudoword,0,REAL,FALSA
,,,,,,,,,627e7906b82dabdbe672cdd1,001,2025-04-30_18h45.08.698,empathy_intonation_perc,2024.1.4,Win32,19.94415636,,,,,,,,,,,,,,97,nocita,,,,,,344.837,347.172,1,0,1.799,,0,146,146,96,1,pseudoword,0,REAL,FALSA
,,,,,,,,,627e7906b82dabdbe672cdd1,001,2025-04-30_18h45.08.698,empathy_intonation_perc,2024.1.4,Win32,19.94415636,,,,,,,,,,,,,,4,flora,,,,,,347.172,348.805,1,0,1.092,,0,147,147,3,1,three_way_cognate,1,REAL,FALSA
,,,,,,,,,627e7906b82dabdbe672cdd1,001,2025-04-30_18h45.08.698,empathy_intonation_perc,2024.1.4,Win32,19.94415636,,,,,,,,,,,,,,58,colcha,,,,,,348.806,350.285,0,1,0.951,,0,148,148,57,1,non_cognate,1,REAL,FALSA
,,,,,,,,,627e7906b82dabdbe672cdd1,001,2025-04-30_18h45.08.698,empathy_intonation_perc,2024.1.4,Win32,19.94415636,,,,,,,,,,,,,,135,panté,,,,,,350.286,351.92,0,1,1.103,,0,149,149,134,1,pseudoword,0,REAL,FALSA
,,,,,,,,,627e7906b82dabdbe672cdd1,001,2025-04-30_18h45.08.698,empathy_intonation_perc,2024.1.4,Win32,19.94415636,,,,,,,,,,,,,,110,densó,,,,,,351.921,354.45,0,1,1.985,,0,150,150,109,1,pseudoword,0,REAL,FALSA
,,,,,,,,,627e7906b82dabdbe672cdd1,001,2025-04-30_18h45.08.698,empathy_intonation_perc,2024.1.4,Win32,19.94415636,,,,,,,,,,,,,,71,torta,,,,,,354.451,355.993,1,0,0.995,,0,151,151,70,1,non_cognate,1,REAL,FALSA
,,,,,,,,,627e7906b82dabdbe672cdd1,001,2025-04-30_18h45.08.698,empathy_intonation_perc,2024.1.4,Win32,19.94415636,,,,,,,,,,,,,,118,bará,,,,,,355.996,357.837,1,0,1.306,,0,152,152,117,1,pseudoword,0,REAL,FALSA
,,,,,,,,,627e7906b82dabdbe672cdd1,001,2025-04-30_18h45.08.698,empathy_intonation_perc,2024.1.4,Win32,19.94415636,,,,,,,,,,,,,,187,nomata,,,,,,357.838,359.485,0,1,1.106,,0,153,153,186,1,pseudoword,0,REAL,FALSA
,,,,,,,,,627e7906b82dabdbe672cdd1,001,2025-04-30_18h45.08.698,empathy_intonation_perc,2024.1.4,Win32,19.94415636,,,,,,,,,,,,,,20,trauma,,,,,,359.486,360.774,1,0,0.752,,0,154,154,19,1,three_way_cognate,1,REAL,FALSA
,,,,,,,,,627e7906b82dabdbe672cdd1,001,2025-04-30_18h45.08.698,empathy_intonation_perc,2024.1.4,Win32,19.94415636,,,,,,,,,,,,,,56,pico,,,,,,360.775,362.414,1,0,1.11,,0,155,155,55,1,non_cognate,1,REAL,FALSA
,,,,,,,,,627e7906b82dabdbe672cdd1,001,2025-04-30_18h45.08.698,empathy_intonation_perc,2024.1.4,Win32,19.94415636,,,,,,,,,,,,,,2,tumor,,,,,,362.415,363.701,1,0,0.744,,0,156,156,1,1,three_way_cognate,1,REAL,FALSA
,,,,,,,,,627e7906b82dabdbe672cdd1,001,2025-04-30_18h45.08.698,empathy_intonation_perc,2024.1.4,Win32,19.94415636,,,,,,,,,,,,,,68,puñal,,,,,,363.702,365.122,1,0,0.891,,0,157,157,67,1,non_cognate,1,REAL,FALSA
,,,,,,,,,627e7906b82dabdbe672cdd1,001,2025-04-30_18h45.08.698,empathy_intonation_perc,2024.1.4,Win32,19.94415636,,,,,,,,,,,,,,24,retina,,,,,,365.122,366.552,1,0,0.887,,0,158,158,23,1,three_way_cognate,1,REAL,FALSA
,,,,,,,,,627e7906b82dabdbe672cdd1,001,2025-04-30_18h45.08.698,empathy_intonation_perc,2024.1.4,Win32,19.94415636,,,,,,,,,,,,,,128,pelí,,,,,,366.552,368.205,0,1,1.125,,0,159,159,127,1,pseudoword,0,REAL,FALSA
,,,,,,,,,627e7906b82dabdbe672cdd1,001,2025-04-30_18h45.08.698,empathy_intonation_perc,2024.1.4,Win32,19.94415636,,,,,,,,,,,,,,75,patada,,,,,,368.206,371.268,0,1,2.521,,0,160,160,74,1,non_cognate,1,REAL,FALSA
,,,,,,,,,627e7906b82dabdbe672cdd1,001,2025-04-30_18h45.08.698,empathy_intonation_perc,2024.1.4,Win32,19.94415636,,,,,,,,,,,,,,191,frasis,,,,,,371.269,373.769,1,0,1.968,,0,161,161,190,1,pseudoword,0,REAL,FALSA
,,,,,,,,,627e7906b82dabdbe672cdd1,001,2025-04-30_18h45.08.698,empathy_intonation_perc,2024.1.4,Win32,19.94415636,,,,,,,,,,,,,,161,civas,,,,,,373.77,375.507,1,0,1.195,,0,162,162,160,1,pseudoword,0,REAL,FALSA
,,,,,,,,,627e7906b82dabdbe672cdd1,001,2025-04-30_18h45.08.698,empathy_intonation_perc,2024.1.4,Win32,19.94415636,,,,,,,,,,,,,,172,dogue,,,,,,375.508,376.972,1,0,0.941,,0,163,163,171,1,pseudoword,0,REAL,FALSA
,,,,,,,,,627e7906b82dabdbe672cdd1,001,2025-04-30_18h45.08.698,empathy_intonation_perc,2024.1.4,Win32,19.94415636,,,,,,,,,,,,,,95,listo,,,,,,376.972,378.356,1,0,0.862,,0,164,164,94,1,non_cognate,1,REAL,FALSA
,,,,,,,,,627e7906b82dabdbe672cdd1,001,2025-04-30_18h45.08.698,empathy_intonation_perc,2024.1.4,Win32,19.94415636,,,,,,,,,,,,,,31,civil,,,,,,378.357,379.627,1,0,0.746,,0,165,165,30,1,two_way_cognate,1,REAL,FALSA
,,,,,,,,,627e7906b82dabdbe672cdd1,001,2025-04-30_18h45.08.698,empathy_intonation_perc,2024.1.4,Win32,19.94415636,,,,,,,,,,,,,,145,rúo,,,,,,379.627,381.204,0,1,1.056,,0,166,166,144,1,pseudoword,0,REAL,FALSA
,,,,,,,,,627e7906b82dabdbe672cdd1,001,2025-04-30_18h45.08.698,empathy_intonation_perc,2024.1.4,Win32,19.94415636,,,,,,,,,,,,,,54,tapón,,,,,,381.204,383.486,0,1,1.749,,0,167,167,53,1,non_cognate,1,REAL,FALSA
,,,,,,,,,627e7906b82dabdbe672cdd1,001,2025-04-30_18h45.08.698,empathy_intonation_perc,2024.1.4,Win32,19.94415636,,,,,,,,,,,,,,143,hurcos,,,,,,383.487,385.002,0,1,0.971,,0,168,168,142,1,pseudoword,0,REAL,FALSA
,,,,,,,,,627e7906b82dabdbe672cdd1,001,2025-04-30_18h45.08.698,empathy_intonation_perc,2024.1.4,Win32,19.94415636,,,,,,,,,,,,,,93,tapa,,,,,,385.003,386.936,0,1,1.394,,0,169,169,92,1,non_cognate,1,REAL,FALSA
,,,,,,,,,627e7906b82dabdbe672cdd1,001,2025-04-30_18h45.08.698,empathy_intonation_perc,2024.1.4,Win32,19.94415636,,,,,,,,,,,,,,119,esís,,,,,,386.937,388.373,0,1,0.902,,0,170,170,118,1,pseudoword,0,REAL,FALSA
,,,,,,,,,627e7906b82dabdbe672cdd1,001,2025-04-30_18h45.08.698,empathy_intonation_perc,2024.1.4,Win32,19.94415636,,,,,,,,,,,,,,86,cuenco,,,,,,388.373,390.271,1,0,1.359,,0,171,171,85,1,non_cognate,1,REAL,FALSA
,,,,,,,,,627e7906b82dabdbe672cdd1,001,2025-04-30_18h45.08.698,empathy_intonation_perc,2024.1.4,Win32,19.94415636,,,,,,,,,,,,,,90,venado,,,,,,390.274,391.592,0,1,0.782,,0,172,172,89,1,non_cognate,1,REAL,FALSA
,,,,,,,,,627e7906b82dabdbe672cdd1,001,2025-04-30_18h45.08.698,empathy_intonation_perc,2024.1.4,Win32,19.94415636,,,,,,,,,,,,,,87,muleta,,,,,,391.593,393.469,0,1,1.325,,0,173,173,86,1,non_cognate,1,REAL,FALSA
,,,,,,,,,627e7906b82dabdbe672cdd1,001,2025-04-30_18h45.08.698,empathy_intonation_perc,2024.1.4,Win32,19.94415636,,,,,,,,,,,,,,64,rizado,,,,,,393.47,394.957,0,1,0.951,,0,174,174,63,1,non_cognate,1,REAL,FALSA
,,,,,,,,,627e7906b82dabdbe672cdd1,001,2025-04-30_18h45.08.698,empathy_intonation_perc,2024.1.4,Win32,19.94415636,,,,,,,,,,,,,,101,losco,,,,,,394.958,396.752,0,1,1.261,,0,175,175,100,1,pseudoword,0,REAL,FALSA
,,,,,,,,,627e7906b82dabdbe672cdd1,001,2025-04-30_18h45.08.698,empathy_intonation_perc,2024.1.4,Win32,19.94415636,,,,,,,,,,,,,,92,flecha,,,,,,396.754,398.522,1,0,1.231,,0,176,176,91,1,non_cognate,1,REAL,FALSA
,,,,,,,,,627e7906b82dabdbe672cdd1,001,2025-04-30_18h45.08.698,empathy_intonation_perc,2024.1.4,Win32,19.94415636,,,,,,,,,,,,,,73,llevar,,,,,,398.524,399.808,1,0,0.745,,0,177,177,72,1,non_cognate,1,REAL,FALSA
,,,,,,,,,627e7906b82dabdbe672cdd1,001,2025-04-30_18h45.08.698,empathy_intonation_perc,2024.1.4,Win32,19.94415636,,,,,,,,,,,,,,139,sasos,,,,,,399.809,401.523,0,1,1.175,,0,178,178,138,1,pseudoword,0,REAL,FALSA
,,,,,,,,,627e7906b82dabdbe672cdd1,001,2025-04-30_18h45.08.698,empathy_intonation_perc,2024.1.4,Win32,19.94415636,,,,,,,,,,,,,,83,hálito,,,,,,401.523,403.909,0,1,1.849,,0,179,179,82,1,non_cognate,1,REAL,FALSA
,,,,,,,,,627e7906b82dabdbe672cdd1,001,2025-04-30_18h45.08.698,empathy_intonation_perc,2024.1.4,Win32,19.94415636,,,,,,,,,,,,,,11,golf,,,,,,403.91,405.136,1,0,0.689,,0,180,180,10,1,three_way_cognate,1,REAL,FALSA
,,,,,,,,,627e7906b82dabdbe672cdd1,001,2025-04-30_18h45.08.698,empathy_intonation_perc,2024.1.4,Win32,19.94415636,,,,,,,,,,,,,,155,kugis,,,,,,405.136,406.703,0,1,1.021,,0,181,181,154,1,pseudoword,0,REAL,FALSA
,,,,,,,,,627e7906b82dabdbe672cdd1,001,2025-04-30_18h45.08.698,empathy_intonation_perc,2024.1.4,Win32,19.94415636,,,,,,,,,,,,,,164,tecia,,,,,,406.704,408.436,0,1,1.182,,0,182,182,163,1,pseudoword,0,REAL,FALSA
,,,,,,,,,627e7906b82dabdbe672cdd1,001,2025-04-30_18h45.08.698,empathy_intonation_perc,2024.1.4,Win32,19.94415636,,,,,,,,,,,,,,169,pitis,,,,,,408.437,409.853,1,0,0.884,,0,183,183,168,1,pseudoword,0,REAL,FALSA
,,,,,,,,,627e7906b82dabdbe672cdd1,001,2025-04-30_18h45.08.698,empathy_intonation_perc,2024.1.4,Win32,19.94415636,,,,,,,,,,,,,,22,mango,,,,,,409.855,411.118,1,0,0.732,,0,184,184,21,1,three_way_cognate,1,REAL,FALSA
,,,,,,,,,627e7906b82dabdbe672cdd1,001,2025-04-30_18h45.08.698,empathy_intonation_perc,2024.1.4,Win32,19.94415636,,,,,,,,,,,,,,127,vien,,,,,,411.119,412.376,1,0,0.73,,0,185,185,126,1,pseudoword,0,REAL,FALSA
,,,,,,,,,627e7906b82dabdbe672cdd1,001,2025-04-30_18h45.08.698,empathy_intonation_perc,2024.1.4,Win32,19.94415636,,,,,,,,,,,,,,9,portal,,,,,,412.377,413.603,1,0,0.694,,0,186,186,8,1,three_way_cognate,1,REAL,FALSA
,,,,,,,,,627e7906b82dabdbe672cdd1,001,2025-04-30_18h45.08.698,empathy_intonation_perc,2024.1.4,Win32,19.94415636,,,,,,,,,,,,,,188,amplir,,,,,,413.606,415.119,1,0,0.97,,0,187,187,187,1,pseudoword,0,REAL,FALSA
,,,,,,,,,627e7906b82dabdbe672cdd1,001,2025-04-30_18h45.08.698,empathy_intonation_perc,2024.1.4,Win32,19.94415636,,,,,,,,,,,,,,10,drama,,,,,,415.12,416.391,1,0,0.736,,0,188,188,9,1,three_way_cognate,1,REAL,FALSA
,,,,,,,,,627e7906b82dabdbe672cdd1,001,2025-04-30_18h45.08.698,empathy_intonation_perc,2024.1.4,Win32,19.94415636,,,,,,,,,,,,,,84,aviso,,,,,,416.393,418.038,1,0,1.111,,0,189,189,83,1,non_cognate,1,REAL,FALSA
,,,,,,,,,627e7906b82dabdbe672cdd1,001,2025-04-30_18h45.08.698,empathy_intonation_perc,2024.1.4,Win32,19.94415636,,,,,,,,,,,,,,85,enorme,,,,,,418.04,420.136,1,0,1.557,,0,190,190,84,1,non_cognate,1,REAL,FALSA
,,,,,,,,,627e7906b82dabdbe672cdd1,001,2025-04-30_18h45.08.698,empathy_intonation_perc,2024.1.4,Win32,19.94415636,,,,,,,,,,,,,,176,gripar,,,,,,420.136,421.755,1,0,1.077,,0,191,191,175,1,pseudoword,0,REAL,FALSA
