lextale_instructions.started,lextale_instructions.stopped,lextale_instructions_loop.thisRepN,lextale_instructions_loop.thisTrialN,lextale_instructions_loop.thisN,lextale_instructions_loop.thisIndex,lextale_instructions_loop.ran,instructions_text,continue_text,participant,session,date,expName,psychopyVersion,OS,frameRate,lextale_practice.started,lextale_practice.stopped,key_resp_lextale_practice.keys,key_resp_lextale_practice.corr,key_resp_lextale_practice.rt,key_resp_lextale_practice.duration,lextale_practice_feedback.started,lextale_practice_feedback.stopped,lextale_practice_trials.thisRepN,lextale_practice_trials.thisTrialN,lextale_practice_trials.thisN,lextale_practice_trials.thisIndex,lextale_practice_trials.ran,stim,word,correct_response,prac_button_real,prac_button_false,lextale_check.started,lextale_check.stopped,lextale_trial.started,lextale_trial.stopped,key_resp_lextale_trial.keys,key_resp_lextale_trial.corr,key_resp_lextale_trial.rt,key_resp_lextale_trial.duration,lextail_trials.thisRepN,lextail_trials.thisTrialN,lextail_trials.thisN,lextail_trials.thisIndex,lextail_trials.ran,type,correct_reponse,button_real,button_false
0.008,10.2733,0,0,0,0,1,"Este es un test de vocabulario en español. 
  
  A continuación vas a ver 90 secuencias de letras que parecen 'españolas'.
  
  Solo algunas de ellas son palabras de verdad.",(presiona la barra espaciadora para continuar),6362ae39a567fd42662f5f38,001,2025-04-30_17h15.47.709,empathy_intonation_perc,2024.1.4,Win32,59.17159763,,,,,,,,,,,,,,,,,,,,,,,,,,,,,,,,,,,
10.2743,18.8479,0,1,1,1,1,"Por favor, señala las palabras que tú conoces (aquellas que estás convencido que son palabras españolas, incluso aunque no seas capaz de dar el significado preciso).",(presiona la barra espaciadora para continuar),6362ae39a567fd42662f5f38,001,2025-04-30_17h15.47.709,empathy_intonation_perc,2024.1.4,Win32,59.17159763,,,,,,,,,,,,,,,,,,,,,,,,,,,,,,,,,,,
18.8485,29.895,0,2,2,2,1,Pero cuidado: los errores se penalizan. Por eso no tiene sentido tratar de incrementar tu puntuación marcando como reales palabras que nunca has visto.,(presiona la barra espaciadora para continuar),6362ae39a567fd42662f5f38,001,2025-04-30_17h15.47.709,empathy_intonation_perc,2024.1.4,Win32,59.17159763,,,,,,,,,,,,,,,,,,,,,,,,,,,,,,,,,,,
29.8955,39.4041,0,3,3,3,1,"Presiona la tecla 1 si piensas que es una palabra real y la tecla 
  0 si piensas que es una palabra falsa. 
  
  Vamos a practicar un poco...",(presiona la barra espaciadora para continuar),6362ae39a567fd42662f5f38,001,2025-04-30_17h15.47.709,empathy_intonation_perc,2024.1.4,Win32,59.17159763,,,,,,,,,,,,,,,,,,,,,,,,,,,,,,,,,,,
,,,,,,,,,6362ae39a567fd42662f5f38,001,2025-04-30_17h15.47.709,empathy_intonation_perc,2024.1.4,Win32,59.17159763,39.409,41.4738,0,1,1.5192,,41.4744,42.475,0,0,0,0,1,0,depiste,0,REAL,FALSA,,,,,,,,,,,,,,,,,
,,,,,,,,,6362ae39a567fd42662f5f38,001,2025-04-30_17h15.47.709,empathy_intonation_perc,2024.1.4,Win32,59.17159763,42.4766,43.8918,1,1,0.868,,43.8919,44.8937,0,1,1,1,1,0,sí,1,REAL,FALSA,,,,,,,,,,,,,,,,,
,,,,,,,,,6362ae39a567fd42662f5f38,001,2025-04-30_17h15.47.709,empathy_intonation_perc,2024.1.4,Win32,59.17159763,44.895,46.4786,0,1,1.0351,,46.4789,47.4793,0,2,2,2,1,0,coné,0,REAL,FALSA,,,,,,,,,,,,,,,,,
,,,,,,,,,6362ae39a567fd42662f5f38,001,2025-04-30_17h15.47.709,empathy_intonation_perc,2024.1.4,Win32,59.17159763,47.4806,48.914,0,1,0.8914,,48.9142,49.9153,0,3,3,3,1,0,calpar,0,REAL,FALSA,,,,,,,,,,,,,,,,,
,,,,,,,,,6362ae39a567fd42662f5f38,001,2025-04-30_17h15.47.709,empathy_intonation_perc,2024.1.4,Win32,59.17159763,49.9161,51.2335,0,1,0.7689,,51.2336,52.2342,0,4,4,4,1,0,joten,0,REAL,FALSA,,,,,,,,,,,,,,,,,
,,,,,,,,,6362ae39a567fd42662f5f38,001,2025-04-30_17h15.47.709,empathy_intonation_perc,2024.1.4,Win32,59.17159763,52.2351,53.6365,1,1,0.8724,,53.6368,54.6379,0,5,5,5,1,0,sacapuntas,1,REAL,FALSA,,,,,,,,,,,,,,,,,
,,,,,,,,,6362ae39a567fd42662f5f38,001,2025-04-30_17h15.47.709,empathy_intonation_perc,2024.1.4,Win32,59.17159763,54.639,55.9553,0,1,0.7691,,55.9554,56.957,0,6,6,6,1,0,priba,0,REAL,FALSA,,,,,,,,,,,,,,,,,
,,,,,,,,,6362ae39a567fd42662f5f38,001,2025-04-30_17h15.47.709,empathy_intonation_perc,2024.1.4,Win32,59.17159763,56.958,58.4413,0,1,0.9429,,58.4414,59.4431,0,7,7,7,1,0,pelasula,0,REAL,FALSA,,,,,,,,,,,,,,,,,
,,,,,,,,,6362ae39a567fd42662f5f38,001,2025-04-30_17h15.47.709,empathy_intonation_perc,2024.1.4,Win32,59.17159763,59.4443,60.5111,1,1,0.5268,,60.5113,61.5122,0,8,8,8,1,0,bien,1,REAL,FALSA,,,,,,,,,,,,,,,,,
,,,,,,,,,6362ae39a567fd42662f5f38,001,2025-04-30_17h15.47.709,empathy_intonation_perc,2024.1.4,Win32,59.17159763,61.5134,62.5796,1,1,0.5204,,62.5797,63.5806,0,9,9,9,1,0,casa,1,REAL,FALSA,,,,,,,,,,,,,,,,,
,,,,,,,,,6362ae39a567fd42662f5f38,001,2025-04-30_17h15.47.709,empathy_intonation_perc,2024.1.4,Win32,59.17159763,63.5815,66.3002,0,1,2.1781,,66.3004,67.3014,0,10,10,10,1,0,lejo,0,REAL,FALSA,,,,,,,,,,,,,,,,,
,,,,,,,,,6362ae39a567fd42662f5f38,001,2025-04-30_17h15.47.709,empathy_intonation_perc,2024.1.4,Win32,59.17159763,67.3028,68.8525,0,1,1.002,,68.8526,69.8541,0,11,11,11,1,0,pretantas,0,REAL,FALSA,,,,,,,,,,,,,,,,,
,,,,,,,,,6362ae39a567fd42662f5f38,001,2025-04-30_17h15.47.709,empathy_intonation_perc,2024.1.4,Win32,59.17159763,,,,,,,,,,,,,,,,,,,69.855,73.0411,,,,,,,,,,,,,,,
,,,,,,,,,6362ae39a567fd42662f5f38,001,2025-04-30_17h15.47.709,empathy_intonation_perc,2024.1.4,Win32,59.17159763,,,,,,,,,,,,,,58,colcha,,,,,,73.0609,75.1937,1,0,1.5923,,0,0,0,57,1,non_cognate,1,REAL,FALSA
,,,,,,,,,6362ae39a567fd42662f5f38,001,2025-04-30_17h15.47.709,empathy_intonation_perc,2024.1.4,Win32,59.17159763,,,,,,,,,,,,,,130,dubo,,,,,,75.1951,76.6111,0,1,0.8761,,0,1,1,129,1,pseudoword,0,REAL,FALSA
,,,,,,,,,6362ae39a567fd42662f5f38,001,2025-04-30_17h15.47.709,empathy_intonation_perc,2024.1.4,Win32,59.17159763,,,,,,,,,,,,,,54,tapón,,,,,,76.6121,78.0964,1,0,0.9514,,0,2,2,53,1,non_cognate,1,REAL,FALSA
,,,,,,,,,6362ae39a567fd42662f5f38,001,2025-04-30_17h15.47.709,empathy_intonation_perc,2024.1.4,Win32,59.17159763,,,,,,,,,,,,,,23,plural,,,,,,78.0972,79.431,1,0,0.7858,,0,3,3,22,1,three_way_cognate,1,REAL,FALSA
,,,,,,,,,6362ae39a567fd42662f5f38,001,2025-04-30_17h15.47.709,empathy_intonation_perc,2024.1.4,Win32,59.17159763,,,,,,,,,,,,,,63,hilo,,,,,,79.4319,80.7331,1,0,0.758,,0,4,4,62,1,non_cognate,1,REAL,FALSA
,,,,,,,,,6362ae39a567fd42662f5f38,001,2025-04-30_17h15.47.709,empathy_intonation_perc,2024.1.4,Win32,59.17159763,,,,,,,,,,,,,,22,mango,,,,,,80.7344,81.9336,1,0,0.6549,,0,5,5,21,1,three_way_cognate,1,REAL,FALSA
,,,,,,,,,6362ae39a567fd42662f5f38,001,2025-04-30_17h15.47.709,empathy_intonation_perc,2024.1.4,Win32,59.17159763,,,,,,,,,,,,,,65,guerra,,,,,,81.9346,83.1185,1,0,0.6354,,0,6,6,64,1,non_cognate,1,REAL,FALSA
,,,,,,,,,6362ae39a567fd42662f5f38,001,2025-04-30_17h15.47.709,empathy_intonation_perc,2024.1.4,Win32,59.17159763,,,,,,,,,,,,,,46,mortal,,,,,,83.1195,84.7711,1,0,1.1023,,0,7,7,45,1,two_way_cognate,1,REAL,FALSA
,,,,,,,,,6362ae39a567fd42662f5f38,001,2025-04-30_17h15.47.709,empathy_intonation_perc,2024.1.4,Win32,59.17159763,,,,,,,,,,,,,,67,llamar,,,,,,84.7721,85.9713,1,0,0.6604,,0,8,8,66,1,non_cognate,1,REAL,FALSA
,,,,,,,,,6362ae39a567fd42662f5f38,001,2025-04-30_17h15.47.709,empathy_intonation_perc,2024.1.4,Win32,59.17159763,,,,,,,,,,,,,,35,aurora,,,,,,85.972,87.44,0,1,0.9397,,0,9,9,34,1,two_way_cognate,1,REAL,FALSA
,,,,,,,,,6362ae39a567fd42662f5f38,001,2025-04-30_17h15.47.709,empathy_intonation_perc,2024.1.4,Win32,59.17159763,,,,,,,,,,,,,,43,honor,,,,,,87.441,88.7754,1,0,0.7852,,0,10,10,42,1,two_way_cognate,1,REAL,FALSA
,,,,,,,,,6362ae39a567fd42662f5f38,001,2025-04-30_17h15.47.709,empathy_intonation_perc,2024.1.4,Win32,59.17159763,,,,,,,,,,,,,,107,plago,,,,,,88.7767,90.4769,0,1,1.1524,,0,11,11,106,1,pseudoword,0,REAL,FALSA
,,,,,,,,,6362ae39a567fd42662f5f38,001,2025-04-30_17h15.47.709,empathy_intonation_perc,2024.1.4,Win32,59.17159763,,,,,,,,,,,,,,33,collar,,,,,,90.478,91.8963,1,0,0.8681,,0,12,12,32,1,two_way_cognate,1,REAL,FALSA
,,,,,,,,,6362ae39a567fd42662f5f38,001,2025-04-30_17h15.47.709,empathy_intonation_perc,2024.1.4,Win32,59.17159763,,,,,,,,,,,,,,181,gravés,,,,,,91.8975,95.6823,0,1,3.2435,,0,13,13,180,1,pseudoword,0,REAL,FALSA
,,,,,,,,,6362ae39a567fd42662f5f38,001,2025-04-30_17h15.47.709,empathy_intonation_perc,2024.1.4,Win32,59.17159763,,,,,,,,,,,,,,171,gotro,,,,,,95.683,97.0669,0,1,0.8434,,0,14,14,170,1,pseudoword,0,REAL,FALSA
,,,,,,,,,6362ae39a567fd42662f5f38,001,2025-04-30_17h15.47.709,empathy_intonation_perc,2024.1.4,Win32,59.17159763,,,,,,,,,,,,,,25,vigor,,,,,,97.0679,98.5859,0,1,0.9844,,0,15,15,24,1,two_way_cognate,1,REAL,FALSA
,,,,,,,,,6362ae39a567fd42662f5f38,001,2025-04-30_17h15.47.709,empathy_intonation_perc,2024.1.4,Win32,59.17159763,,,,,,,,,,,,,,178,inichó,,,,,,98.5871,100.2708,0,1,1.1365,,0,16,16,177,1,pseudoword,0,REAL,FALSA
,,,,,,,,,6362ae39a567fd42662f5f38,001,2025-04-30_17h15.47.709,empathy_intonation_perc,2024.1.4,Win32,59.17159763,,,,,,,,,,,,,,4,flora,,,,,,100.2716,101.3226,1,0,0.5016,,0,17,17,3,1,three_way_cognate,1,REAL,FALSA
,,,,,,,,,6362ae39a567fd42662f5f38,001,2025-04-30_17h15.47.709,empathy_intonation_perc,2024.1.4,Win32,59.17159763,,,,,,,,,,,,,,45,total,,,,,,101.3238,102.4731,1,0,0.6085,,0,18,18,44,1,two_way_cognate,1,REAL,FALSA
,,,,,,,,,6362ae39a567fd42662f5f38,001,2025-04-30_17h15.47.709,empathy_intonation_perc,2024.1.4,Win32,59.17159763,,,,,,,,,,,,,,49,teñir,,,,,,102.4739,104.01,0,1,0.9957,,0,19,19,48,1,non_cognate,1,REAL,FALSA
,,,,,,,,,6362ae39a567fd42662f5f38,001,2025-04-30_17h15.47.709,empathy_intonation_perc,2024.1.4,Win32,59.17159763,,,,,,,,,,,,,,127,vien,,,,,,104.0105,105.2259,1,0,0.6743,,0,20,20,126,1,pseudoword,0,REAL,FALSA
,,,,,,,,,6362ae39a567fd42662f5f38,001,2025-04-30_17h15.47.709,empathy_intonation_perc,2024.1.4,Win32,59.17159763,,,,,,,,,,,,,,167,dobbo,,,,,,105.2267,106.7113,0,1,0.9355,,0,21,21,166,1,pseudoword,0,REAL,FALSA
,,,,,,,,,6362ae39a567fd42662f5f38,001,2025-04-30_17h15.47.709,empathy_intonation_perc,2024.1.4,Win32,59.17159763,,,,,,,,,,,,,,62,pegar,,,,,,106.7121,109.9482,1,0,2.6875,,0,22,22,61,1,non_cognate,1,REAL,FALSA
,,,,,,,,,6362ae39a567fd42662f5f38,001,2025-04-30_17h15.47.709,empathy_intonation_perc,2024.1.4,Win32,59.17159763,,,,,,,,,,,,,,83,hálito,,,,,,109.9496,111.1996,0,1,0.7022,,0,23,23,82,1,non_cognate,1,REAL,FALSA
,,,,,,,,,6362ae39a567fd42662f5f38,001,2025-04-30_17h15.47.709,empathy_intonation_perc,2024.1.4,Win32,59.17159763,,,,,,,,,,,,,,175,tradía,,,,,,111.2004,113.5356,0,1,1.7863,,0,24,24,174,1,pseudoword,0,REAL,FALSA
,,,,,,,,,6362ae39a567fd42662f5f38,001,2025-04-30_17h15.47.709,empathy_intonation_perc,2024.1.4,Win32,59.17159763,,,,,,,,,,,,,,75,patada,,,,,,113.5367,116.7895,1,0,2.7049,,0,25,25,74,1,non_cognate,1,REAL,FALSA
,,,,,,,,,6362ae39a567fd42662f5f38,001,2025-04-30_17h15.47.709,empathy_intonation_perc,2024.1.4,Win32,59.17159763,,,,,,,,,,,,,,6,horror,,,,,,116.791,118.0242,1,0,0.686,,0,26,26,5,1,three_way_cognate,1,REAL,FALSA
,,,,,,,,,6362ae39a567fd42662f5f38,001,2025-04-30_17h15.47.709,empathy_intonation_perc,2024.1.4,Win32,59.17159763,,,,,,,,,,,,,,123,arane,,,,,,118.0255,119.2924,0,1,0.7189,,0,27,27,122,1,pseudoword,0,REAL,FALSA
,,,,,,,,,6362ae39a567fd42662f5f38,001,2025-04-30_17h15.47.709,empathy_intonation_perc,2024.1.4,Win32,59.17159763,,,,,,,,,,,,,,169,pitis,,,,,,119.2933,121.0773,0,1,1.2385,,0,28,28,168,1,pseudoword,0,REAL,FALSA
,,,,,,,,,6362ae39a567fd42662f5f38,001,2025-04-30_17h15.47.709,empathy_intonation_perc,2024.1.4,Win32,59.17159763,,,,,,,,,,,,,,48,pelvis,,,,,,121.0785,122.7459,1,0,1.1197,,0,29,29,47,1,two_way_cognate,1,REAL,FALSA
,,,,,,,,,6362ae39a567fd42662f5f38,001,2025-04-30_17h15.47.709,empathy_intonation_perc,2024.1.4,Win32,59.17159763,,,,,,,,,,,,,,88,percha,,,,,,122.747,124.7979,1,0,1.5034,,0,30,30,87,1,non_cognate,1,REAL,FALSA
,,,,,,,,,6362ae39a567fd42662f5f38,001,2025-04-30_17h15.47.709,empathy_intonation_perc,2024.1.4,Win32,59.17159763,,,,,,,,,,,,,,26,enigma,,,,,,124.7984,126.1328,0,1,0.7858,,0,31,31,25,1,two_way_cognate,1,REAL,FALSA
,,,,,,,,,6362ae39a567fd42662f5f38,001,2025-04-30_17h15.47.709,empathy_intonation_perc,2024.1.4,Win32,59.17159763,,,,,,,,,,,,,,122,boñaz,,,,,,126.1338,127.8342,0,1,1.1578,,0,32,32,121,1,pseudoword,0,REAL,FALSA
,,,,,,,,,6362ae39a567fd42662f5f38,001,2025-04-30_17h15.47.709,empathy_intonation_perc,2024.1.4,Win32,59.17159763,,,,,,,,,,,,,,9,portal,,,,,,127.8351,129.121,1,0,0.7623,,0,33,33,8,1,three_way_cognate,1,REAL,FALSA
,,,,,,,,,6362ae39a567fd42662f5f38,001,2025-04-30_17h15.47.709,empathy_intonation_perc,2024.1.4,Win32,59.17159763,,,,,,,,,,,,,,153,golla,,,,,,129.1216,131.0889,0,1,1.4229,,0,34,34,152,1,pseudoword,0,REAL,FALSA
,,,,,,,,,6362ae39a567fd42662f5f38,001,2025-04-30_17h15.47.709,empathy_intonation_perc,2024.1.4,Win32,59.17159763,,,,,,,,,,,,,,51,listo,,,,,,131.0904,132.24,1,0,0.6017,,0,35,35,50,1,non_cognate,1,REAL,FALSA
,,,,,,,,,6362ae39a567fd42662f5f38,001,2025-04-30_17h15.47.709,empathy_intonation_perc,2024.1.4,Win32,59.17159763,,,,,,,,,,,,,,81,sacar,,,,,,132.2417,133.4913,1,0,0.7117,,0,36,36,80,1,non_cognate,1,REAL,FALSA
,,,,,,,,,6362ae39a567fd42662f5f38,001,2025-04-30_17h15.47.709,empathy_intonation_perc,2024.1.4,Win32,59.17159763,,,,,,,,,,,,,,129,vinzó,,,,,,133.4925,134.9258,0,1,0.8921,,0,37,37,128,1,pseudoword,0,REAL,FALSA
,,,,,,,,,6362ae39a567fd42662f5f38,001,2025-04-30_17h15.47.709,empathy_intonation_perc,2024.1.4,Win32,59.17159763,,,,,,,,,,,,,,3,disco,,,,,,134.9269,136.0781,1,0,0.6054,,0,38,38,2,1,three_way_cognate,1,REAL,FALSA
,,,,,,,,,6362ae39a567fd42662f5f38,001,2025-04-30_17h15.47.709,empathy_intonation_perc,2024.1.4,Win32,59.17159763,,,,,,,,,,,,,,64,rizado,,,,,,136.0796,137.6955,1,0,1.0719,,0,39,39,63,1,non_cognate,1,REAL,FALSA
,,,,,,,,,6362ae39a567fd42662f5f38,001,2025-04-30_17h15.47.709,empathy_intonation_perc,2024.1.4,Win32,59.17159763,,,,,,,,,,,,,,142,parre,,,,,,137.6964,139.1807,0,1,0.9352,,0,40,40,141,1,pseudoword,0,REAL,FALSA
,,,,,,,,,6362ae39a567fd42662f5f38,001,2025-04-30_17h15.47.709,empathy_intonation_perc,2024.1.4,Win32,59.17159763,,,,,,,,,,,,,,177,entodo,,,,,,139.182,141.3166,0,1,1.5859,,0,41,41,176,1,pseudoword,0,REAL,FALSA
,,,,,,,,,6362ae39a567fd42662f5f38,001,2025-04-30_17h15.47.709,empathy_intonation_perc,2024.1.4,Win32,59.17159763,,,,,,,,,,,,,,7,albino,,,,,,141.3179,142.618,1,0,0.753,,0,42,42,6,1,three_way_cognate,1,REAL,FALSA
,,,,,,,,,6362ae39a567fd42662f5f38,001,2025-04-30_17h15.47.709,empathy_intonation_perc,2024.1.4,Win32,59.17159763,,,,,,,,,,,,,,32,animal,,,,,,142.6193,143.6861,1,0,0.5214,,0,43,43,31,1,two_way_cognate,1,REAL,FALSA
,,,,,,,,,6362ae39a567fd42662f5f38,001,2025-04-30_17h15.47.709,empathy_intonation_perc,2024.1.4,Win32,59.17159763,,,,,,,,,,,,,,116,grigir,,,,,,143.687,145.0867,0,1,0.8609,,0,44,44,115,1,pseudoword,0,REAL,FALSA
,,,,,,,,,6362ae39a567fd42662f5f38,001,2025-04-30_17h15.47.709,empathy_intonation_perc,2024.1.4,Win32,59.17159763,,,,,,,,,,,,,,68,puñal,,,,,,145.0878,146.5393,1,0,0.919,,0,45,45,67,1,non_cognate,1,REAL,FALSA
,,,,,,,,,6362ae39a567fd42662f5f38,001,2025-04-30_17h15.47.709,empathy_intonation_perc,2024.1.4,Win32,59.17159763,,,,,,,,,,,,,,105,peniz,,,,,,146.5409,149.1418,1,0,2.0542,,0,46,46,104,1,pseudoword,0,REAL,FALSA
,,,,,,,,,6362ae39a567fd42662f5f38,001,2025-04-30_17h15.47.709,empathy_intonation_perc,2024.1.4,Win32,59.17159763,,,,,,,,,,,,,,13,plan,,,,,,149.1431,150.7605,1,0,1.0698,,0,47,47,12,1,three_way_cognate,1,REAL,FALSA
,,,,,,,,,6362ae39a567fd42662f5f38,001,2025-04-30_17h15.47.709,empathy_intonation_perc,2024.1.4,Win32,59.17159763,,,,,,,,,,,,,,72,rostro,,,,,,150.7623,152.1946,1,0,0.8855,,0,48,48,71,1,non_cognate,1,REAL,FALSA
,,,,,,,,,6362ae39a567fd42662f5f38,001,2025-04-30_17h15.47.709,empathy_intonation_perc,2024.1.4,Win32,59.17159763,,,,,,,,,,,,,,44,editor,,,,,,152.1958,153.6629,1,0,0.9178,,0,49,49,43,1,two_way_cognate,1,REAL,FALSA
,,,,,,,,,6362ae39a567fd42662f5f38,001,2025-04-30_17h15.47.709,empathy_intonation_perc,2024.1.4,Win32,59.17159763,,,,,,,,,,,,,,158,babrá,,,,,,153.6638,155.9988,0,1,1.7928,,0,50,50,157,1,pseudoword,0,REAL,FALSA
,,,,,,,,,6362ae39a567fd42662f5f38,001,2025-04-30_17h15.47.709,empathy_intonation_perc,2024.1.4,Win32,59.17159763,,,,,,,,,,,,,,57,regalo,,,,,,155.9998,157.2003,1,0,0.6511,,0,51,51,56,1,non_cognate,1,REAL,FALSA
,,,,,,,,,6362ae39a567fd42662f5f38,001,2025-04-30_17h15.47.709,empathy_intonation_perc,2024.1.4,Win32,59.17159763,,,,,,,,,,,,,,53,punta,,,,,,157.2015,158.7016,1,0,0.9604,,0,52,52,52,1,non_cognate,1,REAL,FALSA
,,,,,,,,,6362ae39a567fd42662f5f38,001,2025-04-30_17h15.47.709,empathy_intonation_perc,2024.1.4,Win32,59.17159763,,,,,,,,,,,,,,146,gió,,,,,,158.7026,160.0536,0,1,0.8009,,0,53,53,145,1,pseudoword,0,REAL,FALSA
,,,,,,,,,6362ae39a567fd42662f5f38,001,2025-04-30_17h15.47.709,empathy_intonation_perc,2024.1.4,Win32,59.17159763,,,,,,,,,,,,,,85,enorme,,,,,,160.0548,161.7056,1,0,1.1121,,0,54,54,84,1,non_cognate,1,REAL,FALSA
,,,,,,,,,6362ae39a567fd42662f5f38,001,2025-04-30_17h15.47.709,empathy_intonation_perc,2024.1.4,Win32,59.17159763,,,,,,,,,,,,,,108,jauda,,,,,,161.7067,163.5409,0,1,1.2935,,0,55,55,107,1,pseudoword,0,REAL,FALSA
,,,,,,,,,6362ae39a567fd42662f5f38,001,2025-04-30_17h15.47.709,empathy_intonation_perc,2024.1.4,Win32,59.17159763,,,,,,,,,,,,,,14,aura,,,,,,163.5419,165.0752,1,0,0.9932,,0,56,56,13,1,three_way_cognate,1,REAL,FALSA
,,,,,,,,,6362ae39a567fd42662f5f38,001,2025-04-30_17h15.47.709,empathy_intonation_perc,2024.1.4,Win32,59.17159763,,,,,,,,,,,,,,97,nocita,,,,,,165.076,166.4103,0,1,0.7853,,0,57,57,96,1,pseudoword,0,REAL,FALSA
,,,,,,,,,6362ae39a567fd42662f5f38,001,2025-04-30_17h15.47.709,empathy_intonation_perc,2024.1.4,Win32,59.17159763,,,,,,,,,,,,,,188,amplir,,,,,,166.4111,170.9999,1,0,4.0585,,0,58,58,187,1,pseudoword,0,REAL,FALSA
,,,,,,,,,6362ae39a567fd42662f5f38,001,2025-04-30_17h15.47.709,empathy_intonation_perc,2024.1.4,Win32,59.17159763,,,,,,,,,,,,,,28,ardor,,,,,,171.0013,172.3173,0,1,0.7688,,0,59,59,27,1,two_way_cognate,1,REAL,FALSA
,,,,,,,,,6362ae39a567fd42662f5f38,001,2025-04-30_17h15.47.709,empathy_intonation_perc,2024.1.4,Win32,59.17159763,,,,,,,,,,,,,,20,trauma,,,,,,172.3184,173.9361,1,0,1.0726,,0,60,60,19,1,three_way_cognate,1,REAL,FALSA
,,,,,,,,,6362ae39a567fd42662f5f38,001,2025-04-30_17h15.47.709,empathy_intonation_perc,2024.1.4,Win32,59.17159763,,,,,,,,,,,,,,168,cobén,,,,,,173.9371,176.9556,0,1,2.471,,0,61,61,167,1,pseudoword,0,REAL,FALSA
,,,,,,,,,6362ae39a567fd42662f5f38,001,2025-04-30_17h15.47.709,empathy_intonation_perc,2024.1.4,Win32,59.17159763,,,,,,,,,,,,,,42,rumor,,,,,,176.9567,178.108,1,0,0.6038,,0,62,62,41,1,two_way_cognate,1,REAL,FALSA
,,,,,,,,,6362ae39a567fd42662f5f38,001,2025-04-30_17h15.47.709,empathy_intonation_perc,2024.1.4,Win32,59.17159763,,,,,,,,,,,,,,82,brillo,,,,,,178.1092,179.4422,1,0,0.7856,,0,63,63,81,1,non_cognate,1,REAL,FALSA
,,,,,,,,,6362ae39a567fd42662f5f38,001,2025-04-30_17h15.47.709,empathy_intonation_perc,2024.1.4,Win32,59.17159763,,,,,,,,,,,,,,119,esís,,,,,,179.4436,180.6763,0,1,0.6847,,0,64,64,118,1,pseudoword,0,REAL,FALSA
,,,,,,,,,6362ae39a567fd42662f5f38,001,2025-04-30_17h15.47.709,empathy_intonation_perc,2024.1.4,Win32,59.17159763,,,,,,,,,,,,,,182,desaro,,,,,,180.6772,182.2784,0,1,1.0617,,0,65,65,181,1,pseudoword,0,REAL,FALSA
,,,,,,,,,6362ae39a567fd42662f5f38,001,2025-04-30_17h15.47.709,empathy_intonation_perc,2024.1.4,Win32,59.17159763,,,,,,,,,,,,,,56,pico,,,,,,182.2796,183.5458,1,0,0.7186,,0,66,66,55,1,non_cognate,1,REAL,FALSA
,,,,,,,,,6362ae39a567fd42662f5f38,001,2025-04-30_17h15.47.709,empathy_intonation_perc,2024.1.4,Win32,59.17159763,,,,,,,,,,,,,,134,molor,,,,,,183.5468,184.8973,0,1,0.8102,,0,67,67,133,1,pseudoword,0,REAL,FALSA
,,,,,,,,,6362ae39a567fd42662f5f38,001,2025-04-30_17h15.47.709,empathy_intonation_perc,2024.1.4,Win32,59.17159763,,,,,,,,,,,,,,29,clamor,,,,,,184.8985,186.3158,0,1,0.8687,,0,68,68,28,1,two_way_cognate,1,REAL,FALSA
,,,,,,,,,6362ae39a567fd42662f5f38,001,2025-04-30_17h15.47.709,empathy_intonation_perc,2024.1.4,Win32,59.17159763,,,,,,,,,,,,,,113,nasce,,,,,,186.3168,187.7846,0,1,0.9219,,0,69,69,112,1,pseudoword,0,REAL,FALSA
,,,,,,,,,6362ae39a567fd42662f5f38,001,2025-04-30_17h15.47.709,empathy_intonation_perc,2024.1.4,Win32,59.17159763,,,,,,,,,,,,,,159,trcia,,,,,,187.7861,189.1523,0,1,0.8268,,0,70,70,158,1,pseudoword,0,REAL,FALSA
,,,,,,,,,6362ae39a567fd42662f5f38,001,2025-04-30_17h15.47.709,empathy_intonation_perc,2024.1.4,Win32,59.17159763,,,,,,,,,,,,,,165,chote,,,,,,189.1534,191.0878,0,1,1.3853,,0,71,71,164,1,pseudoword,0,REAL,FALSA
,,,,,,,,,6362ae39a567fd42662f5f38,001,2025-04-30_17h15.47.709,empathy_intonation_perc,2024.1.4,Win32,59.17159763,,,,,,,,,,,,,,152,prave,,,,,,191.0888,192.5556,0,1,0.9271,,0,72,72,151,1,pseudoword,0,REAL,FALSA
,,,,,,,,,6362ae39a567fd42662f5f38,001,2025-04-30_17h15.47.709,empathy_intonation_perc,2024.1.4,Win32,59.17159763,,,,,,,,,,,,,,114,dibrea,,,,,,192.5564,194.2079,0,1,1.1214,,0,73,73,113,1,pseudoword,0,REAL,FALSA
,,,,,,,,,6362ae39a567fd42662f5f38,001,2025-04-30_17h15.47.709,empathy_intonation_perc,2024.1.4,Win32,59.17159763,,,,,,,,,,,,,,128,pelí,,,,,,194.209,195.5427,1,0,0.7852,,0,74,74,127,1,pseudoword,0,REAL,FALSA
,,,,,,,,,6362ae39a567fd42662f5f38,001,2025-04-30_17h15.47.709,empathy_intonation_perc,2024.1.4,Win32,59.17159763,,,,,,,,,,,,,,163,llzan,,,,,,195.5437,196.811,0,1,0.7182,,0,75,75,162,1,pseudoword,0,REAL,FALSA
,,,,,,,,,6362ae39a567fd42662f5f38,001,2025-04-30_17h15.47.709,empathy_intonation_perc,2024.1.4,Win32,59.17159763,,,,,,,,,,,,,,74,ala,,,,,,196.812,198.2623,1,0,0.9089,,0,76,76,73,1,non_cognate,1,REAL,FALSA
,,,,,,,,,6362ae39a567fd42662f5f38,001,2025-04-30_17h15.47.709,empathy_intonation_perc,2024.1.4,Win32,59.17159763,,,,,,,,,,,,,,99,bugor,,,,,,198.2635,199.6639,0,1,0.8531,,0,77,77,98,1,pseudoword,0,REAL,FALSA
,,,,,,,,,6362ae39a567fd42662f5f38,001,2025-04-30_17h15.47.709,empathy_intonation_perc,2024.1.4,Win32,59.17159763,,,,,,,,,,,,,,103,vueras,,,,,,199.6644,201.1321,1,0,0.9413,,0,78,78,102,1,pseudoword,0,REAL,FALSA
,,,,,,,,,6362ae39a567fd42662f5f38,001,2025-04-30_17h15.47.709,empathy_intonation_perc,2024.1.4,Win32,59.17159763,,,,,,,,,,,,,,80,cuenco,,,,,,201.1329,203.0841,0,1,1.412,,0,79,79,79,1,non_cognate,1,REAL,FALSA
,,,,,,,,,6362ae39a567fd42662f5f38,001,2025-04-30_17h15.47.709,empathy_intonation_perc,2024.1.4,Win32,59.17159763,,,,,,,,,,,,,,2,tumor,,,,,,203.085,204.4029,1,0,0.773,,0,80,80,1,1,three_way_cognate,1,REAL,FALSA
,,,,,,,,,6362ae39a567fd42662f5f38,001,2025-04-30_17h15.47.709,empathy_intonation_perc,2024.1.4,Win32,59.17159763,,,,,,,,,,,,,,149,emén,,,,,,204.404,205.7219,0,1,0.7697,,0,81,81,148,1,pseudoword,0,REAL,FALSA
,,,,,,,,,6362ae39a567fd42662f5f38,001,2025-04-30_17h15.47.709,empathy_intonation_perc,2024.1.4,Win32,59.17159763,,,,,,,,,,,,,,115,lidena,,,,,,205.7233,207.2553,0,1,0.9907,,0,82,82,114,1,pseudoword,0,REAL,FALSA
,,,,,,,,,6362ae39a567fd42662f5f38,001,2025-04-30_17h15.47.709,empathy_intonation_perc,2024.1.4,Win32,59.17159763,,,,,,,,,,,,,,170,diabo,,,,,,207.256,208.9907,0,1,1.1854,,0,83,83,169,1,pseudoword,0,REAL,FALSA
,,,,,,,,,6362ae39a567fd42662f5f38,001,2025-04-30_17h15.47.709,empathy_intonation_perc,2024.1.4,Win32,59.17159763,,,,,,,,,,,,,,156,ozoso,,,,,,208.9921,210.5267,0,1,0.983,,0,84,84,155,1,pseudoword,0,REAL,FALSA
,,,,,,,,,6362ae39a567fd42662f5f38,001,2025-04-30_17h15.47.709,empathy_intonation_perc,2024.1.4,Win32,59.17159763,,,,,,,,,,,,,,27,piano,,,,,,210.5281,211.7102,1,0,0.6431,,0,85,85,26,1,two_way_cognate,1,REAL,FALSA
,,,,,,,,,6362ae39a567fd42662f5f38,001,2025-04-30_17h15.47.709,empathy_intonation_perc,2024.1.4,Win32,59.17159763,,,,,,,,,,,,,,91,equipo,,,,,,211.711,212.9124,1,0,0.6662,,0,86,86,90,1,non_cognate,1,REAL,FALSA
,,,,,,,,,6362ae39a567fd42662f5f38,001,2025-04-30_17h15.47.709,empathy_intonation_perc,2024.1.4,Win32,59.17159763,,,,,,,,,,,,,,78,rendir,,,,,,212.9135,214.6133,1,0,1.1568,,0,87,87,77,1,non_cognate,1,REAL,FALSA
,,,,,,,,,6362ae39a567fd42662f5f38,001,2025-04-30_17h15.47.709,empathy_intonation_perc,2024.1.4,Win32,59.17159763,,,,,,,,,,,,,,135,panté,,,,,,214.6137,216.115,0,1,0.9665,,0,88,88,134,1,pseudoword,0,REAL,FALSA
,,,,,,,,,6362ae39a567fd42662f5f38,001,2025-04-30_17h15.47.709,empathy_intonation_perc,2024.1.4,Win32,59.17159763,,,,,,,,,,,,,,21,hotel,,,,,,216.1159,217.2662,1,0,0.6016,,0,89,89,20,1,three_way_cognate,1,REAL,FALSA
,,,,,,,,,6362ae39a567fd42662f5f38,001,2025-04-30_17h15.47.709,empathy_intonation_perc,2024.1.4,Win32,59.17159763,,,,,,,,,,,,,,131,fuar,,,,,,217.267,218.5012,0,1,0.7024,,0,90,90,130,1,pseudoword,0,REAL,FALSA
,,,,,,,,,6362ae39a567fd42662f5f38,001,2025-04-30_17h15.47.709,empathy_intonation_perc,2024.1.4,Win32,59.17159763,,,,,,,,,,,,,,176,gripar,,,,,,218.5019,220.2199,1,0,1.1925,,0,91,91,175,1,pseudoword,0,REAL,FALSA
,,,,,,,,,6362ae39a567fd42662f5f38,001,2025-04-30_17h15.47.709,empathy_intonation_perc,2024.1.4,Win32,59.17159763,,,,,,,,,,,,,,174,pabea,,,,,,220.2215,222.2894,0,1,1.5242,,0,92,92,173,1,pseudoword,0,REAL,FALSA
,,,,,,,,,6362ae39a567fd42662f5f38,001,2025-04-30_17h15.47.709,empathy_intonation_perc,2024.1.4,Win32,59.17159763,,,,,,,,,,,,,,101,losco,,,,,,222.2905,223.6401,0,1,0.8031,,0,93,93,100,1,pseudoword,0,REAL,FALSA
,,,,,,,,,6362ae39a567fd42662f5f38,001,2025-04-30_17h15.47.709,empathy_intonation_perc,2024.1.4,Win32,59.17159763,,,,,,,,,,,,,,173,mibro,,,,,,223.6409,224.9916,0,1,0.8038,,0,94,94,172,1,pseudoword,0,REAL,FALSA
,,,,,,,,,6362ae39a567fd42662f5f38,001,2025-04-30_17h15.47.709,empathy_intonation_perc,2024.1.4,Win32,59.17159763,,,,,,,,,,,,,,90,venado,,,,,,224.9923,226.5933,0,1,1.0523,,0,95,95,89,1,non_cognate,1,REAL,FALSA
,,,,,,,,,6362ae39a567fd42662f5f38,001,2025-04-30_17h15.47.709,empathy_intonation_perc,2024.1.4,Win32,59.17159763,,,,,,,,,,,,,,100,épinas,,,,,,226.5941,228.7635,0,1,1.6203,,0,96,96,99,1,pseudoword,0,REAL,FALSA
,,,,,,,,,6362ae39a567fd42662f5f38,001,2025-04-30_17h15.47.709,empathy_intonation_perc,2024.1.4,Win32,59.17159763,,,,,,,,,,,,,,180,pupica,,,,,,228.7646,230.2641,0,1,0.9584,,0,97,97,179,1,pseudoword,0,REAL,FALSA
,,,,,,,,,6362ae39a567fd42662f5f38,001,2025-04-30_17h15.47.709,empathy_intonation_perc,2024.1.4,Win32,59.17159763,,,,,,,,,,,,,,31,civil,,,,,,230.265,231.3989,1,0,0.5842,,0,98,98,30,1,two_way_cognate,1,REAL,FALSA
,,,,,,,,,6362ae39a567fd42662f5f38,001,2025-04-30_17h15.47.709,empathy_intonation_perc,2024.1.4,Win32,59.17159763,,,,,,,,,,,,,,140,chorde,,,,,,231.3998,232.7171,0,1,0.7877,,0,99,99,139,1,pseudoword,0,REAL,FALSA
,,,,,,,,,6362ae39a567fd42662f5f38,001,2025-04-30_17h15.47.709,empathy_intonation_perc,2024.1.4,Win32,59.17159763,,,,,,,,,,,,,,50,sierra,,,,,,232.718,233.9521,1,0,0.6855,,0,100,100,49,1,non_cognate,1,REAL,FALSA
,,,,,,,,,6362ae39a567fd42662f5f38,001,2025-04-30_17h15.47.709,empathy_intonation_perc,2024.1.4,Win32,59.17159763,,,,,,,,,,,,,,160,fomeó,,,,,,233.954,235.771,0,1,1.2728,,0,101,101,159,1,pseudoword,0,REAL,FALSA
,,,,,,,,,6362ae39a567fd42662f5f38,001,2025-04-30_17h15.47.709,empathy_intonation_perc,2024.1.4,Win32,59.17159763,,,,,,,,,,,,,,155,kugis,,,,,,235.7722,237.0221,0,1,0.7091,,0,102,102,154,1,pseudoword,0,REAL,FALSA
,,,,,,,,,6362ae39a567fd42662f5f38,001,2025-04-30_17h15.47.709,empathy_intonation_perc,2024.1.4,Win32,59.17159763,,,,,,,,,,,,,,145,rúo,,,,,,237.0237,238.24,0,1,0.6687,,0,103,103,144,1,pseudoword,0,REAL,FALSA
,,,,,,,,,6362ae39a567fd42662f5f38,001,2025-04-30_17h15.47.709,empathy_intonation_perc,2024.1.4,Win32,59.17159763,,,,,,,,,,,,,,190,asumie,,,,,,238.2409,239.8085,0,1,1.0185,,0,104,104,189,1,pseudoword,0,REAL,FALSA
,,,,,,,,,6362ae39a567fd42662f5f38,001,2025-04-30_17h15.47.709,empathy_intonation_perc,2024.1.4,Win32,59.17159763,,,,,,,,,,,,,,86,cuenco,,,,,,239.8095,241.26,0,1,0.906,,0,105,105,85,1,non_cognate,1,REAL,FALSA
,,,,,,,,,6362ae39a567fd42662f5f38,001,2025-04-30_17h15.47.709,empathy_intonation_perc,2024.1.4,Win32,59.17159763,,,,,,,,,,,,,,55,maldad,,,,,,241.261,242.4443,1,0,0.6371,,0,106,106,54,1,non_cognate,1,REAL,FALSA
,,,,,,,,,6362ae39a567fd42662f5f38,001,2025-04-30_17h15.47.709,empathy_intonation_perc,2024.1.4,Win32,59.17159763,,,,,,,,,,,,,,19,mafia,,,,,,242.4451,243.5621,1,0,0.5926,,0,107,107,18,1,three_way_cognate,1,REAL,FALSA
,,,,,,,,,6362ae39a567fd42662f5f38,001,2025-04-30_17h15.47.709,empathy_intonation_perc,2024.1.4,Win32,59.17159763,,,,,,,,,,,,,,12,dogma,,,,,,243.5629,246.2816,1,0,2.1787,,0,108,108,11,1,three_way_cognate,1,REAL,FALSA
,,,,,,,,,6362ae39a567fd42662f5f38,001,2025-04-30_17h15.47.709,empathy_intonation_perc,2024.1.4,Win32,59.17159763,,,,,,,,,,,,,,150,cricó,,,,,,246.2824,247.7174,0,1,0.9019,,0,109,109,149,1,pseudoword,0,REAL,FALSA
,,,,,,,,,6362ae39a567fd42662f5f38,001,2025-04-30_17h15.47.709,empathy_intonation_perc,2024.1.4,Win32,59.17159763,,,,,,,,,,,,,,36,viable,,,,,,247.7187,249.3853,1,0,1.1284,,0,110,110,35,1,two_way_cognate,1,REAL,FALSA
,,,,,,,,,6362ae39a567fd42662f5f38,001,2025-04-30_17h15.47.709,empathy_intonation_perc,2024.1.4,Win32,59.17159763,,,,,,,,,,,,,,34,actor,,,,,,249.3863,250.5703,1,0,0.6352,,0,111,111,33,1,two_way_cognate,1,REAL,FALSA
,,,,,,,,,6362ae39a567fd42662f5f38,001,2025-04-30_17h15.47.709,empathy_intonation_perc,2024.1.4,Win32,59.17159763,,,,,,,,,,,,,,154,harvé,,,,,,250.5713,251.9217,0,1,0.8022,,0,112,112,153,1,pseudoword,0,REAL,FALSA
,,,,,,,,,6362ae39a567fd42662f5f38,001,2025-04-30_17h15.47.709,empathy_intonation_perc,2024.1.4,Win32,59.17159763,,,,,,,,,,,,,,61,aduana,,,,,,251.9227,253.9402,1,0,1.4738,,0,113,113,60,1,non_cognate,1,REAL,FALSA
,,,,,,,,,6362ae39a567fd42662f5f38,001,2025-04-30_17h15.47.709,empathy_intonation_perc,2024.1.4,Win32,59.17159763,,,,,,,,,,,,,,121,barbs,,,,,,253.9406,255.1923,0,1,0.7199,,0,114,114,120,1,pseudoword,0,REAL,FALSA
,,,,,,,,,6362ae39a567fd42662f5f38,001,2025-04-30_17h15.47.709,empathy_intonation_perc,2024.1.4,Win32,59.17159763,,,,,,,,,,,,,,179,suelet,,,,,,255.1936,256.6275,0,1,0.8895,,0,115,115,178,1,pseudoword,0,REAL,FALSA
,,,,,,,,,6362ae39a567fd42662f5f38,001,2025-04-30_17h15.47.709,empathy_intonation_perc,2024.1.4,Win32,59.17159763,,,,,,,,,,,,,,172,dogue,,,,,,256.6287,258.095,0,1,0.9197,,0,116,116,171,1,pseudoword,0,REAL,FALSA
,,,,,,,,,6362ae39a567fd42662f5f38,001,2025-04-30_17h15.47.709,empathy_intonation_perc,2024.1.4,Win32,59.17159763,,,,,,,,,,,,,,17,clan,,,,,,258.0958,259.2808,1,0,0.6529,,0,117,117,16,1,three_way_cognate,1,REAL,FALSA
,,,,,,,,,6362ae39a567fd42662f5f38,001,2025-04-30_17h15.47.709,empathy_intonation_perc,2024.1.4,Win32,59.17159763,,,,,,,,,,,,,,125,ceme,,,,,,259.2822,260.9319,0,1,1.1037,,0,118,118,124,1,pseudoword,0,REAL,FALSA
,,,,,,,,,6362ae39a567fd42662f5f38,001,2025-04-30_17h15.47.709,empathy_intonation_perc,2024.1.4,Win32,59.17159763,,,,,,,,,,,,,,117,morrá,,,,,,260.9331,262.9009,1,0,1.4198,,0,119,119,116,1,pseudoword,0,REAL,FALSA
,,,,,,,,,6362ae39a567fd42662f5f38,001,2025-04-30_17h15.47.709,empathy_intonation_perc,2024.1.4,Win32,59.17159763,,,,,,,,,,,,,,144,diroco,,,,,,262.9023,264.269,0,1,0.8218,,0,120,120,143,1,pseudoword,0,REAL,FALSA
,,,,,,,,,6362ae39a567fd42662f5f38,001,2025-04-30_17h15.47.709,empathy_intonation_perc,2024.1.4,Win32,59.17159763,,,,,,,,,,,,,,71,torta,,,,,,264.2705,265.7031,1,0,0.8844,,0,121,121,70,1,non_cognate,1,REAL,FALSA
,,,,,,,,,6362ae39a567fd42662f5f38,001,2025-04-30_17h15.47.709,empathy_intonation_perc,2024.1.4,Win32,59.17159763,,,,,,,,,,,,,,92,flecha,,,,,,265.704,267.0384,1,0,0.7858,,0,122,122,91,1,non_cognate,1,REAL,FALSA
,,,,,,,,,6362ae39a567fd42662f5f38,001,2025-04-30_17h15.47.709,empathy_intonation_perc,2024.1.4,Win32,59.17159763,,,,,,,,,,,,,,147,alla,,,,,,267.0394,269.7078,0,1,2.1279,,0,123,123,146,1,pseudoword,0,REAL,FALSA
,,,,,,,,,6362ae39a567fd42662f5f38,001,2025-04-30_17h15.47.709,empathy_intonation_perc,2024.1.4,Win32,59.17159763,,,,,,,,,,,,,,93,tapa,,,,,,269.7087,271.1926,1,0,0.9416,,0,124,124,92,1,non_cognate,1,REAL,FALSA
,,,,,,,,,6362ae39a567fd42662f5f38,001,2025-04-30_17h15.47.709,empathy_intonation_perc,2024.1.4,Win32,59.17159763,,,,,,,,,,,,,,138,tator,,,,,,271.1935,272.7448,0,1,1.0019,,0,125,125,137,1,pseudoword,0,REAL,FALSA
,,,,,,,,,6362ae39a567fd42662f5f38,001,2025-04-30_17h15.47.709,empathy_intonation_perc,2024.1.4,Win32,59.17159763,,,,,,,,,,,,,,133,conso,,,,,,272.746,274.1963,0,1,0.9015,,0,126,126,132,1,pseudoword,0,REAL,FALSA
,,,,,,,,,6362ae39a567fd42662f5f38,001,2025-04-30_17h15.47.709,empathy_intonation_perc,2024.1.4,Win32,59.17159763,,,,,,,,,,,,,,162,cengo,,,,,,274.1976,275.5479,0,1,0.8052,,0,127,127,161,1,pseudoword,0,REAL,FALSA
,,,,,,,,,6362ae39a567fd42662f5f38,001,2025-04-30_17h15.47.709,empathy_intonation_perc,2024.1.4,Win32,59.17159763,,,,,,,,,,,,,,112,samón,,,,,,275.549,276.7656,1,0,0.6723,,0,128,128,111,1,pseudoword,0,REAL,FALSA
,,,,,,,,,6362ae39a567fd42662f5f38,001,2025-04-30_17h15.47.709,empathy_intonation_perc,2024.1.4,Win32,59.17159763,,,,,,,,,,,,,,77,suave,,,,,,276.7668,277.9002,1,0,0.5845,,0,129,129,76,1,non_cognate,1,REAL,FALSA
,,,,,,,,,6362ae39a567fd42662f5f38,001,2025-04-30_17h15.47.709,empathy_intonation_perc,2024.1.4,Win32,59.17159763,,,,,,,,,,,,,,139,sasos,,,,,,277.901,279.1348,0,1,0.7016,,0,130,130,138,1,pseudoword,0,REAL,FALSA
,,,,,,,,,6362ae39a567fd42662f5f38,001,2025-04-30_17h15.47.709,empathy_intonation_perc,2024.1.4,Win32,59.17159763,,,,,,,,,,,,,,70,ánimo,,,,,,279.1359,280.4196,1,0,0.7366,,0,131,131,69,1,non_cognate,1,REAL,FALSA
,,,,,,,,,6362ae39a567fd42662f5f38,001,2025-04-30_17h15.47.709,empathy_intonation_perc,2024.1.4,Win32,59.17159763,,,,,,,,,,,,,,102,coyo,,,,,,280.4207,281.988,0,1,1.0204,,0,132,132,101,1,pseudoword,0,REAL,FALSA
,,,,,,,,,6362ae39a567fd42662f5f38,001,2025-04-30_17h15.47.709,empathy_intonation_perc,2024.1.4,Win32,59.17159763,,,,,,,,,,,,,,76,chocar,,,,,,281.9888,283.2726,1,0,0.7399,,0,133,133,75,1,non_cognate,1,REAL,FALSA
,,,,,,,,,6362ae39a567fd42662f5f38,001,2025-04-30_17h15.47.709,empathy_intonation_perc,2024.1.4,Win32,59.17159763,,,,,,,,,,,,,,98,martir,,,,,,283.2739,284.6911,0,1,0.8694,,0,134,134,97,1,pseudoword,0,REAL,FALSA
,,,,,,,,,6362ae39a567fd42662f5f38,001,2025-04-30_17h15.47.709,empathy_intonation_perc,2024.1.4,Win32,59.17159763,,,,,,,,,,,,,,137,trugo,,,,,,284.6925,286.0592,0,1,0.8233,,0,135,135,136,1,pseudoword,0,REAL,FALSA
,,,,,,,,,6362ae39a567fd42662f5f38,001,2025-04-30_17h15.47.709,empathy_intonation_perc,2024.1.4,Win32,59.17159763,,,,,,,,,,,,,,132,nocó,,,,,,286.06,287.2941,0,1,0.6868,,0,136,136,131,1,pseudoword,0,REAL,FALSA
,,,,,,,,,6362ae39a567fd42662f5f38,001,2025-04-30_17h15.47.709,empathy_intonation_perc,2024.1.4,Win32,59.17159763,,,,,,,,,,,,,,66,aleta,,,,,,287.2949,288.5793,0,1,0.7353,,0,137,137,65,1,non_cognate,1,REAL,FALSA
,,,,,,,,,6362ae39a567fd42662f5f38,001,2025-04-30_17h15.47.709,empathy_intonation_perc,2024.1.4,Win32,59.17159763,,,,,,,,,,,,,,166,anfia,,,,,,288.5808,290.1634,0,1,1.0439,,0,138,138,165,1,pseudoword,0,REAL,FALSA
,,,,,,,,,6362ae39a567fd42662f5f38,001,2025-04-30_17h15.47.709,empathy_intonation_perc,2024.1.4,Win32,59.17159763,,,,,,,,,,,,,,141,virios,,,,,,290.1641,291.6985,0,1,0.9915,,0,139,139,140,1,pseudoword,0,REAL,FALSA
,,,,,,,,,6362ae39a567fd42662f5f38,001,2025-04-30_17h15.47.709,empathy_intonation_perc,2024.1.4,Win32,59.17159763,,,,,,,,,,,,,,60,siglo,,,,,,291.6994,293.034,1,0,0.7914,,0,140,140,59,1,non_cognate,1,REAL,FALSA
,,,,,,,,,6362ae39a567fd42662f5f38,001,2025-04-30_17h15.47.709,empathy_intonation_perc,2024.1.4,Win32,59.17159763,,,,,,,,,,,,,,126,tobre,,,,,,293.0352,294.7021,0,1,1.1202,,0,141,141,125,1,pseudoword,0,REAL,FALSA
,,,,,,,,,6362ae39a567fd42662f5f38,001,2025-04-30_17h15.47.709,empathy_intonation_perc,2024.1.4,Win32,59.17159763,,,,,,,,,,,,,,95,listo,,,,,,294.7031,295.7703,1,0,0.5235,,0,142,142,94,1,non_cognate,1,REAL,FALSA
,,,,,,,,,6362ae39a567fd42662f5f38,001,2025-04-30_17h15.47.709,empathy_intonation_perc,2024.1.4,Win32,59.17159763,,,,,,,,,,,,,,185,aljizo,,,,,,295.7711,297.6388,0,1,1.3191,,0,143,143,184,1,pseudoword,0,REAL,FALSA
,,,,,,,,,6362ae39a567fd42662f5f38,001,2025-04-30_17h15.47.709,empathy_intonation_perc,2024.1.4,Win32,59.17159763,,,,,,,,,,,,,,47,color,,,,,,297.6399,298.8062,1,0,0.627,,0,144,144,46,1,two_way_cognate,1,REAL,FALSA
,,,,,,,,,6362ae39a567fd42662f5f38,001,2025-04-30_17h15.47.709,empathy_intonation_perc,2024.1.4,Win32,59.17159763,,,,,,,,,,,,,,69,tiza,,,,,,298.8071,300.5924,0,1,1.2528,,0,145,145,68,1,non_cognate,1,REAL,FALSA
,,,,,,,,,6362ae39a567fd42662f5f38,001,2025-04-30_17h15.47.709,empathy_intonation_perc,2024.1.4,Win32,59.17159763,,,,,,,,,,,,,,38,halo,,,,,,300.5936,302.0942,0,1,0.9606,,0,146,146,37,1,two_way_cognate,1,REAL,FALSA
,,,,,,,,,6362ae39a567fd42662f5f38,001,2025-04-30_17h15.47.709,empathy_intonation_perc,2024.1.4,Win32,59.17159763,,,,,,,,,,,,,,110,densó,,,,,,302.0956,304.1799,1,0,1.5363,,0,147,147,109,1,pseudoword,0,REAL,FALSA
,,,,,,,,,6362ae39a567fd42662f5f38,001,2025-04-30_17h15.47.709,empathy_intonation_perc,2024.1.4,Win32,59.17159763,,,,,,,,,,,,,,157,seled,,,,,,304.1812,305.7816,0,1,1.0526,,0,148,148,156,1,pseudoword,0,REAL,FALSA
,,,,,,,,,6362ae39a567fd42662f5f38,001,2025-04-30_17h15.47.709,empathy_intonation_perc,2024.1.4,Win32,59.17159763,,,,,,,,,,,,,,52,blando,,,,,,305.783,307.5493,0,1,1.2186,,0,149,149,51,1,non_cognate,1,REAL,FALSA
,,,,,,,,,6362ae39a567fd42662f5f38,001,2025-04-30_17h15.47.709,empathy_intonation_perc,2024.1.4,Win32,59.17159763,,,,,,,,,,,,,,109,laras,,,,,,307.5501,308.8681,0,1,0.7691,,0,150,150,108,1,pseudoword,0,REAL,FALSA
,,,,,,,,,6362ae39a567fd42662f5f38,001,2025-04-30_17h15.47.709,empathy_intonation_perc,2024.1.4,Win32,59.17159763,,,,,,,,,,,,,,111,monue,,,,,,308.8692,310.37,0,1,0.9519,,0,151,151,110,1,pseudoword,0,REAL,FALSA
,,,,,,,,,6362ae39a567fd42662f5f38,001,2025-04-30_17h15.47.709,empathy_intonation_perc,2024.1.4,Win32,59.17159763,,,,,,,,,,,,,,41,pasta,,,,,,310.3715,311.5213,1,0,0.6016,,0,152,152,40,1,two_way_cognate,1,REAL,FALSA
,,,,,,,,,6362ae39a567fd42662f5f38,001,2025-04-30_17h15.47.709,empathy_intonation_perc,2024.1.4,Win32,59.17159763,,,,,,,,,,,,,,1,moral,,,,,,311.5225,312.6723,1,0,0.6018,,0,153,153,0,1,three_way_cognate,1,REAL,FALSA
,,,,,,,,,6362ae39a567fd42662f5f38,001,2025-04-30_17h15.47.709,empathy_intonation_perc,2024.1.4,Win32,59.17159763,,,,,,,,,,,,,,73,llevar,,,,,,312.6738,313.8236,1,0,0.6057,,0,154,154,72,1,non_cognate,1,REAL,FALSA
,,,,,,,,,6362ae39a567fd42662f5f38,001,2025-04-30_17h15.47.709,empathy_intonation_perc,2024.1.4,Win32,59.17159763,,,,,,,,,,,,,,40,pelvis,,,,,,313.8248,315.6088,1,0,1.2418,,0,155,155,39,1,two_way_cognate,1,REAL,FALSA
,,,,,,,,,6362ae39a567fd42662f5f38,001,2025-04-30_17h15.47.709,empathy_intonation_perc,2024.1.4,Win32,59.17159763,,,,,,,,,,,,,,84,aviso,,,,,,315.6095,316.6937,1,0,0.5354,,0,156,156,83,1,non_cognate,1,REAL,FALSA
,,,,,,,,,6362ae39a567fd42662f5f38,001,2025-04-30_17h15.47.709,empathy_intonation_perc,2024.1.4,Win32,59.17159763,,,,,,,,,,,,,,89,muñeca,,,,,,316.6952,317.9788,1,0,0.7342,,0,157,157,88,1,non_cognate,1,REAL,FALSA
,,,,,,,,,6362ae39a567fd42662f5f38,001,2025-04-30_17h15.47.709,empathy_intonation_perc,2024.1.4,Win32,59.17159763,,,,,,,,,,,,,,124,lobe,,,,,,317.98,319.4123,0,1,0.8945,,0,158,158,123,1,pseudoword,0,REAL,FALSA
,,,,,,,,,6362ae39a567fd42662f5f38,001,2025-04-30_17h15.47.709,empathy_intonation_perc,2024.1.4,Win32,59.17159763,,,,,,,,,,,,,,79,suelo,,,,,,319.4131,320.4974,1,0,0.5442,,0,159,159,78,1,non_cognate,1,REAL,FALSA
,,,,,,,,,6362ae39a567fd42662f5f38,001,2025-04-30_17h15.47.709,empathy_intonation_perc,2024.1.4,Win32,59.17159763,,,,,,,,,,,,,,87,muleta,,,,,,320.499,323.784,0,1,2.7376,,0,160,160,86,1,non_cognate,1,REAL,FALSA
,,,,,,,,,6362ae39a567fd42662f5f38,001,2025-04-30_17h15.47.709,empathy_intonation_perc,2024.1.4,Win32,59.17159763,,,,,,,,,,,,,,8,kilo,,,,,,323.785,326.4866,1,0,2.1598,,0,161,161,7,1,three_way_cognate,1,REAL,FALSA
,,,,,,,,,6362ae39a567fd42662f5f38,001,2025-04-30_17h15.47.709,empathy_intonation_perc,2024.1.4,Win32,59.17159763,,,,,,,,,,,,,,186,rizate,,,,,,326.4874,328.0734,0,1,1.0524,,0,162,162,185,1,pseudoword,0,REAL,FALSA
,,,,,,,,,6362ae39a567fd42662f5f38,001,2025-04-30_17h15.47.709,empathy_intonation_perc,2024.1.4,Win32,59.17159763,,,,,,,,,,,,,,136,hueas,,,,,,328.0745,329.8239,0,1,1.2026,,0,163,163,135,1,pseudoword,0,REAL,FALSA
,,,,,,,,,6362ae39a567fd42662f5f38,001,2025-04-30_17h15.47.709,empathy_intonation_perc,2024.1.4,Win32,59.17159763,,,,,,,,,,,,,,191,frasis,,,,,,329.8248,331.2764,1,0,0.9062,,0,164,164,190,1,pseudoword,0,REAL,FALSA
,,,,,,,,,6362ae39a567fd42662f5f38,001,2025-04-30_17h15.47.709,empathy_intonation_perc,2024.1.4,Win32,59.17159763,,,,,,,,,,,,,,59,feo,,,,,,331.2774,332.4935,1,0,0.6771,,0,165,165,58,1,non_cognate,1,REAL,FALSA
,,,,,,,,,6362ae39a567fd42662f5f38,001,2025-04-30_17h15.47.709,empathy_intonation_perc,2024.1.4,Win32,59.17159763,,,,,,,,,,,,,,118,bará,,,,,,332.4944,333.7952,0,1,0.7519,,0,166,166,117,1,pseudoword,0,REAL,FALSA
,,,,,,,,,6362ae39a567fd42662f5f38,001,2025-04-30_17h15.47.709,empathy_intonation_perc,2024.1.4,Win32,59.17159763,,,,,,,,,,,,,,120,mauja,,,,,,333.7962,335.3632,0,1,1.021,,0,167,167,119,1,pseudoword,0,REAL,FALSA
,,,,,,,,,6362ae39a567fd42662f5f38,001,2025-04-30_17h15.47.709,empathy_intonation_perc,2024.1.4,Win32,59.17159763,,,,,,,,,,,,,,151,prías,,,,,,335.3642,336.6819,0,1,0.7858,,0,168,168,150,1,pseudoword,0,REAL,FALSA
,,,,,,,,,6362ae39a567fd42662f5f38,001,2025-04-30_17h15.47.709,empathy_intonation_perc,2024.1.4,Win32,59.17159763,,,,,,,,,,,,,,94,forro,,,,,,336.6827,337.9507,0,1,0.7185,,0,169,169,93,1,non_cognate,1,REAL,FALSA
,,,,,,,,,6362ae39a567fd42662f5f38,001,2025-04-30_17h15.47.709,empathy_intonation_perc,2024.1.4,Win32,59.17159763,,,,,,,,,,,,,,189,medium,,,,,,337.952,339.1517,1,0,0.6513,,0,170,170,188,1,pseudoword,0,REAL,FALSA
,,,,,,,,,6362ae39a567fd42662f5f38,001,2025-04-30_17h15.47.709,empathy_intonation_perc,2024.1.4,Win32,59.17159763,,,,,,,,,,,,,,39,casual,,,,,,339.1528,340.5024,1,0,0.8018,,0,171,171,38,1,two_way_cognate,1,REAL,FALSA
,,,,,,,,,6362ae39a567fd42662f5f38,001,2025-04-30_17h15.47.709,empathy_intonation_perc,2024.1.4,Win32,59.17159763,,,,,,,,,,,,,,183,edioso,,,,,,340.5033,341.7547,1,0,0.7199,,0,172,172,182,1,pseudoword,0,REAL,FALSA
,,,,,,,,,6362ae39a567fd42662f5f38,001,2025-04-30_17h15.47.709,empathy_intonation_perc,2024.1.4,Win32,59.17159763,,,,,,,,,,,,,,18,altar,,,,,,341.7558,344.2236,1,0,1.9191,,0,173,173,17,1,three_way_cognate,1,REAL,FALSA
,,,,,,,,,6362ae39a567fd42662f5f38,001,2025-04-30_17h15.47.709,empathy_intonation_perc,2024.1.4,Win32,59.17159763,,,,,,,,,,,,,,184,huenos,,,,,,344.2245,346.0427,0,1,1.2715,,0,174,174,183,1,pseudoword,0,REAL,FALSA
,,,,,,,,,6362ae39a567fd42662f5f38,001,2025-04-30_17h15.47.709,empathy_intonation_perc,2024.1.4,Win32,59.17159763,,,,,,,,,,,,,,16,chat,,,,,,346.0438,347.1775,1,0,0.5889,,0,175,175,15,1,three_way_cognate,1,REAL,FALSA
,,,,,,,,,6362ae39a567fd42662f5f38,001,2025-04-30_17h15.47.709,empathy_intonation_perc,2024.1.4,Win32,59.17159763,,,,,,,,,,,,,,106,diebro,,,,,,347.1788,348.8949,1,0,1.1684,,0,176,176,105,1,pseudoword,0,REAL,FALSA
,,,,,,,,,6362ae39a567fd42662f5f38,001,2025-04-30_17h15.47.709,empathy_intonation_perc,2024.1.4,Win32,59.17159763,,,,,,,,,,,,,,11,golf,,,,,,348.8956,350.0802,1,0,0.6577,,0,177,177,10,1,three_way_cognate,1,REAL,FALSA
,,,,,,,,,6362ae39a567fd42662f5f38,001,2025-04-30_17h15.47.709,empathy_intonation_perc,2024.1.4,Win32,59.17159763,,,,,,,,,,,,,,192,próces,,,,,,350.0814,352.3486,1,0,1.7278,,0,178,178,191,1,pseudoword,0,REAL,FALSA
,,,,,,,,,6362ae39a567fd42662f5f38,001,2025-04-30_17h15.47.709,empathy_intonation_perc,2024.1.4,Win32,59.17159763,,,,,,,,,,,,,,96,caro,,,,,,352.3496,355.0683,1,0,2.1781,,0,179,179,95,1,non_cognate,1,REAL,FALSA
,,,,,,,,,6362ae39a567fd42662f5f38,001,2025-04-30_17h15.47.709,empathy_intonation_perc,2024.1.4,Win32,59.17159763,,,,,,,,,,,,,,143,hurcos,,,,,,355.0692,356.4889,0,1,0.8795,,0,180,180,142,1,pseudoword,0,REAL,FALSA
,,,,,,,,,6362ae39a567fd42662f5f38,001,2025-04-30_17h15.47.709,empathy_intonation_perc,2024.1.4,Win32,59.17159763,,,,,,,,,,,,,,161,civas,,,,,,356.4896,357.7881,0,1,0.7599,,0,181,181,160,1,pseudoword,0,REAL,FALSA
,,,,,,,,,6362ae39a567fd42662f5f38,001,2025-04-30_17h15.47.709,empathy_intonation_perc,2024.1.4,Win32,59.17159763,,,,,,,,,,,,,,187,nomata,,,,,,357.7891,359.6572,0,1,1.3244,,0,182,182,186,1,pseudoword,0,REAL,FALSA
,,,,,,,,,6362ae39a567fd42662f5f38,001,2025-04-30_17h15.47.709,empathy_intonation_perc,2024.1.4,Win32,59.17159763,,,,,,,,,,,,,,148,gino,,,,,,359.6582,361.3089,0,1,1.1045,,0,183,183,147,1,pseudoword,0,REAL,FALSA
,,,,,,,,,6362ae39a567fd42662f5f38,001,2025-04-30_17h15.47.709,empathy_intonation_perc,2024.1.4,Win32,59.17159763,,,,,,,,,,,,,,30,fiscal,,,,,,361.3098,363.1613,1,0,1.3038,,0,184,184,29,1,two_way_cognate,1,REAL,FALSA
,,,,,,,,,6362ae39a567fd42662f5f38,001,2025-04-30_17h15.47.709,empathy_intonation_perc,2024.1.4,Win32,59.17159763,,,,,,,,,,,,,,164,tecia,,,,,,363.1625,364.5123,0,1,0.8026,,0,185,185,163,1,pseudoword,0,REAL,FALSA
,,,,,,,,,6362ae39a567fd42662f5f38,001,2025-04-30_17h15.47.709,empathy_intonation_perc,2024.1.4,Win32,59.17159763,,,,,,,,,,,,,,37,torso,,,,,,364.5132,365.8145,1,0,0.7518,,0,186,186,36,1,two_way_cognate,1,REAL,FALSA
,,,,,,,,,6362ae39a567fd42662f5f38,001,2025-04-30_17h15.47.709,empathy_intonation_perc,2024.1.4,Win32,59.17159763,,,,,,,,,,,,,,15,test,,,,,,365.8159,366.9994,1,0,0.644,,0,187,187,14,1,three_way_cognate,1,REAL,FALSA
,,,,,,,,,6362ae39a567fd42662f5f38,001,2025-04-30_17h15.47.709,empathy_intonation_perc,2024.1.4,Win32,59.17159763,,,,,,,,,,,,,,5,extra,,,,,,367.0007,368.1559,1,0,0.6169,,0,188,188,4,1,three_way_cognate,1,REAL,FALSA
,,,,,,,,,6362ae39a567fd42662f5f38,001,2025-04-30_17h15.47.709,empathy_intonation_perc,2024.1.4,Win32,59.17159763,,,,,,,,,,,,,,10,drama,,,,,,368.1564,369.2677,1,0,0.572,,0,189,189,9,1,three_way_cognate,1,REAL,FALSA
,,,,,,,,,6362ae39a567fd42662f5f38,001,2025-04-30_17h15.47.709,empathy_intonation_perc,2024.1.4,Win32,59.17159763,,,,,,,,,,,,,,104,estulo,,,,,,369.2685,372.7713,0,1,2.9541,,0,190,190,103,1,pseudoword,0,REAL,FALSA
,,,,,,,,,6362ae39a567fd42662f5f38,001,2025-04-30_17h15.47.709,empathy_intonation_perc,2024.1.4,Win32,59.17159763,,,,,,,,,,,,,,24,retina,,,,,,372.7722,374.0732,0,1,0.7609,,0,191,191,23,1,three_way_cognate,1,REAL,FALSA
