lextale_instructions.started,lextale_instructions.stopped,lextale_instructions_loop.thisRepN,lextale_instructions_loop.thisTrialN,lextale_instructions_loop.thisN,lextale_instructions_loop.thisIndex,lextale_instructions_loop.ran,instructions_text,continue_text,participant,session,date,expName,psychopyVersion,OS,frameRate,lextale_practice.started,lextale_practice.stopped,key_resp_lextale_practice.keys,key_resp_lextale_practice.corr,key_resp_lextale_practice.rt,key_resp_lextale_practice.duration,lextale_practice_feedback.started,lextale_practice_feedback.stopped,lextale_practice_trials.thisRepN,lextale_practice_trials.thisTrialN,lextale_practice_trials.thisN,lextale_practice_trials.thisIndex,lextale_practice_trials.ran,stim,word,correct_response,prac_button_real,prac_button_false,lextale_check.started,lextale_check.stopped,lextale_trial.started,lextale_trial.stopped,key_resp_lextale_trial.keys,key_resp_lextale_trial.corr,key_resp_lextale_trial.rt,key_resp_lextale_trial.duration,lextail_trials.thisRepN,lextail_trials.thisTrialN,lextail_trials.thisN,lextail_trials.thisIndex,lextail_trials.ran,type,correct_reponse,button_real,button_false
0.008,8.944,0,0,0,0,1,"Este es un test de vocabulario en español. 
  
  A continuación vas a ver 90 secuencias de letras que parecen 'españolas'.
  
  Solo algunas de ellas son palabras de verdad.",(presiona la barra espaciadora para continuar),638525c55b36d64ccc7dab69,001,2025-05-16_11h43.00.574,empathy_intonation_perc,2024.1.4,MacIntel,125,,,,,,,,,,,,,,,,,,,,,,,,,,,,,,,,,,,
8.944,15.389,0,1,1,1,1,"Por favor, señala las palabras que tú conoces (aquellas que estás convencido que son palabras españolas, incluso aunque no seas capaz de dar el significado preciso).",(presiona la barra espaciadora para continuar),638525c55b36d64ccc7dab69,001,2025-05-16_11h43.00.574,empathy_intonation_perc,2024.1.4,MacIntel,125,,,,,,,,,,,,,,,,,,,,,,,,,,,,,,,,,,,
15.389,22.95,0,2,2,2,1,Pero cuidado: los errores se penalizan. Por eso no tiene sentido tratar de incrementar tu puntuación marcando como reales palabras que nunca has visto.,(presiona la barra espaciadora para continuar),638525c55b36d64ccc7dab69,001,2025-05-16_11h43.00.574,empathy_intonation_perc,2024.1.4,MacIntel,125,,,,,,,,,,,,,,,,,,,,,,,,,,,,,,,,,,,
22.95,31.178,0,3,3,3,1,"Presiona la tecla 1 si piensas que es una palabra real y la tecla 
  0 si piensas que es una palabra falsa. 
  
  Vamos a practicar un poco...",(presiona la barra espaciadora para continuar),638525c55b36d64ccc7dab69,001,2025-05-16_11h43.00.574,empathy_intonation_perc,2024.1.4,MacIntel,125,,,,,,,,,,,,,,,,,,,,,,,,,,,,,,,,,,,
,,,,,,,,,638525c55b36d64ccc7dab69,001,2025-05-16_11h43.00.574,empathy_intonation_perc,2024.1.4,MacIntel,125,31.184,34.109,0,1,2.395,,34.109,35.109,0,0,0,0,1,0,depiste,0,REAL,FALSA,,,,,,,,,,,,,,,,,
,,,,,,,,,638525c55b36d64ccc7dab69,001,2025-05-16_11h43.00.574,empathy_intonation_perc,2024.1.4,MacIntel,125,35.109,36.89,1,1,1.243,,36.89,37.89,0,1,1,1,1,0,sí,1,REAL,FALSA,,,,,,,,,,,,,,,,,
,,,,,,,,,638525c55b36d64ccc7dab69,001,2025-05-16_11h43.00.574,empathy_intonation_perc,2024.1.4,MacIntel,125,37.89,39.922,0,1,1.493,,39.922,40.922,0,2,2,2,1,0,coné,0,REAL,FALSA,,,,,,,,,,,,,,,,,
,,,,,,,,,638525c55b36d64ccc7dab69,001,2025-05-16_11h43.00.574,empathy_intonation_perc,2024.1.4,MacIntel,125,40.922,42.603,0,1,1.145,,42.603,43.603,0,3,3,3,1,0,calpar,0,REAL,FALSA,,,,,,,,,,,,,,,,,
,,,,,,,,,638525c55b36d64ccc7dab69,001,2025-05-16_11h43.00.574,empathy_intonation_perc,2024.1.4,MacIntel,125,43.603,45.151,0,1,1.016,,45.151,46.151,0,4,4,4,1,0,joten,0,REAL,FALSA,,,,,,,,,,,,,,,,,
,,,,,,,,,638525c55b36d64ccc7dab69,001,2025-05-16_11h43.00.574,empathy_intonation_perc,2024.1.4,MacIntel,125,46.152,47.717,1,1,1.03,,47.717,48.717,0,5,5,5,1,0,sacapuntas,1,REAL,FALSA,,,,,,,,,,,,,,,,,
,,,,,,,,,638525c55b36d64ccc7dab69,001,2025-05-16_11h43.00.574,empathy_intonation_perc,2024.1.4,MacIntel,125,48.717,50.282,0,1,1.031,,50.282,51.281,0,6,6,6,1,0,priba,0,REAL,FALSA,,,,,,,,,,,,,,,,,
,,,,,,,,,638525c55b36d64ccc7dab69,001,2025-05-16_11h43.00.574,empathy_intonation_perc,2024.1.4,MacIntel,125,51.282,53.83,0,1,2.01,,53.83,54.828,0,7,7,7,1,0,pelasula,0,REAL,FALSA,,,,,,,,,,,,,,,,,
,,,,,,,,,638525c55b36d64ccc7dab69,001,2025-05-16_11h43.00.574,empathy_intonation_perc,2024.1.4,MacIntel,125,54.829,56.227,1,1,0.879,,56.227,57.228,0,8,8,8,1,0,bien,1,REAL,FALSA,,,,,,,,,,,,,,,,,
,,,,,,,,,638525c55b36d64ccc7dab69,001,2025-05-16_11h43.00.574,empathy_intonation_perc,2024.1.4,MacIntel,125,57.228,58.359,1,1,0.593,,58.359,59.359,0,9,9,9,1,0,casa,1,REAL,FALSA,,,,,,,,,,,,,,,,,
,,,,,,,,,638525c55b36d64ccc7dab69,001,2025-05-16_11h43.00.574,empathy_intonation_perc,2024.1.4,MacIntel,125,59.359,60.724,1,0,0.842,,60.724,61.724,0,10,10,10,1,0,lejo,0,REAL,FALSA,,,,,,,,,,,,,,,,,
,,,,,,,,,638525c55b36d64ccc7dab69,001,2025-05-16_11h43.00.574,empathy_intonation_perc,2024.1.4,MacIntel,125,61.725,63.489,0,1,1.237,,63.49,64.489,0,11,11,11,1,0,pretantas,0,REAL,FALSA,,,,,,,,,,,,,,,,,
,,,,,,,,,638525c55b36d64ccc7dab69,001,2025-05-16_11h43.00.574,empathy_intonation_perc,2024.1.4,MacIntel,125,,,,,,,,,,,,,,,,,,,64.489,66.505,,,,,,,,,,,,,,,
,,,,,,,,,638525c55b36d64ccc7dab69,001,2025-05-16_11h43.00.574,empathy_intonation_perc,2024.1.4,MacIntel,125,,,,,,,,,,,,,,74,ala,,,,,,66.517,68.037,0,1,0.996,,0,0,0,73,1,non_cognate,1,REAL,FALSA
,,,,,,,,,638525c55b36d64ccc7dab69,001,2025-05-16_11h43.00.574,empathy_intonation_perc,2024.1.4,MacIntel,125,,,,,,,,,,,,,,101,losco,,,,,,68.037,69.668,0,1,1.096,,0,1,1,100,1,pseudoword,0,REAL,FALSA
,,,,,,,,,638525c55b36d64ccc7dab69,001,2025-05-16_11h43.00.574,empathy_intonation_perc,2024.1.4,MacIntel,125,,,,,,,,,,,,,,145,rúo,,,,,,69.668,71.018,0,1,0.831,,0,2,2,144,1,pseudoword,0,REAL,FALSA
,,,,,,,,,638525c55b36d64ccc7dab69,001,2025-05-16_11h43.00.574,empathy_intonation_perc,2024.1.4,MacIntel,125,,,,,,,,,,,,,,24,retina,,,,,,71.019,72.267,1,0,0.714,,0,3,3,23,1,three_way_cognate,1,REAL,FALSA
,,,,,,,,,638525c55b36d64ccc7dab69,001,2025-05-16_11h43.00.574,empathy_intonation_perc,2024.1.4,MacIntel,125,,,,,,,,,,,,,,90,venado,,,,,,72.268,73.566,1,0,0.765,,0,4,4,89,1,non_cognate,1,REAL,FALSA
,,,,,,,,,638525c55b36d64ccc7dab69,001,2025-05-16_11h43.00.574,empathy_intonation_perc,2024.1.4,MacIntel,125,,,,,,,,,,,,,,23,plural,,,,,,73.566,75.015,1,0,0.931,,0,5,5,22,1,three_way_cognate,1,REAL,FALSA
,,,,,,,,,638525c55b36d64ccc7dab69,001,2025-05-16_11h43.00.574,empathy_intonation_perc,2024.1.4,MacIntel,125,,,,,,,,,,,,,,122,boñaz,,,,,,75.016,76.897,1,0,1.35,,0,6,6,121,1,pseudoword,0,REAL,FALSA
,,,,,,,,,638525c55b36d64ccc7dab69,001,2025-05-16_11h43.00.574,empathy_intonation_perc,2024.1.4,MacIntel,125,,,,,,,,,,,,,,126,tobre,,,,,,76.898,78.146,1,0,0.713,,0,7,7,125,1,pseudoword,0,REAL,FALSA
,,,,,,,,,638525c55b36d64ccc7dab69,001,2025-05-16_11h43.00.574,empathy_intonation_perc,2024.1.4,MacIntel,125,,,,,,,,,,,,,,163,llzan,,,,,,78.146,79.345,0,1,0.682,,0,8,8,162,1,pseudoword,0,REAL,FALSA
,,,,,,,,,638525c55b36d64ccc7dab69,001,2025-05-16_11h43.00.574,empathy_intonation_perc,2024.1.4,MacIntel,125,,,,,,,,,,,,,,154,harvé,,,,,,79.345,80.911,0,1,1.046,,0,9,9,153,1,pseudoword,0,REAL,FALSA
,,,,,,,,,638525c55b36d64ccc7dab69,001,2025-05-16_11h43.00.574,empathy_intonation_perc,2024.1.4,MacIntel,125,,,,,,,,,,,,,,188,amplir,,,,,,80.911,82.244,1,0,0.814,,0,10,10,187,1,pseudoword,0,REAL,FALSA
,,,,,,,,,638525c55b36d64ccc7dab69,001,2025-05-16_11h43.00.574,empathy_intonation_perc,2024.1.4,MacIntel,125,,,,,,,,,,,,,,180,pupica,,,,,,82.244,83.976,0,1,1.2,,0,11,11,179,1,pseudoword,0,REAL,FALSA
,,,,,,,,,638525c55b36d64ccc7dab69,001,2025-05-16_11h43.00.574,empathy_intonation_perc,2024.1.4,MacIntel,125,,,,,,,,,,,,,,183,edioso,,,,,,83.976,85.991,1,0,1.491,,0,12,12,182,1,pseudoword,0,REAL,FALSA
,,,,,,,,,638525c55b36d64ccc7dab69,001,2025-05-16_11h43.00.574,empathy_intonation_perc,2024.1.4,MacIntel,125,,,,,,,,,,,,,,14,aura,,,,,,85.991,87.524,1,0,1.017,,0,13,13,13,1,three_way_cognate,1,REAL,FALSA
,,,,,,,,,638525c55b36d64ccc7dab69,001,2025-05-16_11h43.00.574,empathy_intonation_perc,2024.1.4,MacIntel,125,,,,,,,,,,,,,,131,fuar,,,,,,87.524,89.023,1,0,0.968,,0,14,14,130,1,pseudoword,0,REAL,FALSA
,,,,,,,,,638525c55b36d64ccc7dab69,001,2025-05-16_11h43.00.574,empathy_intonation_perc,2024.1.4,MacIntel,125,,,,,,,,,,,,,,45,total,,,,,,89.023,90.205,1,0,0.645,,0,15,15,44,1,two_way_cognate,1,REAL,FALSA
,,,,,,,,,638525c55b36d64ccc7dab69,001,2025-05-16_11h43.00.574,empathy_intonation_perc,2024.1.4,MacIntel,125,,,,,,,,,,,,,,123,arane,,,,,,90.205,91.354,0,1,0.626,,0,16,16,122,1,pseudoword,0,REAL,FALSA
,,,,,,,,,638525c55b36d64ccc7dab69,001,2025-05-16_11h43.00.574,empathy_intonation_perc,2024.1.4,MacIntel,125,,,,,,,,,,,,,,39,casual,,,,,,91.355,92.571,1,0,0.685,,0,17,17,38,1,two_way_cognate,1,REAL,FALSA
,,,,,,,,,638525c55b36d64ccc7dab69,001,2025-05-16_11h43.00.574,empathy_intonation_perc,2024.1.4,MacIntel,125,,,,,,,,,,,,,,160,fomeó,,,,,,92.571,94.518,0,1,1.413,,0,18,18,159,1,pseudoword,0,REAL,FALSA
,,,,,,,,,638525c55b36d64ccc7dab69,001,2025-05-16_11h43.00.574,empathy_intonation_perc,2024.1.4,MacIntel,125,,,,,,,,,,,,,,7,albino,,,,,,94.519,96.051,1,0,1.014,,0,19,19,6,1,three_way_cognate,1,REAL,FALSA
,,,,,,,,,638525c55b36d64ccc7dab69,001,2025-05-16_11h43.00.574,empathy_intonation_perc,2024.1.4,MacIntel,125,,,,,,,,,,,,,,121,barbs,,,,,,96.051,97.467,0,1,0.901,,0,20,20,120,1,pseudoword,0,REAL,FALSA
,,,,,,,,,638525c55b36d64ccc7dab69,001,2025-05-16_11h43.00.574,empathy_intonation_perc,2024.1.4,MacIntel,125,,,,,,,,,,,,,,165,chote,,,,,,97.468,98.75,0,1,0.748,,0,21,21,164,1,pseudoword,0,REAL,FALSA
,,,,,,,,,638525c55b36d64ccc7dab69,001,2025-05-16_11h43.00.574,empathy_intonation_perc,2024.1.4,MacIntel,125,,,,,,,,,,,,,,92,flecha,,,,,,98.751,100.316,0,1,1.037,,0,22,22,91,1,non_cognate,1,REAL,FALSA
,,,,,,,,,638525c55b36d64ccc7dab69,001,2025-05-16_11h43.00.574,empathy_intonation_perc,2024.1.4,MacIntel,125,,,,,,,,,,,,,,1,moral,,,,,,100.316,101.447,1,0,0.603,,0,23,23,0,1,three_way_cognate,1,REAL,FALSA
,,,,,,,,,638525c55b36d64ccc7dab69,001,2025-05-16_11h43.00.574,empathy_intonation_perc,2024.1.4,MacIntel,125,,,,,,,,,,,,,,6,horror,,,,,,101.448,102.98,1,0,1.012,,0,24,24,5,1,three_way_cognate,1,REAL,FALSA
,,,,,,,,,638525c55b36d64ccc7dab69,001,2025-05-16_11h43.00.574,empathy_intonation_perc,2024.1.4,MacIntel,125,,,,,,,,,,,,,,12,dogma,,,,,,102.98,105.162,0,1,1.659,,0,25,25,11,1,three_way_cognate,1,REAL,FALSA
,,,,,,,,,638525c55b36d64ccc7dab69,001,2025-05-16_11h43.00.574,empathy_intonation_perc,2024.1.4,MacIntel,125,,,,,,,,,,,,,,11,golf,,,,,,105.163,106.728,0,1,1.031,,0,26,26,10,1,three_way_cognate,1,REAL,FALSA
,,,,,,,,,638525c55b36d64ccc7dab69,001,2025-05-16_11h43.00.574,empathy_intonation_perc,2024.1.4,MacIntel,125,,,,,,,,,,,,,,40,pelvis,,,,,,106.728,108.11,1,0,0.847,,0,27,27,39,1,two_way_cognate,1,REAL,FALSA
,,,,,,,,,638525c55b36d64ccc7dab69,001,2025-05-16_11h43.00.574,empathy_intonation_perc,2024.1.4,MacIntel,125,,,,,,,,,,,,,,161,civas,,,,,,108.111,109.676,1,0,0.996,,0,28,28,160,1,pseudoword,0,REAL,FALSA
,,,,,,,,,638525c55b36d64ccc7dab69,001,2025-05-16_11h43.00.574,empathy_intonation_perc,2024.1.4,MacIntel,125,,,,,,,,,,,,,,25,vigor,,,,,,109.676,111.308,0,1,1.109,,0,29,29,24,1,two_way_cognate,1,REAL,FALSA
,,,,,,,,,638525c55b36d64ccc7dab69,001,2025-05-16_11h43.00.574,empathy_intonation_perc,2024.1.4,MacIntel,125,,,,,,,,,,,,,,186,rizate,,,,,,111.308,112.607,0,1,0.788,,0,30,30,185,1,pseudoword,0,REAL,FALSA
,,,,,,,,,638525c55b36d64ccc7dab69,001,2025-05-16_11h43.00.574,empathy_intonation_perc,2024.1.4,MacIntel,125,,,,,,,,,,,,,,108,jauda,,,,,,112.607,113.857,0,1,0.737,,0,31,31,107,1,pseudoword,0,REAL,FALSA
,,,,,,,,,638525c55b36d64ccc7dab69,001,2025-05-16_11h43.00.574,empathy_intonation_perc,2024.1.4,MacIntel,125,,,,,,,,,,,,,,29,clamor,,,,,,113.857,115.821,1,0,1.427,,0,32,32,28,1,two_way_cognate,1,REAL,FALSA
,,,,,,,,,638525c55b36d64ccc7dab69,001,2025-05-16_11h43.00.574,empathy_intonation_perc,2024.1.4,MacIntel,125,,,,,,,,,,,,,,191,frasis,,,,,,115.821,117.321,1,0,0.978,,0,33,33,190,1,pseudoword,0,REAL,FALSA
,,,,,,,,,638525c55b36d64ccc7dab69,001,2025-05-16_11h43.00.574,empathy_intonation_perc,2024.1.4,MacIntel,125,,,,,,,,,,,,,,102,coyo,,,,,,117.321,118.828,0,1,0.982,,0,34,34,101,1,pseudoword,0,REAL,FALSA
,,,,,,,,,638525c55b36d64ccc7dab69,001,2025-05-16_11h43.00.574,empathy_intonation_perc,2024.1.4,MacIntel,125,,,,,,,,,,,,,,187,nomata,,,,,,118.828,120.236,1,0,0.86,,0,35,35,186,1,pseudoword,0,REAL,FALSA
,,,,,,,,,638525c55b36d64ccc7dab69,001,2025-05-16_11h43.00.574,empathy_intonation_perc,2024.1.4,MacIntel,125,,,,,,,,,,,,,,130,dubo,,,,,,120.236,121.392,0,1,0.628,,0,36,36,129,1,pseudoword,0,REAL,FALSA
,,,,,,,,,638525c55b36d64ccc7dab69,001,2025-05-16_11h43.00.574,empathy_intonation_perc,2024.1.4,MacIntel,125,,,,,,,,,,,,,,73,llevar,,,,,,121.393,122.734,1,0,0.797,,0,37,37,72,1,non_cognate,1,REAL,FALSA
,,,,,,,,,638525c55b36d64ccc7dab69,001,2025-05-16_11h43.00.574,empathy_intonation_perc,2024.1.4,MacIntel,125,,,,,,,,,,,,,,127,vien,,,,,,122.734,124.398,1,0,1.134,,0,38,38,126,1,pseudoword,0,REAL,FALSA
,,,,,,,,,638525c55b36d64ccc7dab69,001,2025-05-16_11h43.00.574,empathy_intonation_perc,2024.1.4,MacIntel,125,,,,,,,,,,,,,,82,brillo,,,,,,124.399,125.798,0,1,0.883,,0,39,39,81,1,non_cognate,1,REAL,FALSA
,,,,,,,,,638525c55b36d64ccc7dab69,001,2025-05-16_11h43.00.574,empathy_intonation_perc,2024.1.4,MacIntel,125,,,,,,,,,,,,,,167,dobbo,,,,,,125.799,127.081,0,1,0.748,,0,40,40,166,1,pseudoword,0,REAL,FALSA
,,,,,,,,,638525c55b36d64ccc7dab69,001,2025-05-16_11h43.00.574,empathy_intonation_perc,2024.1.4,MacIntel,125,,,,,,,,,,,,,,4,flora,,,,,,127.081,128.179,1,0,0.582,,0,41,41,3,1,three_way_cognate,1,REAL,FALSA
,,,,,,,,,638525c55b36d64ccc7dab69,001,2025-05-16_11h43.00.574,empathy_intonation_perc,2024.1.4,MacIntel,125,,,,,,,,,,,,,,46,mortal,,,,,,128.18,129.579,1,0,0.882,,0,42,42,45,1,two_way_cognate,1,REAL,FALSA
,,,,,,,,,638525c55b36d64ccc7dab69,001,2025-05-16_11h43.00.574,empathy_intonation_perc,2024.1.4,MacIntel,125,,,,,,,,,,,,,,172,dogue,,,,,,129.579,130.795,0,1,0.676,,0,43,43,171,1,pseudoword,0,REAL,FALSA
,,,,,,,,,638525c55b36d64ccc7dab69,001,2025-05-16_11h43.00.574,empathy_intonation_perc,2024.1.4,MacIntel,125,,,,,,,,,,,,,,50,sierra,,,,,,130.796,132.027,1,0,0.693,,0,44,44,49,1,non_cognate,1,REAL,FALSA
,,,,,,,,,638525c55b36d64ccc7dab69,001,2025-05-16_11h43.00.574,empathy_intonation_perc,2024.1.4,MacIntel,125,,,,,,,,,,,,,,17,clan,,,,,,132.028,134.275,0,1,1.713,,0,45,45,16,1,three_way_cognate,1,REAL,FALSA
,,,,,,,,,638525c55b36d64ccc7dab69,001,2025-05-16_11h43.00.574,empathy_intonation_perc,2024.1.4,MacIntel,125,,,,,,,,,,,,,,120,mauja,,,,,,134.275,136.275,0,1,1.477,,0,46,46,119,1,pseudoword,0,REAL,FALSA
,,,,,,,,,638525c55b36d64ccc7dab69,001,2025-05-16_11h43.00.574,empathy_intonation_perc,2024.1.4,MacIntel,125,,,,,,,,,,,,,,26,enigma,,,,,,136.275,138.357,0,1,1.546,,0,47,47,25,1,two_way_cognate,1,REAL,FALSA
,,,,,,,,,638525c55b36d64ccc7dab69,001,2025-05-16_11h43.00.574,empathy_intonation_perc,2024.1.4,MacIntel,125,,,,,,,,,,,,,,179,suelet,,,,,,138.357,140.009,0,1,1.122,,0,48,48,178,1,pseudoword,0,REAL,FALSA
,,,,,,,,,638525c55b36d64ccc7dab69,001,2025-05-16_11h43.00.574,empathy_intonation_perc,2024.1.4,MacIntel,125,,,,,,,,,,,,,,185,aljizo,,,,,,140.009,141.605,1,0,1.065,,0,49,49,184,1,pseudoword,0,REAL,FALSA
,,,,,,,,,638525c55b36d64ccc7dab69,001,2025-05-16_11h43.00.574,empathy_intonation_perc,2024.1.4,MacIntel,125,,,,,,,,,,,,,,75,patada,,,,,,141.605,143.22,1,0,1.1,,0,50,50,74,1,non_cognate,1,REAL,FALSA
,,,,,,,,,638525c55b36d64ccc7dab69,001,2025-05-16_11h43.00.574,empathy_intonation_perc,2024.1.4,MacIntel,125,,,,,,,,,,,,,,77,suave,,,,,,143.221,145.019,0,1,1.271,,0,51,51,76,1,non_cognate,1,REAL,FALSA
,,,,,,,,,638525c55b36d64ccc7dab69,001,2025-05-16_11h43.00.574,empathy_intonation_perc,2024.1.4,MacIntel,125,,,,,,,,,,,,,,66,aleta,,,,,,145.019,146.301,0,1,0.753,,0,52,52,65,1,non_cognate,1,REAL,FALSA
,,,,,,,,,638525c55b36d64ccc7dab69,001,2025-05-16_11h43.00.574,empathy_intonation_perc,2024.1.4,MacIntel,125,,,,,,,,,,,,,,125,ceme,,,,,,146.302,147.584,0,1,0.747,,0,53,53,124,1,pseudoword,0,REAL,FALSA
,,,,,,,,,638525c55b36d64ccc7dab69,001,2025-05-16_11h43.00.574,empathy_intonation_perc,2024.1.4,MacIntel,125,,,,,,,,,,,,,,69,tiza,,,,,,147.585,148.883,0,1,0.764,,0,54,54,68,1,non_cognate,1,REAL,FALSA
,,,,,,,,,638525c55b36d64ccc7dab69,001,2025-05-16_11h43.00.574,empathy_intonation_perc,2024.1.4,MacIntel,125,,,,,,,,,,,,,,110,densó,,,,,,148.883,150.136,1,0,0.714,,0,55,55,109,1,pseudoword,0,REAL,FALSA
,,,,,,,,,638525c55b36d64ccc7dab69,001,2025-05-16_11h43.00.574,empathy_intonation_perc,2024.1.4,MacIntel,125,,,,,,,,,,,,,,192,próces,,,,,,150.137,151.614,1,0,0.95,,0,56,56,191,1,pseudoword,0,REAL,FALSA
,,,,,,,,,638525c55b36d64ccc7dab69,001,2025-05-16_11h43.00.574,empathy_intonation_perc,2024.1.4,MacIntel,125,,,,,,,,,,,,,,151,prías,,,,,,151.614,152.863,1,0,0.735,,0,57,57,150,1,pseudoword,0,REAL,FALSA
,,,,,,,,,638525c55b36d64ccc7dab69,001,2025-05-16_11h43.00.574,empathy_intonation_perc,2024.1.4,MacIntel,125,,,,,,,,,,,,,,64,rizado,,,,,,152.864,155.162,1,0,1.762,,0,58,58,63,1,non_cognate,1,REAL,FALSA
,,,,,,,,,638525c55b36d64ccc7dab69,001,2025-05-16_11h43.00.574,empathy_intonation_perc,2024.1.4,MacIntel,125,,,,,,,,,,,,,,57,regalo,,,,,,155.163,156.462,1,0,0.766,,0,59,59,56,1,non_cognate,1,REAL,FALSA
,,,,,,,,,638525c55b36d64ccc7dab69,001,2025-05-16_11h43.00.574,empathy_intonation_perc,2024.1.4,MacIntel,125,,,,,,,,,,,,,,128,pelí,,,,,,156.462,157.761,1,0,0.759,,0,60,60,127,1,pseudoword,0,REAL,FALSA
,,,,,,,,,638525c55b36d64ccc7dab69,001,2025-05-16_11h43.00.574,empathy_intonation_perc,2024.1.4,MacIntel,125,,,,,,,,,,,,,,65,guerra,,,,,,157.761,159.408,1,0,1.114,,0,61,61,64,1,non_cognate,1,REAL,FALSA
,,,,,,,,,638525c55b36d64ccc7dab69,001,2025-05-16_11h43.00.574,empathy_intonation_perc,2024.1.4,MacIntel,125,,,,,,,,,,,,,,149,emén,,,,,,159.41,160.659,0,1,0.719,,0,62,62,148,1,pseudoword,0,REAL,FALSA
,,,,,,,,,638525c55b36d64ccc7dab69,001,2025-05-16_11h43.00.574,empathy_intonation_perc,2024.1.4,MacIntel,125,,,,,,,,,,,,,,21,hotel,,,,,,160.66,161.824,1,0,0.63,,0,63,63,20,1,three_way_cognate,1,REAL,FALSA
,,,,,,,,,638525c55b36d64ccc7dab69,001,2025-05-16_11h43.00.574,empathy_intonation_perc,2024.1.4,MacIntel,125,,,,,,,,,,,,,,81,sacar,,,,,,161.825,163.157,1,0,0.797,,0,64,64,80,1,non_cognate,1,REAL,FALSA
,,,,,,,,,638525c55b36d64ccc7dab69,001,2025-05-16_11h43.00.574,empathy_intonation_perc,2024.1.4,MacIntel,125,,,,,,,,,,,,,,54,tapón,,,,,,163.158,165.106,1,0,1.413,,0,65,65,53,1,non_cognate,1,REAL,FALSA
,,,,,,,,,638525c55b36d64ccc7dab69,001,2025-05-16_11h43.00.574,empathy_intonation_perc,2024.1.4,MacIntel,125,,,,,,,,,,,,,,134,molor,,,,,,165.106,166.371,0,1,0.733,,0,66,66,133,1,pseudoword,0,REAL,FALSA
,,,,,,,,,638525c55b36d64ccc7dab69,001,2025-05-16_11h43.00.574,empathy_intonation_perc,2024.1.4,MacIntel,125,,,,,,,,,,,,,,173,mibro,,,,,,166.371,167.72,0,1,0.827,,0,67,67,172,1,pseudoword,0,REAL,FALSA
,,,,,,,,,638525c55b36d64ccc7dab69,001,2025-05-16_11h43.00.574,empathy_intonation_perc,2024.1.4,MacIntel,125,,,,,,,,,,,,,,152,prave,,,,,,167.72,168.903,1,0,0.663,,0,68,68,151,1,pseudoword,0,REAL,FALSA
,,,,,,,,,638525c55b36d64ccc7dab69,001,2025-05-16_11h43.00.574,empathy_intonation_perc,2024.1.4,MacIntel,125,,,,,,,,,,,,,,119,esís,,,,,,168.903,170.071,0,1,0.651,,0,69,69,118,1,pseudoword,0,REAL,FALSA
,,,,,,,,,638525c55b36d64ccc7dab69,001,2025-05-16_11h43.00.574,empathy_intonation_perc,2024.1.4,MacIntel,125,,,,,,,,,,,,,,48,pelvis,,,,,,170.072,171.335,1,0,0.747,,0,70,70,47,1,two_way_cognate,1,REAL,FALSA
,,,,,,,,,638525c55b36d64ccc7dab69,001,2025-05-16_11h43.00.574,empathy_intonation_perc,2024.1.4,MacIntel,125,,,,,,,,,,,,,,137,trugo,,,,,,171.335,172.884,0,1,1.034,,0,71,71,136,1,pseudoword,0,REAL,FALSA
,,,,,,,,,638525c55b36d64ccc7dab69,001,2025-05-16_11h43.00.574,empathy_intonation_perc,2024.1.4,MacIntel,125,,,,,,,,,,,,,,80,cuenco,,,,,,172.884,174.932,0,1,1.515,,0,72,72,79,1,non_cognate,1,REAL,FALSA
,,,,,,,,,638525c55b36d64ccc7dab69,001,2025-05-16_11h43.00.574,empathy_intonation_perc,2024.1.4,MacIntel,125,,,,,,,,,,,,,,99,bugor,,,,,,174.932,176.632,1,0,1.18,,0,73,73,98,1,pseudoword,0,REAL,FALSA
,,,,,,,,,638525c55b36d64ccc7dab69,001,2025-05-16_11h43.00.574,empathy_intonation_perc,2024.1.4,MacIntel,125,,,,,,,,,,,,,,170,diabo,,,,,,176.632,177.813,0,1,0.648,,0,74,74,169,1,pseudoword,0,REAL,FALSA
,,,,,,,,,638525c55b36d64ccc7dab69,001,2025-05-16_11h43.00.574,empathy_intonation_perc,2024.1.4,MacIntel,125,,,,,,,,,,,,,,109,laras,,,,,,177.814,179.23,1,0,0.892,,0,75,75,108,1,pseudoword,0,REAL,FALSA
,,,,,,,,,638525c55b36d64ccc7dab69,001,2025-05-16_11h43.00.574,empathy_intonation_perc,2024.1.4,MacIntel,125,,,,,,,,,,,,,,49,teñir,,,,,,179.23,180.665,1,0,0.844,,0,76,76,48,1,non_cognate,1,REAL,FALSA
,,,,,,,,,638525c55b36d64ccc7dab69,001,2025-05-16_11h43.00.574,empathy_intonation_perc,2024.1.4,MacIntel,125,,,,,,,,,,,,,,91,equipo,,,,,,180.665,182.211,1,0,1.014,,0,77,77,90,1,non_cognate,1,REAL,FALSA
,,,,,,,,,638525c55b36d64ccc7dab69,001,2025-05-16_11h43.00.574,empathy_intonation_perc,2024.1.4,MacIntel,125,,,,,,,,,,,,,,114,dibrea,,,,,,182.211,183.377,0,1,0.63,,0,78,78,113,1,pseudoword,0,REAL,FALSA
,,,,,,,,,638525c55b36d64ccc7dab69,001,2025-05-16_11h43.00.574,empathy_intonation_perc,2024.1.4,MacIntel,125,,,,,,,,,,,,,,143,hurcos,,,,,,183.377,184.942,0,1,1.034,,0,79,79,142,1,pseudoword,0,REAL,FALSA
,,,,,,,,,638525c55b36d64ccc7dab69,001,2025-05-16_11h43.00.574,empathy_intonation_perc,2024.1.4,MacIntel,125,,,,,,,,,,,,,,177,entodo,,,,,,184.942,186.241,0,1,0.785,,0,80,80,176,1,pseudoword,0,REAL,FALSA
,,,,,,,,,638525c55b36d64ccc7dab69,001,2025-05-16_11h43.00.574,empathy_intonation_perc,2024.1.4,MacIntel,125,,,,,,,,,,,,,,33,collar,,,,,,186.242,187.374,1,0,0.601,,0,81,81,32,1,two_way_cognate,1,REAL,FALSA
,,,,,,,,,638525c55b36d64ccc7dab69,001,2025-05-16_11h43.00.574,empathy_intonation_perc,2024.1.4,MacIntel,125,,,,,,,,,,,,,,32,animal,,,,,,187.375,188.456,1,0,0.548,,0,82,82,31,1,two_way_cognate,1,REAL,FALSA
,,,,,,,,,638525c55b36d64ccc7dab69,001,2025-05-16_11h43.00.574,empathy_intonation_perc,2024.1.4,MacIntel,125,,,,,,,,,,,,,,141,virios,,,,,,188.457,189.919,0,1,0.935,,0,83,83,140,1,pseudoword,0,REAL,FALSA
,,,,,,,,,638525c55b36d64ccc7dab69,001,2025-05-16_11h43.00.574,empathy_intonation_perc,2024.1.4,MacIntel,125,,,,,,,,,,,,,,182,desaro,,,,,,189.92,191.255,1,0,0.805,,0,84,84,181,1,pseudoword,0,REAL,FALSA
,,,,,,,,,638525c55b36d64ccc7dab69,001,2025-05-16_11h43.00.574,empathy_intonation_perc,2024.1.4,MacIntel,125,,,,,,,,,,,,,,132,nocó,,,,,,191.255,192.421,0,1,0.632,,0,85,85,131,1,pseudoword,0,REAL,FALSA
,,,,,,,,,638525c55b36d64ccc7dab69,001,2025-05-16_11h43.00.574,empathy_intonation_perc,2024.1.4,MacIntel,125,,,,,,,,,,,,,,118,bará,,,,,,192.421,193.82,0,1,0.862,,0,86,86,117,1,pseudoword,0,REAL,FALSA
,,,,,,,,,638525c55b36d64ccc7dab69,001,2025-05-16_11h43.00.574,empathy_intonation_perc,2024.1.4,MacIntel,125,,,,,,,,,,,,,,138,tator,,,,,,193.82,195.719,0,1,1.36,,0,87,87,137,1,pseudoword,0,REAL,FALSA
,,,,,,,,,638525c55b36d64ccc7dab69,001,2025-05-16_11h43.00.574,empathy_intonation_perc,2024.1.4,MacIntel,125,,,,,,,,,,,,,,95,listo,,,,,,195.719,197.301,1,0,1.041,,0,88,88,94,1,non_cognate,1,REAL,FALSA
,,,,,,,,,638525c55b36d64ccc7dab69,001,2025-05-16_11h43.00.574,empathy_intonation_perc,2024.1.4,MacIntel,125,,,,,,,,,,,,,,83,hálito,,,,,,197.301,199.05,0,1,1.228,,0,89,89,82,1,non_cognate,1,REAL,FALSA
,,,,,,,,,638525c55b36d64ccc7dab69,001,2025-05-16_11h43.00.574,empathy_intonation_perc,2024.1.4,MacIntel,125,,,,,,,,,,,,,,139,sasos,,,,,,199.05,200.443,0,1,0.865,,0,90,90,138,1,pseudoword,0,REAL,FALSA
,,,,,,,,,638525c55b36d64ccc7dab69,001,2025-05-16_11h43.00.574,empathy_intonation_perc,2024.1.4,MacIntel,125,,,,,,,,,,,,,,62,pegar,,,,,,200.443,201.633,1,0,0.653,,0,91,91,61,1,non_cognate,1,REAL,FALSA
,,,,,,,,,638525c55b36d64ccc7dab69,001,2025-05-16_11h43.00.574,empathy_intonation_perc,2024.1.4,MacIntel,125,,,,,,,,,,,,,,30,fiscal,,,,,,201.633,203.23,0,1,1.066,,0,92,92,29,1,two_way_cognate,1,REAL,FALSA
,,,,,,,,,638525c55b36d64ccc7dab69,001,2025-05-16_11h43.00.574,empathy_intonation_perc,2024.1.4,MacIntel,125,,,,,,,,,,,,,,150,cricó,,,,,,203.23,205.112,0,1,1.364,,0,93,93,149,1,pseudoword,0,REAL,FALSA
,,,,,,,,,638525c55b36d64ccc7dab69,001,2025-05-16_11h43.00.574,empathy_intonation_perc,2024.1.4,MacIntel,125,,,,,,,,,,,,,,104,estulo,,,,,,205.113,206.479,1,0,0.83,,0,94,94,103,1,pseudoword,0,REAL,FALSA
,,,,,,,,,638525c55b36d64ccc7dab69,001,2025-05-16_11h43.00.574,empathy_intonation_perc,2024.1.4,MacIntel,125,,,,,,,,,,,,,,72,rostro,,,,,,206.479,207.778,1,0,0.763,,0,95,95,71,1,non_cognate,1,REAL,FALSA
,,,,,,,,,638525c55b36d64ccc7dab69,001,2025-05-16_11h43.00.574,empathy_intonation_perc,2024.1.4,MacIntel,125,,,,,,,,,,,,,,20,trauma,,,,,,207.778,209.259,0,1,0.95,,0,96,96,19,1,three_way_cognate,1,REAL,FALSA
,,,,,,,,,638525c55b36d64ccc7dab69,001,2025-05-16_11h43.00.574,empathy_intonation_perc,2024.1.4,MacIntel,125,,,,,,,,,,,,,,56,pico,,,,,,209.26,210.388,1,0,0.611,,0,97,97,55,1,non_cognate,1,REAL,FALSA
,,,,,,,,,638525c55b36d64ccc7dab69,001,2025-05-16_11h43.00.574,empathy_intonation_perc,2024.1.4,MacIntel,125,,,,,,,,,,,,,,37,torso,,,,,,210.39,211.725,1,0,0.818,,0,98,98,36,1,two_way_cognate,1,REAL,FALSA
,,,,,,,,,638525c55b36d64ccc7dab69,001,2025-05-16_11h43.00.574,empathy_intonation_perc,2024.1.4,MacIntel,125,,,,,,,,,,,,,,78,rendir,,,,,,211.725,213.173,1,0,0.918,,0,99,99,77,1,non_cognate,1,REAL,FALSA
,,,,,,,,,638525c55b36d64ccc7dab69,001,2025-05-16_11h43.00.574,empathy_intonation_perc,2024.1.4,MacIntel,125,,,,,,,,,,,,,,76,chocar,,,,,,213.173,214.589,1,0,0.896,,0,100,100,75,1,non_cognate,1,REAL,FALSA
,,,,,,,,,638525c55b36d64ccc7dab69,001,2025-05-16_11h43.00.574,empathy_intonation_perc,2024.1.4,MacIntel,125,,,,,,,,,,,,,,43,honor,,,,,,214.589,216.371,1,0,1.265,,0,101,101,42,1,two_way_cognate,1,REAL,FALSA
,,,,,,,,,638525c55b36d64ccc7dab69,001,2025-05-16_11h43.00.574,empathy_intonation_perc,2024.1.4,MacIntel,125,,,,,,,,,,,,,,153,golla,,,,,,216.371,217.888,0,1,0.997,,0,102,102,152,1,pseudoword,0,REAL,FALSA
,,,,,,,,,638525c55b36d64ccc7dab69,001,2025-05-16_11h43.00.574,empathy_intonation_perc,2024.1.4,MacIntel,125,,,,,,,,,,,,,,88,percha,,,,,,217.888,219.303,0,1,0.878,,0,103,103,87,1,non_cognate,1,REAL,FALSA
,,,,,,,,,638525c55b36d64ccc7dab69,001,2025-05-16_11h43.00.574,empathy_intonation_perc,2024.1.4,MacIntel,125,,,,,,,,,,,,,,5,extra,,,,,,219.304,220.522,1,0,0.685,,0,104,104,4,1,three_way_cognate,1,REAL,FALSA
,,,,,,,,,638525c55b36d64ccc7dab69,001,2025-05-16_11h43.00.574,empathy_intonation_perc,2024.1.4,MacIntel,125,,,,,,,,,,,,,,16,chat,,,,,,220.522,221.834,1,0,0.778,,0,105,105,15,1,three_way_cognate,1,REAL,FALSA
,,,,,,,,,638525c55b36d64ccc7dab69,001,2025-05-16_11h43.00.574,empathy_intonation_perc,2024.1.4,MacIntel,125,,,,,,,,,,,,,,38,halo,,,,,,221.835,223.784,0,1,1.42,,0,106,106,37,1,two_way_cognate,1,REAL,FALSA
,,,,,,,,,638525c55b36d64ccc7dab69,001,2025-05-16_11h43.00.574,empathy_intonation_perc,2024.1.4,MacIntel,125,,,,,,,,,,,,,,135,panté,,,,,,223.784,225.265,0,1,0.948,,0,107,107,134,1,pseudoword,0,REAL,FALSA
,,,,,,,,,638525c55b36d64ccc7dab69,001,2025-05-16_11h43.00.574,empathy_intonation_perc,2024.1.4,MacIntel,125,,,,,,,,,,,,,,98,martir,,,,,,225.266,226.415,1,0,0.615,,0,108,108,97,1,pseudoword,0,REAL,FALSA
,,,,,,,,,638525c55b36d64ccc7dab69,001,2025-05-16_11h43.00.574,empathy_intonation_perc,2024.1.4,MacIntel,125,,,,,,,,,,,,,,63,hilo,,,,,,226.416,227.53,0,1,0.58,,0,109,109,62,1,non_cognate,1,REAL,FALSA
,,,,,,,,,638525c55b36d64ccc7dab69,001,2025-05-16_11h43.00.574,empathy_intonation_perc,2024.1.4,MacIntel,125,,,,,,,,,,,,,,116,grigir,,,,,,227.531,229.096,0,1,1.045,,0,110,110,115,1,pseudoword,0,REAL,FALSA
,,,,,,,,,638525c55b36d64ccc7dab69,001,2025-05-16_11h43.00.574,empathy_intonation_perc,2024.1.4,MacIntel,125,,,,,,,,,,,,,,147,alla,,,,,,229.096,230.346,1,0,0.716,,0,111,111,146,1,pseudoword,0,REAL,FALSA
,,,,,,,,,638525c55b36d64ccc7dab69,001,2025-05-16_11h43.00.574,empathy_intonation_perc,2024.1.4,MacIntel,125,,,,,,,,,,,,,,85,enorme,,,,,,230.347,231.927,1,0,1.019,,0,112,112,84,1,non_cognate,1,REAL,FALSA
,,,,,,,,,638525c55b36d64ccc7dab69,001,2025-05-16_11h43.00.574,empathy_intonation_perc,2024.1.4,MacIntel,125,,,,,,,,,,,,,,166,anfia,,,,,,231.928,233.327,0,1,0.883,,0,113,113,165,1,pseudoword,0,REAL,FALSA
,,,,,,,,,638525c55b36d64ccc7dab69,001,2025-05-16_11h43.00.574,empathy_intonation_perc,2024.1.4,MacIntel,125,,,,,,,,,,,,,,13,plan,,,,,,233.327,234.876,1,0,1.015,,0,114,114,12,1,three_way_cognate,1,REAL,FALSA
,,,,,,,,,638525c55b36d64ccc7dab69,001,2025-05-16_11h43.00.574,empathy_intonation_perc,2024.1.4,MacIntel,125,,,,,,,,,,,,,,140,chorde,,,,,,234.876,236.242,0,1,0.836,,0,115,115,139,1,pseudoword,0,REAL,FALSA
,,,,,,,,,638525c55b36d64ccc7dab69,001,2025-05-16_11h43.00.574,empathy_intonation_perc,2024.1.4,MacIntel,125,,,,,,,,,,,,,,59,feo,,,,,,236.242,237.69,0,1,0.914,,0,116,116,58,1,non_cognate,1,REAL,FALSA
,,,,,,,,,638525c55b36d64ccc7dab69,001,2025-05-16_11h43.00.574,empathy_intonation_perc,2024.1.4,MacIntel,125,,,,,,,,,,,,,,158,babrá,,,,,,237.69,239.14,0,1,0.931,,0,117,117,157,1,pseudoword,0,REAL,FALSA
,,,,,,,,,638525c55b36d64ccc7dab69,001,2025-05-16_11h43.00.574,empathy_intonation_perc,2024.1.4,MacIntel,125,,,,,,,,,,,,,,115,lidena,,,,,,239.14,241.288,0,1,1.617,,0,118,118,114,1,pseudoword,0,REAL,FALSA
,,,,,,,,,638525c55b36d64ccc7dab69,001,2025-05-16_11h43.00.574,empathy_intonation_perc,2024.1.4,MacIntel,125,,,,,,,,,,,,,,113,nasce,,,,,,241.288,242.903,0,1,1.088,,0,119,119,112,1,pseudoword,0,REAL,FALSA
,,,,,,,,,638525c55b36d64ccc7dab69,001,2025-05-16_11h43.00.574,empathy_intonation_perc,2024.1.4,MacIntel,125,,,,,,,,,,,,,,44,editor,,,,,,242.904,244.153,1,0,0.715,,0,120,120,43,1,two_way_cognate,1,REAL,FALSA
,,,,,,,,,638525c55b36d64ccc7dab69,001,2025-05-16_11h43.00.574,empathy_intonation_perc,2024.1.4,MacIntel,125,,,,,,,,,,,,,,184,huenos,,,,,,244.154,245.32,0,1,0.63,,0,121,121,183,1,pseudoword,0,REAL,FALSA
,,,,,,,,,638525c55b36d64ccc7dab69,001,2025-05-16_11h43.00.574,empathy_intonation_perc,2024.1.4,MacIntel,125,,,,,,,,,,,,,,79,suelo,,,,,,245.32,246.768,1,0,0.917,,0,122,122,78,1,non_cognate,1,REAL,FALSA
,,,,,,,,,638525c55b36d64ccc7dab69,001,2025-05-16_11h43.00.574,empathy_intonation_perc,2024.1.4,MacIntel,125,,,,,,,,,,,,,,106,diebro,,,,,,246.769,247.967,0,1,0.666,,0,123,123,105,1,pseudoword,0,REAL,FALSA
,,,,,,,,,638525c55b36d64ccc7dab69,001,2025-05-16_11h43.00.574,empathy_intonation_perc,2024.1.4,MacIntel,125,,,,,,,,,,,,,,190,asumie,,,,,,247.967,249.632,0,1,1.133,,0,124,124,189,1,pseudoword,0,REAL,FALSA
,,,,,,,,,638525c55b36d64ccc7dab69,001,2025-05-16_11h43.00.574,empathy_intonation_perc,2024.1.4,MacIntel,125,,,,,,,,,,,,,,3,disco,,,,,,249.633,250.865,1,0,0.7,,0,125,125,2,1,three_way_cognate,1,REAL,FALSA
,,,,,,,,,638525c55b36d64ccc7dab69,001,2025-05-16_11h43.00.574,empathy_intonation_perc,2024.1.4,MacIntel,125,,,,,,,,,,,,,,178,inichó,,,,,,250.865,252.265,0,1,0.877,,0,126,126,177,1,pseudoword,0,REAL,FALSA
,,,,,,,,,638525c55b36d64ccc7dab69,001,2025-05-16_11h43.00.574,empathy_intonation_perc,2024.1.4,MacIntel,125,,,,,,,,,,,,,,148,gino,,,,,,252.265,253.597,0,1,0.817,,0,127,127,147,1,pseudoword,0,REAL,FALSA
,,,,,,,,,638525c55b36d64ccc7dab69,001,2025-05-16_11h43.00.574,empathy_intonation_perc,2024.1.4,MacIntel,125,,,,,,,,,,,,,,84,aviso,,,,,,253.597,254.929,1,0,0.814,,0,128,128,83,1,non_cognate,1,REAL,FALSA
,,,,,,,,,638525c55b36d64ccc7dab69,001,2025-05-16_11h43.00.574,empathy_intonation_perc,2024.1.4,MacIntel,125,,,,,,,,,,,,,,68,puñal,,,,,,254.929,256.545,1,0,1.082,,0,129,129,67,1,non_cognate,1,REAL,FALSA
,,,,,,,,,638525c55b36d64ccc7dab69,001,2025-05-16_11h43.00.574,empathy_intonation_perc,2024.1.4,MacIntel,125,,,,,,,,,,,,,,9,portal,,,,,,256.545,257.994,1,0,0.913,,0,130,130,8,1,three_way_cognate,1,REAL,FALSA
,,,,,,,,,638525c55b36d64ccc7dab69,001,2025-05-16_11h43.00.574,empathy_intonation_perc,2024.1.4,MacIntel,125,,,,,,,,,,,,,,42,rumor,,,,,,257.994,259.543,1,0,1.028,,0,131,131,41,1,two_way_cognate,1,REAL,FALSA
,,,,,,,,,638525c55b36d64ccc7dab69,001,2025-05-16_11h43.00.574,empathy_intonation_perc,2024.1.4,MacIntel,125,,,,,,,,,,,,,,34,actor,,,,,,259.543,260.659,1,0,0.574,,0,132,132,33,1,two_way_cognate,1,REAL,FALSA
,,,,,,,,,638525c55b36d64ccc7dab69,001,2025-05-16_11h43.00.574,empathy_intonation_perc,2024.1.4,MacIntel,125,,,,,,,,,,,,,,87,muleta,,,,,,260.66,262.076,1,0,0.884,,0,133,133,86,1,non_cognate,1,REAL,FALSA
,,,,,,,,,638525c55b36d64ccc7dab69,001,2025-05-16_11h43.00.574,empathy_intonation_perc,2024.1.4,MacIntel,125,,,,,,,,,,,,,,53,punta,,,,,,262.077,263.44,1,0,0.836,,0,134,134,52,1,non_cognate,1,REAL,FALSA
,,,,,,,,,638525c55b36d64ccc7dab69,001,2025-05-16_11h43.00.574,empathy_intonation_perc,2024.1.4,MacIntel,125,,,,,,,,,,,,,,96,caro,,,,,,263.44,264.624,0,1,0.666,,0,135,135,95,1,non_cognate,1,REAL,FALSA
,,,,,,,,,638525c55b36d64ccc7dab69,001,2025-05-16_11h43.00.574,empathy_intonation_perc,2024.1.4,MacIntel,125,,,,,,,,,,,,,,159,trcia,,,,,,264.624,266.071,0,1,0.915,,0,136,136,158,1,pseudoword,0,REAL,FALSA
,,,,,,,,,638525c55b36d64ccc7dab69,001,2025-05-16_11h43.00.574,empathy_intonation_perc,2024.1.4,MacIntel,125,,,,,,,,,,,,,,111,monue,,,,,,266.071,267.587,0,1,0.997,,0,137,137,110,1,pseudoword,0,REAL,FALSA
,,,,,,,,,638525c55b36d64ccc7dab69,001,2025-05-16_11h43.00.574,empathy_intonation_perc,2024.1.4,MacIntel,125,,,,,,,,,,,,,,142,parre,,,,,,267.588,269.02,0,1,0.902,,0,138,138,141,1,pseudoword,0,REAL,FALSA
,,,,,,,,,638525c55b36d64ccc7dab69,001,2025-05-16_11h43.00.574,empathy_intonation_perc,2024.1.4,MacIntel,125,,,,,,,,,,,,,,27,piano,,,,,,269.02,271.488,1,0,1.936,,0,139,139,26,1,two_way_cognate,1,REAL,FALSA
,,,,,,,,,638525c55b36d64ccc7dab69,001,2025-05-16_11h43.00.574,empathy_intonation_perc,2024.1.4,MacIntel,125,,,,,,,,,,,,,,35,aurora,,,,,,271.489,273.167,1,0,1.132,,0,140,140,34,1,two_way_cognate,1,REAL,FALSA
,,,,,,,,,638525c55b36d64ccc7dab69,001,2025-05-16_11h43.00.574,empathy_intonation_perc,2024.1.4,MacIntel,125,,,,,,,,,,,,,,157,seled,,,,,,273.167,274.35,0,1,0.665,,0,141,141,156,1,pseudoword,0,REAL,FALSA
,,,,,,,,,638525c55b36d64ccc7dab69,001,2025-05-16_11h43.00.574,empathy_intonation_perc,2024.1.4,MacIntel,125,,,,,,,,,,,,,,155,kugis,,,,,,274.35,275.449,0,1,0.583,,0,142,142,154,1,pseudoword,0,REAL,FALSA
,,,,,,,,,638525c55b36d64ccc7dab69,001,2025-05-16_11h43.00.574,empathy_intonation_perc,2024.1.4,MacIntel,125,,,,,,,,,,,,,,89,muñeca,,,,,,275.449,277.265,1,0,1.283,,0,143,143,88,1,non_cognate,1,REAL,FALSA
,,,,,,,,,638525c55b36d64ccc7dab69,001,2025-05-16_11h43.00.574,empathy_intonation_perc,2024.1.4,MacIntel,125,,,,,,,,,,,,,,107,plago,,,,,,277.265,279.08,1,0,1.281,,0,144,144,106,1,pseudoword,0,REAL,FALSA
,,,,,,,,,638525c55b36d64ccc7dab69,001,2025-05-16_11h43.00.574,empathy_intonation_perc,2024.1.4,MacIntel,125,,,,,,,,,,,,,,176,gripar,,,,,,279.08,280.595,1,0,1.003,,0,145,145,175,1,pseudoword,0,REAL,FALSA
,,,,,,,,,638525c55b36d64ccc7dab69,001,2025-05-16_11h43.00.574,empathy_intonation_perc,2024.1.4,MacIntel,125,,,,,,,,,,,,,,22,mango,,,,,,280.595,281.882,0,1,0.771,,0,146,146,21,1,three_way_cognate,1,REAL,FALSA
,,,,,,,,,638525c55b36d64ccc7dab69,001,2025-05-16_11h43.00.574,empathy_intonation_perc,2024.1.4,MacIntel,125,,,,,,,,,,,,,,31,civil,,,,,,281.882,283.027,1,0,0.603,,0,147,147,30,1,two_way_cognate,1,REAL,FALSA
,,,,,,,,,638525c55b36d64ccc7dab69,001,2025-05-16_11h43.00.574,empathy_intonation_perc,2024.1.4,MacIntel,125,,,,,,,,,,,,,,124,lobe,,,,,,283.028,284.261,0,1,0.699,,0,148,148,123,1,pseudoword,0,REAL,FALSA
,,,,,,,,,638525c55b36d64ccc7dab69,001,2025-05-16_11h43.00.574,empathy_intonation_perc,2024.1.4,MacIntel,125,,,,,,,,,,,,,,47,color,,,,,,284.261,285.476,1,0,0.682,,0,149,149,46,1,two_way_cognate,1,REAL,FALSA
,,,,,,,,,638525c55b36d64ccc7dab69,001,2025-05-16_11h43.00.574,empathy_intonation_perc,2024.1.4,MacIntel,125,,,,,,,,,,,,,,28,ardor,,,,,,285.476,287.341,1,0,1.332,,0,150,150,27,1,two_way_cognate,1,REAL,FALSA
,,,,,,,,,638525c55b36d64ccc7dab69,001,2025-05-16_11h43.00.574,empathy_intonation_perc,2024.1.4,MacIntel,125,,,,,,,,,,,,,,189,medium,,,,,,287.341,288.873,0,1,1.012,,0,151,151,188,1,pseudoword,0,REAL,FALSA
,,,,,,,,,638525c55b36d64ccc7dab69,001,2025-05-16_11h43.00.574,empathy_intonation_perc,2024.1.4,MacIntel,125,,,,,,,,,,,,,,15,test,,,,,,288.874,291.754,0,1,2.349,,0,152,152,14,1,three_way_cognate,1,REAL,FALSA
,,,,,,,,,638525c55b36d64ccc7dab69,001,2025-05-16_11h43.00.574,empathy_intonation_perc,2024.1.4,MacIntel,125,,,,,,,,,,,,,,136,hueas,,,,,,291.754,293.104,1,0,0.824,,0,153,153,135,1,pseudoword,0,REAL,FALSA
,,,,,,,,,638525c55b36d64ccc7dab69,001,2025-05-16_11h43.00.574,empathy_intonation_perc,2024.1.4,MacIntel,125,,,,,,,,,,,,,,144,diroco,,,,,,293.104,294.937,0,1,1.311,,0,154,154,143,1,pseudoword,0,REAL,FALSA
,,,,,,,,,638525c55b36d64ccc7dab69,001,2025-05-16_11h43.00.574,empathy_intonation_perc,2024.1.4,MacIntel,125,,,,,,,,,,,,,,100,épinas,,,,,,294.937,296.335,1,0,0.862,,0,155,155,99,1,pseudoword,0,REAL,FALSA
,,,,,,,,,638525c55b36d64ccc7dab69,001,2025-05-16_11h43.00.574,empathy_intonation_perc,2024.1.4,MacIntel,125,,,,,,,,,,,,,,181,gravés,,,,,,296.335,297.368,0,1,0.511,,0,156,156,180,1,pseudoword,0,REAL,FALSA
,,,,,,,,,638525c55b36d64ccc7dab69,001,2025-05-16_11h43.00.574,empathy_intonation_perc,2024.1.4,MacIntel,125,,,,,,,,,,,,,,2,tumor,,,,,,297.369,299.183,1,0,1.277,,0,157,157,1,1,three_way_cognate,1,REAL,FALSA
,,,,,,,,,638525c55b36d64ccc7dab69,001,2025-05-16_11h43.00.574,empathy_intonation_perc,2024.1.4,MacIntel,125,,,,,,,,,,,,,,52,blando,,,,,,299.183,300.532,0,1,0.832,,0,158,158,51,1,non_cognate,1,REAL,FALSA
,,,,,,,,,638525c55b36d64ccc7dab69,001,2025-05-16_11h43.00.574,empathy_intonation_perc,2024.1.4,MacIntel,125,,,,,,,,,,,,,,86,cuenco,,,,,,300.532,302.248,0,1,1.191,,0,159,159,85,1,non_cognate,1,REAL,FALSA
,,,,,,,,,638525c55b36d64ccc7dab69,001,2025-05-16_11h43.00.574,empathy_intonation_perc,2024.1.4,MacIntel,125,,,,,,,,,,,,,,36,viable,,,,,,302.248,303.597,1,0,0.825,,0,160,160,35,1,two_way_cognate,1,REAL,FALSA
,,,,,,,,,638525c55b36d64ccc7dab69,001,2025-05-16_11h43.00.574,empathy_intonation_perc,2024.1.4,MacIntel,125,,,,,,,,,,,,,,164,tecia,,,,,,303.597,305.663,1,0,1.534,,0,161,161,163,1,pseudoword,0,REAL,FALSA
,,,,,,,,,638525c55b36d64ccc7dab69,001,2025-05-16_11h43.00.574,empathy_intonation_perc,2024.1.4,MacIntel,125,,,,,,,,,,,,,,58,colcha,,,,,,305.663,307.595,1,0,1.385,,0,162,162,57,1,non_cognate,1,REAL,FALSA
,,,,,,,,,638525c55b36d64ccc7dab69,001,2025-05-16_11h43.00.574,empathy_intonation_perc,2024.1.4,MacIntel,125,,,,,,,,,,,,,,19,mafia,,,,,,307.595,309.127,1,0,0.994,,0,163,163,18,1,three_way_cognate,1,REAL,FALSA
,,,,,,,,,638525c55b36d64ccc7dab69,001,2025-05-16_11h43.00.574,empathy_intonation_perc,2024.1.4,MacIntel,125,,,,,,,,,,,,,,175,tradía,,,,,,309.127,310.625,1,0,0.965,,0,164,164,174,1,pseudoword,0,REAL,FALSA
,,,,,,,,,638525c55b36d64ccc7dab69,001,2025-05-16_11h43.00.574,empathy_intonation_perc,2024.1.4,MacIntel,125,,,,,,,,,,,,,,8,kilo,,,,,,310.626,311.841,1,0,0.683,,0,165,165,7,1,three_way_cognate,1,REAL,FALSA
,,,,,,,,,638525c55b36d64ccc7dab69,001,2025-05-16_11h43.00.574,empathy_intonation_perc,2024.1.4,MacIntel,125,,,,,,,,,,,,,,71,torta,,,,,,311.842,313.16,1,0,0.756,,0,166,166,70,1,non_cognate,1,REAL,FALSA
,,,,,,,,,638525c55b36d64ccc7dab69,001,2025-05-16_11h43.00.574,empathy_intonation_perc,2024.1.4,MacIntel,125,,,,,,,,,,,,,,10,drama,,,,,,313.16,314.407,1,0,0.715,,0,167,167,9,1,three_way_cognate,1,REAL,FALSA
,,,,,,,,,638525c55b36d64ccc7dab69,001,2025-05-16_11h43.00.574,empathy_intonation_perc,2024.1.4,MacIntel,125,,,,,,,,,,,,,,112,samón,,,,,,314.407,315.872,1,0,0.928,,0,168,168,111,1,pseudoword,0,REAL,FALSA
,,,,,,,,,638525c55b36d64ccc7dab69,001,2025-05-16_11h43.00.574,empathy_intonation_perc,2024.1.4,MacIntel,125,,,,,,,,,,,,,,97,nocita,,,,,,315.872,317.254,1,0,0.864,,0,169,169,96,1,pseudoword,0,REAL,FALSA
,,,,,,,,,638525c55b36d64ccc7dab69,001,2025-05-16_11h43.00.574,empathy_intonation_perc,2024.1.4,MacIntel,125,,,,,,,,,,,,,,103,vueras,,,,,,317.255,318.637,0,1,0.864,,0,170,170,102,1,pseudoword,0,REAL,FALSA
,,,,,,,,,638525c55b36d64ccc7dab69,001,2025-05-16_11h43.00.574,empathy_intonation_perc,2024.1.4,MacIntel,125,,,,,,,,,,,,,,55,maldad,,,,,,318.638,319.886,1,0,0.712,,0,171,171,54,1,non_cognate,1,REAL,FALSA
,,,,,,,,,638525c55b36d64ccc7dab69,001,2025-05-16_11h43.00.574,empathy_intonation_perc,2024.1.4,MacIntel,125,,,,,,,,,,,,,,169,pitis,,,,,,319.887,321.236,0,1,0.812,,0,172,172,168,1,pseudoword,0,REAL,FALSA
,,,,,,,,,638525c55b36d64ccc7dab69,001,2025-05-16_11h43.00.574,empathy_intonation_perc,2024.1.4,MacIntel,125,,,,,,,,,,,,,,67,llamar,,,,,,321.236,322.481,1,0,0.713,,0,173,173,66,1,non_cognate,1,REAL,FALSA
,,,,,,,,,638525c55b36d64ccc7dab69,001,2025-05-16_11h43.00.574,empathy_intonation_perc,2024.1.4,MacIntel,125,,,,,,,,,,,,,,60,siglo,,,,,,322.482,324.016,0,1,1.008,,0,174,174,59,1,non_cognate,1,REAL,FALSA
,,,,,,,,,638525c55b36d64ccc7dab69,001,2025-05-16_11h43.00.574,empathy_intonation_perc,2024.1.4,MacIntel,125,,,,,,,,,,,,,,168,cobén,,,,,,324.017,325.499,0,1,0.965,,0,175,175,167,1,pseudoword,0,REAL,FALSA
,,,,,,,,,638525c55b36d64ccc7dab69,001,2025-05-16_11h43.00.574,empathy_intonation_perc,2024.1.4,MacIntel,125,,,,,,,,,,,,,,105,peniz,,,,,,325.5,327.464,1,0,1.433,,0,176,176,104,1,pseudoword,0,REAL,FALSA
,,,,,,,,,638525c55b36d64ccc7dab69,001,2025-05-16_11h43.00.574,empathy_intonation_perc,2024.1.4,MacIntel,125,,,,,,,,,,,,,,93,tapa,,,,,,327.465,328.714,1,0,0.716,,0,177,177,92,1,non_cognate,1,REAL,FALSA
,,,,,,,,,638525c55b36d64ccc7dab69,001,2025-05-16_11h43.00.574,empathy_intonation_perc,2024.1.4,MacIntel,125,,,,,,,,,,,,,,171,gotro,,,,,,328.715,330.163,0,1,0.915,,0,178,178,170,1,pseudoword,0,REAL,FALSA
,,,,,,,,,638525c55b36d64ccc7dab69,001,2025-05-16_11h43.00.574,empathy_intonation_perc,2024.1.4,MacIntel,125,,,,,,,,,,,,,,51,listo,,,,,,330.163,331.429,1,0,0.731,,0,179,179,50,1,non_cognate,1,REAL,FALSA
,,,,,,,,,638525c55b36d64ccc7dab69,001,2025-05-16_11h43.00.574,empathy_intonation_perc,2024.1.4,MacIntel,125,,,,,,,,,,,,,,41,pasta,,,,,,331.429,332.844,1,0,0.879,,0,180,180,40,1,two_way_cognate,1,REAL,FALSA
,,,,,,,,,638525c55b36d64ccc7dab69,001,2025-05-16_11h43.00.574,empathy_intonation_perc,2024.1.4,MacIntel,125,,,,,,,,,,,,,,162,cengo,,,,,,332.844,334.11,0,1,0.743,,0,181,181,161,1,pseudoword,0,REAL,FALSA
,,,,,,,,,638525c55b36d64ccc7dab69,001,2025-05-16_11h43.00.574,empathy_intonation_perc,2024.1.4,MacIntel,125,,,,,,,,,,,,,,129,vinzó,,,,,,334.111,335.925,1,0,1.286,,0,182,182,128,1,pseudoword,0,REAL,FALSA
,,,,,,,,,638525c55b36d64ccc7dab69,001,2025-05-16_11h43.00.574,empathy_intonation_perc,2024.1.4,MacIntel,125,,,,,,,,,,,,,,156,ozoso,,,,,,335.925,337.574,0,1,1.132,,0,183,183,155,1,pseudoword,0,REAL,FALSA
,,,,,,,,,638525c55b36d64ccc7dab69,001,2025-05-16_11h43.00.574,empathy_intonation_perc,2024.1.4,MacIntel,125,,,,,,,,,,,,,,133,conso,,,,,,337.575,339.307,0,1,1.198,,0,184,184,132,1,pseudoword,0,REAL,FALSA
,,,,,,,,,638525c55b36d64ccc7dab69,001,2025-05-16_11h43.00.574,empathy_intonation_perc,2024.1.4,MacIntel,125,,,,,,,,,,,,,,174,pabea,,,,,,339.308,340.873,0,1,1.03,,0,185,185,173,1,pseudoword,0,REAL,FALSA
,,,,,,,,,638525c55b36d64ccc7dab69,001,2025-05-16_11h43.00.574,empathy_intonation_perc,2024.1.4,MacIntel,125,,,,,,,,,,,,,,146,gió,,,,,,340.873,342.139,0,1,0.73,,0,186,186,145,1,pseudoword,0,REAL,FALSA
,,,,,,,,,638525c55b36d64ccc7dab69,001,2025-05-16_11h43.00.574,empathy_intonation_perc,2024.1.4,MacIntel,125,,,,,,,,,,,,,,61,aduana,,,,,,342.139,343.721,0,1,1.048,,0,187,187,60,1,non_cognate,1,REAL,FALSA
,,,,,,,,,638525c55b36d64ccc7dab69,001,2025-05-16_11h43.00.574,empathy_intonation_perc,2024.1.4,MacIntel,125,,,,,,,,,,,,,,117,morrá,,,,,,343.721,345.086,0,1,0.83,,0,188,188,116,1,pseudoword,0,REAL,FALSA
,,,,,,,,,638525c55b36d64ccc7dab69,001,2025-05-16_11h43.00.574,empathy_intonation_perc,2024.1.4,MacIntel,125,,,,,,,,,,,,,,18,altar,,,,,,345.086,346.236,1,0,0.633,,0,189,189,17,1,three_way_cognate,1,REAL,FALSA
,,,,,,,,,638525c55b36d64ccc7dab69,001,2025-05-16_11h43.00.574,empathy_intonation_perc,2024.1.4,MacIntel,125,,,,,,,,,,,,,,70,ánimo,,,,,,346.236,347.717,1,0,0.949,,0,190,190,69,1,non_cognate,1,REAL,FALSA
,,,,,,,,,638525c55b36d64ccc7dab69,001,2025-05-16_11h43.00.574,empathy_intonation_perc,2024.1.4,MacIntel,125,,,,,,,,,,,,,,94,forro,,,,,,347.718,349.266,1,0,1.016,,0,191,191,93,1,non_cognate,1,REAL,FALSA
