lextale_instructions.started,lextale_instructions.stopped,lextale_instructions_loop.thisRepN,lextale_instructions_loop.thisTrialN,lextale_instructions_loop.thisN,lextale_instructions_loop.thisIndex,lextale_instructions_loop.ran,instructions_text,continue_text,participant,session,date,expName,psychopyVersion,OS,frameRate,lextale_practice.started,lextale_practice.stopped,key_resp_lextale_practice.keys,key_resp_lextale_practice.corr,key_resp_lextale_practice.rt,key_resp_lextale_practice.duration,lextale_practice_feedback.started,lextale_practice_feedback.stopped,lextale_practice_trials.thisRepN,lextale_practice_trials.thisTrialN,lextale_practice_trials.thisN,lextale_practice_trials.thisIndex,lextale_practice_trials.ran,stim,word,correct_response,prac_button_real,prac_button_false,lextale_check.started,lextale_check.stopped,lextale_trial.started,lextale_trial.stopped,key_resp_lextale_trial.keys,key_resp_lextale_trial.corr,key_resp_lextale_trial.rt,key_resp_lextale_trial.duration,lextail_trials.thisRepN,lextail_trials.thisTrialN,lextail_trials.thisN,lextail_trials.thisIndex,lextail_trials.ran,type,correct_reponse,button_real,button_false
0.002,5.728,0,0,0,0,1,"Este es un test de vocabulario en español. 
  
  A continuación vas a ver 90 secuencias de letras que parecen 'españolas'.
  
  Solo algunas de ellas son palabras de verdad.",(presiona la barra espaciadora para continuar),6789000b08f2703ba0b959b1,001,2025-04-30_12h06.44.473,empathy_intonation_perc,2024.1.4,Win32,59.95203837,,,,,,,,,,,,,,,,,,,,,,,,,,,,,,,,,,,
5.728,12.557,0,1,1,1,1,"Por favor, señala las palabras que tú conoces (aquellas que estás convencido que son palabras españolas, incluso aunque no seas capaz de dar el significado preciso).",(presiona la barra espaciadora para continuar),6789000b08f2703ba0b959b1,001,2025-04-30_12h06.44.473,empathy_intonation_perc,2024.1.4,Win32,59.95203837,,,,,,,,,,,,,,,,,,,,,,,,,,,,,,,,,,,
12.557,19.09,0,2,2,2,1,Pero cuidado: los errores se penalizan. Por eso no tiene sentido tratar de incrementar tu puntuación marcando como reales palabras que nunca has visto.,(presiona la barra espaciadora para continuar),6789000b08f2703ba0b959b1,001,2025-04-30_12h06.44.473,empathy_intonation_perc,2024.1.4,Win32,59.95203837,,,,,,,,,,,,,,,,,,,,,,,,,,,,,,,,,,,
19.09,21.607,0,3,3,3,1,"Presiona la tecla 1 si piensas que es una palabra real y la tecla 
  0 si piensas que es una palabra falsa. 
  
  Vamos a practicar un poco...",(presiona la barra espaciadora para continuar),6789000b08f2703ba0b959b1,001,2025-04-30_12h06.44.473,empathy_intonation_perc,2024.1.4,Win32,59.95203837,,,,,,,,,,,,,,,,,,,,,,,,,,,,,,,,,,,
,,,,,,,,,6789000b08f2703ba0b959b1,001,2025-04-30_12h06.44.473,empathy_intonation_perc,2024.1.4,Win32,59.95203837,21.609,23.974,1,0,1.825,,23.974,24.973,0,0,0,0,1,0,depiste,0,REAL,FALSA,,,,,,,,,,,,,,,,,
,,,,,,,,,6789000b08f2703ba0b959b1,001,2025-04-30_12h06.44.473,empathy_intonation_perc,2024.1.4,Win32,59.95203837,24.974,26.64,1,1,1.136,,26.64,27.64,0,1,1,1,1,0,sí,1,REAL,FALSA,,,,,,,,,,,,,,,,,
,,,,,,,,,6789000b08f2703ba0b959b1,001,2025-04-30_12h06.44.473,empathy_intonation_perc,2024.1.4,Win32,59.95203837,27.64,28.939,1,0,0.761,,28.939,29.94,0,2,2,2,1,0,coné,0,REAL,FALSA,,,,,,,,,,,,,,,,,
,,,,,,,,,6789000b08f2703ba0b959b1,001,2025-04-30_12h06.44.473,empathy_intonation_perc,2024.1.4,Win32,59.95203837,29.94,31.99,1,0,1.52,,31.99,32.99,0,3,3,3,1,0,calpar,0,REAL,FALSA,,,,,,,,,,,,,,,,,
,,,,,,,,,6789000b08f2703ba0b959b1,001,2025-04-30_12h06.44.473,empathy_intonation_perc,2024.1.4,Win32,59.95203837,32.99,34.757,0,1,1.255,,34.757,35.756,0,4,4,4,1,0,joten,0,REAL,FALSA,,,,,,,,,,,,,,,,,
,,,,,,,,,6789000b08f2703ba0b959b1,001,2025-04-30_12h06.44.473,empathy_intonation_perc,2024.1.4,Win32,59.95203837,35.756,37.839,0,0,1.549,,37.839,38.839,0,5,5,5,1,0,sacapuntas,1,REAL,FALSA,,,,,,,,,,,,,,,,,
,,,,,,,,,6789000b08f2703ba0b959b1,001,2025-04-30_12h06.44.473,empathy_intonation_perc,2024.1.4,Win32,59.95203837,38.84,40.04,1,0,0.67,,40.04,41.04,0,6,6,6,1,0,priba,0,REAL,FALSA,,,,,,,,,,,,,,,,,
,,,,,,,,,6789000b08f2703ba0b959b1,001,2025-04-30_12h06.44.473,empathy_intonation_perc,2024.1.4,Win32,59.95203837,41.041,42.323,0,1,0.742,,42.323,43.323,0,7,7,7,1,0,pelasula,0,REAL,FALSA,,,,,,,,,,,,,,,,,
,,,,,,,,,6789000b08f2703ba0b959b1,001,2025-04-30_12h06.44.473,empathy_intonation_perc,2024.1.4,Win32,59.95203837,43.324,45.173,0,0,1.319,,45.173,46.173,0,8,8,8,1,0,bien,1,REAL,FALSA,,,,,,,,,,,,,,,,,
,,,,,,,,,6789000b08f2703ba0b959b1,001,2025-04-30_12h06.44.473,empathy_intonation_perc,2024.1.4,Win32,59.95203837,46.173,46.89,1,1,0.197,,46.89,47.889,0,9,9,9,1,0,casa,1,REAL,FALSA,,,,,,,,,,,,,,,,,
,,,,,,,,,6789000b08f2703ba0b959b1,001,2025-04-30_12h06.44.473,empathy_intonation_perc,2024.1.4,Win32,59.95203837,47.89,49.023,1,0,0.599,,49.023,50.023,0,10,10,10,1,0,lejo,0,REAL,FALSA,,,,,,,,,,,,,,,,,
,,,,,,,,,6789000b08f2703ba0b959b1,001,2025-04-30_12h06.44.473,empathy_intonation_perc,2024.1.4,Win32,59.95203837,50.023,50.923,1,0,0.365,,50.923,51.923,0,11,11,11,1,0,pretantas,0,REAL,FALSA,,,,,,,,,,,,,,,,,
,,,,,,,,,6789000b08f2703ba0b959b1,001,2025-04-30_12h06.44.473,empathy_intonation_perc,2024.1.4,Win32,59.95203837,,,,,,,,,,,,,,,,,,,51.923,54.706,,,,,,,,,,,,,,,
,,,,,,,,,6789000b08f2703ba0b959b1,001,2025-04-30_12h06.44.473,empathy_intonation_perc,2024.1.4,Win32,59.95203837,,,,,,,,,,,,,,165,chote,,,,,,54.713,55.756,1,0,0.521,,0,0,0,164,1,pseudoword,0,REAL,FALSA
,,,,,,,,,6789000b08f2703ba0b959b1,001,2025-04-30_12h06.44.473,empathy_intonation_perc,2024.1.4,Win32,59.95203837,,,,,,,,,,,,,,146,gió,,,,,,55.757,56.94,1,0,0.65,,0,1,1,145,1,pseudoword,0,REAL,FALSA
,,,,,,,,,6789000b08f2703ba0b959b1,001,2025-04-30_12h06.44.473,empathy_intonation_perc,2024.1.4,Win32,59.95203837,,,,,,,,,,,,,,112,samón,,,,,,56.94,58.273,1,0,0.816,,0,2,2,111,1,pseudoword,0,REAL,FALSA
,,,,,,,,,6789000b08f2703ba0b959b1,001,2025-04-30_12h06.44.473,empathy_intonation_perc,2024.1.4,Win32,59.95203837,,,,,,,,,,,,,,153,golla,,,,,,58.273,59.64,0,1,0.849,,0,3,3,152,1,pseudoword,0,REAL,FALSA
,,,,,,,,,6789000b08f2703ba0b959b1,001,2025-04-30_12h06.44.473,empathy_intonation_perc,2024.1.4,Win32,59.95203837,,,,,,,,,,,,,,111,monue,,,,,,59.64,61.023,1,0,0.847,,0,4,4,110,1,pseudoword,0,REAL,FALSA
,,,,,,,,,6789000b08f2703ba0b959b1,001,2025-04-30_12h06.44.473,empathy_intonation_perc,2024.1.4,Win32,59.95203837,,,,,,,,,,,,,,77,suave,,,,,,61.023,63.072,0,1,1.53,,0,5,5,76,1,non_cognate,1,REAL,FALSA
,,,,,,,,,6789000b08f2703ba0b959b1,001,2025-04-30_12h06.44.473,empathy_intonation_perc,2024.1.4,Win32,59.95203837,,,,,,,,,,,,,,61,aduana,,,,,,63.073,64.356,0,1,0.769,,0,6,6,60,1,non_cognate,1,REAL,FALSA
,,,,,,,,,6789000b08f2703ba0b959b1,001,2025-04-30_12h06.44.473,empathy_intonation_perc,2024.1.4,Win32,59.95203837,,,,,,,,,,,,,,141,virios,,,,,,64.359,66.757,1,0,1.853,,0,7,7,140,1,pseudoword,0,REAL,FALSA
,,,,,,,,,6789000b08f2703ba0b959b1,001,2025-04-30_12h06.44.473,empathy_intonation_perc,2024.1.4,Win32,59.95203837,,,,,,,,,,,,,,11,golf,,,,,,66.757,69.956,0,1,2.674,,0,8,8,10,1,three_way_cognate,1,REAL,FALSA
,,,,,,,,,6789000b08f2703ba0b959b1,001,2025-04-30_12h06.44.473,empathy_intonation_perc,2024.1.4,Win32,59.95203837,,,,,,,,,,,,,,19,mafia,,,,,,69.956,75.473,0,1,5.003,,0,9,9,18,1,three_way_cognate,1,REAL,FALSA
,,,,,,,,,6789000b08f2703ba0b959b1,001,2025-04-30_12h06.44.473,empathy_intonation_perc,2024.1.4,Win32,59.95203837,,,,,,,,,,,,,,4,flora,,,,,,75.473,76.706,1,0,0.711,,0,10,10,3,1,three_way_cognate,1,REAL,FALSA
,,,,,,,,,6789000b08f2703ba0b959b1,001,2025-04-30_12h06.44.473,empathy_intonation_perc,2024.1.4,Win32,59.95203837,,,,,,,,,,,,,,60,siglo,,,,,,76.706,77.89,1,0,0.664,,0,11,11,59,1,non_cognate,1,REAL,FALSA
,,,,,,,,,6789000b08f2703ba0b959b1,001,2025-04-30_12h06.44.473,empathy_intonation_perc,2024.1.4,Win32,59.95203837,,,,,,,,,,,,,,71,torta,,,,,,77.89,79.573,1,0,1.144,,0,12,12,70,1,non_cognate,1,REAL,FALSA
,,,,,,,,,6789000b08f2703ba0b959b1,001,2025-04-30_12h06.44.473,empathy_intonation_perc,2024.1.4,Win32,59.95203837,,,,,,,,,,,,,,53,punta,,,,,,79.573,81.956,1,0,1.868,,0,13,13,52,1,non_cognate,1,REAL,FALSA
,,,,,,,,,6789000b08f2703ba0b959b1,001,2025-04-30_12h06.44.473,empathy_intonation_perc,2024.1.4,Win32,59.95203837,,,,,,,,,,,,,,134,molor,,,,,,81.956,85.223,1,0,2.75,,0,14,14,133,1,pseudoword,0,REAL,FALSA
,,,,,,,,,6789000b08f2703ba0b959b1,001,2025-04-30_12h06.44.473,empathy_intonation_perc,2024.1.4,Win32,59.95203837,,,,,,,,,,,,,,120,mauja,,,,,,85.223,89.056,1,0,3.313,,0,15,15,119,1,pseudoword,0,REAL,FALSA
,,,,,,,,,6789000b08f2703ba0b959b1,001,2025-04-30_12h06.44.473,empathy_intonation_perc,2024.1.4,Win32,59.95203837,,,,,,,,,,,,,,137,trugo,,,,,,89.056,90.239,1,0,0.67,,0,16,16,136,1,pseudoword,0,REAL,FALSA
,,,,,,,,,6789000b08f2703ba0b959b1,001,2025-04-30_12h06.44.473,empathy_intonation_perc,2024.1.4,Win32,59.95203837,,,,,,,,,,,,,,62,pegar,,,,,,90.24,91.439,1,0,0.681,,0,17,17,61,1,non_cognate,1,REAL,FALSA
,,,,,,,,,6789000b08f2703ba0b959b1,001,2025-04-30_12h06.44.473,empathy_intonation_perc,2024.1.4,Win32,59.95203837,,,,,,,,,,,,,,32,animal,,,,,,91.439,92.989,0,1,1.031,,0,18,18,31,1,two_way_cognate,1,REAL,FALSA
,,,,,,,,,6789000b08f2703ba0b959b1,001,2025-04-30_12h06.44.473,empathy_intonation_perc,2024.1.4,Win32,59.95203837,,,,,,,,,,,,,,66,aleta,,,,,,92.989,94.356,1,0,0.85,,0,19,19,65,1,non_cognate,1,REAL,FALSA
,,,,,,,,,6789000b08f2703ba0b959b1,001,2025-04-30_12h06.44.473,empathy_intonation_perc,2024.1.4,Win32,59.95203837,,,,,,,,,,,,,,8,kilo,,,,,,94.356,96.489,0,1,1.602,,0,20,20,7,1,three_way_cognate,1,REAL,FALSA
,,,,,,,,,6789000b08f2703ba0b959b1,001,2025-04-30_12h06.44.473,empathy_intonation_perc,2024.1.4,Win32,59.95203837,,,,,,,,,,,,,,171,gotro,,,,,,96.489,97.706,1,0,0.681,,0,21,21,170,1,pseudoword,0,REAL,FALSA
,,,,,,,,,6789000b08f2703ba0b959b1,001,2025-04-30_12h06.44.473,empathy_intonation_perc,2024.1.4,Win32,59.95203837,,,,,,,,,,,,,,73,llevar,,,,,,97.706,98.923,1,0,0.699,,0,22,22,72,1,non_cognate,1,REAL,FALSA
,,,,,,,,,6789000b08f2703ba0b959b1,001,2025-04-30_12h06.44.473,empathy_intonation_perc,2024.1.4,Win32,59.95203837,,,,,,,,,,,,,,95,listo,,,,,,98.923,100.339,1,0,0.899,,0,23,23,94,1,non_cognate,1,REAL,FALSA
,,,,,,,,,6789000b08f2703ba0b959b1,001,2025-04-30_12h06.44.473,empathy_intonation_perc,2024.1.4,Win32,59.95203837,,,,,,,,,,,,,,75,patada,,,,,,100.34,101.789,1,0,0.919,,0,24,24,74,1,non_cognate,1,REAL,FALSA
,,,,,,,,,6789000b08f2703ba0b959b1,001,2025-04-30_12h06.44.473,empathy_intonation_perc,2024.1.4,Win32,59.95203837,,,,,,,,,,,,,,13,plan,,,,,,101.79,103.505,0,1,1.178,,0,25,25,12,1,three_way_cognate,1,REAL,FALSA
,,,,,,,,,6789000b08f2703ba0b959b1,001,2025-04-30_12h06.44.473,empathy_intonation_perc,2024.1.4,Win32,59.95203837,,,,,,,,,,,,,,59,feo,,,,,,103.507,105.089,0,1,1.052,,0,26,26,58,1,non_cognate,1,REAL,FALSA
,,,,,,,,,6789000b08f2703ba0b959b1,001,2025-04-30_12h06.44.473,empathy_intonation_perc,2024.1.4,Win32,59.95203837,,,,,,,,,,,,,,178,inichó,,,,,,105.09,106.256,1,0,0.633,,0,27,27,177,1,pseudoword,0,REAL,FALSA
,,,,,,,,,6789000b08f2703ba0b959b1,001,2025-04-30_12h06.44.473,empathy_intonation_perc,2024.1.4,Win32,59.95203837,,,,,,,,,,,,,,69,tiza,,,,,,106.256,107.989,1,0,1.218,,0,28,28,68,1,non_cognate,1,REAL,FALSA
,,,,,,,,,6789000b08f2703ba0b959b1,001,2025-04-30_12h06.44.473,empathy_intonation_perc,2024.1.4,Win32,59.95203837,,,,,,,,,,,,,,40,pelvis,,,,,,107.99,110.406,0,1,1.887,,0,29,29,39,1,two_way_cognate,1,REAL,FALSA
,,,,,,,,,6789000b08f2703ba0b959b1,001,2025-04-30_12h06.44.473,empathy_intonation_perc,2024.1.4,Win32,59.95203837,,,,,,,,,,,,,,143,hurcos,,,,,,110.406,111.856,1,0,0.908,,0,30,30,142,1,pseudoword,0,REAL,FALSA
,,,,,,,,,6789000b08f2703ba0b959b1,001,2025-04-30_12h06.44.473,empathy_intonation_perc,2024.1.4,Win32,59.95203837,,,,,,,,,,,,,,9,portal,,,,,,111.856,113.189,0,1,0.806,,0,31,31,8,1,three_way_cognate,1,REAL,FALSA
,,,,,,,,,6789000b08f2703ba0b959b1,001,2025-04-30_12h06.44.473,empathy_intonation_perc,2024.1.4,Win32,59.95203837,,,,,,,,,,,,,,37,torso,,,,,,113.19,114.889,1,0,1.156,,0,32,32,36,1,two_way_cognate,1,REAL,FALSA
,,,,,,,,,6789000b08f2703ba0b959b1,001,2025-04-30_12h06.44.473,empathy_intonation_perc,2024.1.4,Win32,59.95203837,,,,,,,,,,,,,,63,hilo,,,,,,114.889,117.139,0,1,1.733,,0,33,33,62,1,non_cognate,1,REAL,FALSA
,,,,,,,,,6789000b08f2703ba0b959b1,001,2025-04-30_12h06.44.473,empathy_intonation_perc,2024.1.4,Win32,59.95203837,,,,,,,,,,,,,,47,color,,,,,,117.14,118.289,0,1,0.607,,0,34,34,46,1,two_way_cognate,1,REAL,FALSA
,,,,,,,,,6789000b08f2703ba0b959b1,001,2025-04-30_12h06.44.473,empathy_intonation_perc,2024.1.4,Win32,59.95203837,,,,,,,,,,,,,,122,boñaz,,,,,,118.289,119.856,1,0,1.049,,0,35,35,121,1,pseudoword,0,REAL,FALSA
,,,,,,,,,6789000b08f2703ba0b959b1,001,2025-04-30_12h06.44.473,empathy_intonation_perc,2024.1.4,Win32,59.95203837,,,,,,,,,,,,,,100,épinas,,,,,,119.856,120.956,1,0,0.58,,0,36,36,99,1,pseudoword,0,REAL,FALSA
,,,,,,,,,6789000b08f2703ba0b959b1,001,2025-04-30_12h06.44.473,empathy_intonation_perc,2024.1.4,Win32,59.95203837,,,,,,,,,,,,,,130,dubo,,,,,,120.956,122.372,0,1,0.881,,0,37,37,129,1,pseudoword,0,REAL,FALSA
,,,,,,,,,6789000b08f2703ba0b959b1,001,2025-04-30_12h06.44.473,empathy_intonation_perc,2024.1.4,Win32,59.95203837,,,,,,,,,,,,,,82,brillo,,,,,,122.373,124.073,1,0,1.183,,0,38,38,81,1,non_cognate,1,REAL,FALSA
,,,,,,,,,6789000b08f2703ba0b959b1,001,2025-04-30_12h06.44.473,empathy_intonation_perc,2024.1.4,Win32,59.95203837,,,,,,,,,,,,,,118,bará,,,,,,124.073,125.206,1,0,0.604,,0,39,39,117,1,pseudoword,0,REAL,FALSA
,,,,,,,,,6789000b08f2703ba0b959b1,001,2025-04-30_12h06.44.473,empathy_intonation_perc,2024.1.4,Win32,59.95203837,,,,,,,,,,,,,,46,mortal,,,,,,125.206,126.889,0,1,1.155,,0,40,40,45,1,two_way_cognate,1,REAL,FALSA
,,,,,,,,,6789000b08f2703ba0b959b1,001,2025-04-30_12h06.44.473,empathy_intonation_perc,2024.1.4,Win32,59.95203837,,,,,,,,,,,,,,192,próces,,,,,,126.889,128.106,1,0,0.695,,0,41,41,191,1,pseudoword,0,REAL,FALSA
,,,,,,,,,6789000b08f2703ba0b959b1,001,2025-04-30_12h06.44.473,empathy_intonation_perc,2024.1.4,Win32,59.95203837,,,,,,,,,,,,,,163,llzan,,,,,,128.106,129.789,1,0,1.162,,0,42,42,162,1,pseudoword,0,REAL,FALSA
,,,,,,,,,6789000b08f2703ba0b959b1,001,2025-04-30_12h06.44.473,empathy_intonation_perc,2024.1.4,Win32,59.95203837,,,,,,,,,,,,,,1,moral,,,,,,129.79,131.372,0,1,1.053,,0,43,43,0,1,three_way_cognate,1,REAL,FALSA
,,,,,,,,,6789000b08f2703ba0b959b1,001,2025-04-30_12h06.44.473,empathy_intonation_perc,2024.1.4,Win32,59.95203837,,,,,,,,,,,,,,21,hotel,,,,,,131.372,132.956,0,1,1.063,,0,44,44,20,1,three_way_cognate,1,REAL,FALSA
,,,,,,,,,6789000b08f2703ba0b959b1,001,2025-04-30_12h06.44.473,empathy_intonation_perc,2024.1.4,Win32,59.95203837,,,,,,,,,,,,,,132,nocó,,,,,,132.956,134.256,1,0,0.754,,0,45,45,131,1,pseudoword,0,REAL,FALSA
,,,,,,,,,6789000b08f2703ba0b959b1,001,2025-04-30_12h06.44.473,empathy_intonation_perc,2024.1.4,Win32,59.95203837,,,,,,,,,,,,,,88,percha,,,,,,134.256,135.705,1,0,0.918,,0,46,46,87,1,non_cognate,1,REAL,FALSA
,,,,,,,,,6789000b08f2703ba0b959b1,001,2025-04-30_12h06.44.473,empathy_intonation_perc,2024.1.4,Win32,59.95203837,,,,,,,,,,,,,,166,anfia,,,,,,135.706,137.706,1,0,1.481,,0,47,47,165,1,pseudoword,0,REAL,FALSA
,,,,,,,,,6789000b08f2703ba0b959b1,001,2025-04-30_12h06.44.473,empathy_intonation_perc,2024.1.4,Win32,59.95203837,,,,,,,,,,,,,,191,frasis,,,,,,137.706,141.722,0,1,3.469,,0,48,48,190,1,pseudoword,0,REAL,FALSA
,,,,,,,,,6789000b08f2703ba0b959b1,001,2025-04-30_12h06.44.473,empathy_intonation_perc,2024.1.4,Win32,59.95203837,,,,,,,,,,,,,,67,llamar,,,,,,141.722,144.089,1,0,1.847,,0,49,49,66,1,non_cognate,1,REAL,FALSA
,,,,,,,,,6789000b08f2703ba0b959b1,001,2025-04-30_12h06.44.473,empathy_intonation_perc,2024.1.4,Win32,59.95203837,,,,,,,,,,,,,,136,hueas,,,,,,144.09,146.073,1,0,1.444,,0,50,50,135,1,pseudoword,0,REAL,FALSA
,,,,,,,,,6789000b08f2703ba0b959b1,001,2025-04-30_12h06.44.473,empathy_intonation_perc,2024.1.4,Win32,59.95203837,,,,,,,,,,,,,,147,alla,,,,,,146.073,147.556,0,1,0.959,,0,51,51,146,1,pseudoword,0,REAL,FALSA
,,,,,,,,,6789000b08f2703ba0b959b1,001,2025-04-30_12h06.44.473,empathy_intonation_perc,2024.1.4,Win32,59.95203837,,,,,,,,,,,,,,22,mango,,,,,,147.556,151.689,0,1,3.598,,0,52,52,21,1,three_way_cognate,1,REAL,FALSA
,,,,,,,,,6789000b08f2703ba0b959b1,001,2025-04-30_12h06.44.473,empathy_intonation_perc,2024.1.4,Win32,59.95203837,,,,,,,,,,,,,,65,guerra,,,,,,151.689,152.856,1,0,0.651,,0,53,53,64,1,non_cognate,1,REAL,FALSA
,,,,,,,,,6789000b08f2703ba0b959b1,001,2025-04-30_12h06.44.473,empathy_intonation_perc,2024.1.4,Win32,59.95203837,,,,,,,,,,,,,,119,esís,,,,,,152.856,153.939,1,0,0.554,,0,54,54,118,1,pseudoword,0,REAL,FALSA
,,,,,,,,,6789000b08f2703ba0b959b1,001,2025-04-30_12h06.44.473,empathy_intonation_perc,2024.1.4,Win32,59.95203837,,,,,,,,,,,,,,126,tobre,,,,,,153.939,158.105,1,0,3.648,,0,55,55,125,1,pseudoword,0,REAL,FALSA
,,,,,,,,,6789000b08f2703ba0b959b1,001,2025-04-30_12h06.44.473,empathy_intonation_perc,2024.1.4,Win32,59.95203837,,,,,,,,,,,,,,43,honor,,,,,,158.106,159.556,0,1,0.927,,0,56,56,42,1,two_way_cognate,1,REAL,FALSA
,,,,,,,,,6789000b08f2703ba0b959b1,001,2025-04-30_12h06.44.473,empathy_intonation_perc,2024.1.4,Win32,59.95203837,,,,,,,,,,,,,,155,kugis,,,,,,159.556,162.605,0,1,2.501,,0,57,57,154,1,pseudoword,0,REAL,FALSA
,,,,,,,,,6789000b08f2703ba0b959b1,001,2025-04-30_12h06.44.473,empathy_intonation_perc,2024.1.4,Win32,59.95203837,,,,,,,,,,,,,,87,muleta,,,,,,162.606,163.755,1,0,0.615,,0,58,58,86,1,non_cognate,1,REAL,FALSA
,,,,,,,,,6789000b08f2703ba0b959b1,001,2025-04-30_12h06.44.473,empathy_intonation_perc,2024.1.4,Win32,59.95203837,,,,,,,,,,,,,,142,parre,,,,,,163.755,164.972,1,0,0.697,,0,59,59,141,1,pseudoword,0,REAL,FALSA
,,,,,,,,,6789000b08f2703ba0b959b1,001,2025-04-30_12h06.44.473,empathy_intonation_perc,2024.1.4,Win32,59.95203837,,,,,,,,,,,,,,39,casual,,,,,,164.973,166.322,0,1,0.815,,0,60,60,38,1,two_way_cognate,1,REAL,FALSA
,,,,,,,,,6789000b08f2703ba0b959b1,001,2025-04-30_12h06.44.473,empathy_intonation_perc,2024.1.4,Win32,59.95203837,,,,,,,,,,,,,,34,actor,,,,,,166.322,167.439,0,1,0.596,,0,61,61,33,1,two_way_cognate,1,REAL,FALSA
,,,,,,,,,6789000b08f2703ba0b959b1,001,2025-04-30_12h06.44.473,empathy_intonation_perc,2024.1.4,Win32,59.95203837,,,,,,,,,,,,,,96,caro,,,,,,167.439,169.038,1,0,1.08,,0,62,62,95,1,non_cognate,1,REAL,FALSA
,,,,,,,,,6789000b08f2703ba0b959b1,001,2025-04-30_12h06.44.473,empathy_intonation_perc,2024.1.4,Win32,59.95203837,,,,,,,,,,,,,,25,vigor,,,,,,169.039,170.455,1,0,0.897,,0,63,63,24,1,two_way_cognate,1,REAL,FALSA
,,,,,,,,,6789000b08f2703ba0b959b1,001,2025-04-30_12h06.44.473,empathy_intonation_perc,2024.1.4,Win32,59.95203837,,,,,,,,,,,,,,48,pelvis,,,,,,170.455,172.372,0,1,1.403,,0,64,64,47,1,two_way_cognate,1,REAL,FALSA
,,,,,,,,,6789000b08f2703ba0b959b1,001,2025-04-30_12h06.44.473,empathy_intonation_perc,2024.1.4,Win32,59.95203837,,,,,,,,,,,,,,138,tator,,,,,,172.372,174.272,0,1,1.38,,0,65,65,137,1,pseudoword,0,REAL,FALSA
,,,,,,,,,6789000b08f2703ba0b959b1,001,2025-04-30_12h06.44.473,empathy_intonation_perc,2024.1.4,Win32,59.95203837,,,,,,,,,,,,,,148,gino,,,,,,174.272,175.572,0,1,0.778,,0,66,66,147,1,pseudoword,0,REAL,FALSA
,,,,,,,,,6789000b08f2703ba0b959b1,001,2025-04-30_12h06.44.473,empathy_intonation_perc,2024.1.4,Win32,59.95203837,,,,,,,,,,,,,,188,amplir,,,,,,175.572,177.139,1,0,1.045,,0,67,67,187,1,pseudoword,0,REAL,FALSA
,,,,,,,,,6789000b08f2703ba0b959b1,001,2025-04-30_12h06.44.473,empathy_intonation_perc,2024.1.4,Win32,59.95203837,,,,,,,,,,,,,,172,dogue,,,,,,177.139,178.422,0,1,0.748,,0,68,68,171,1,pseudoword,0,REAL,FALSA
,,,,,,,,,6789000b08f2703ba0b959b1,001,2025-04-30_12h06.44.473,empathy_intonation_perc,2024.1.4,Win32,59.95203837,,,,,,,,,,,,,,161,civas,,,,,,178.422,179.672,1,0,0.729,,0,69,69,160,1,pseudoword,0,REAL,FALSA
,,,,,,,,,6789000b08f2703ba0b959b1,001,2025-04-30_12h06.44.473,empathy_intonation_perc,2024.1.4,Win32,59.95203837,,,,,,,,,,,,,,187,nomata,,,,,,179.673,181.638,1,0,1.43,,0,70,70,186,1,pseudoword,0,REAL,FALSA
,,,,,,,,,6789000b08f2703ba0b959b1,001,2025-04-30_12h06.44.473,empathy_intonation_perc,2024.1.4,Win32,59.95203837,,,,,,,,,,,,,,97,nocita,,,,,,181.639,182.822,1,0,0.643,,0,71,71,96,1,pseudoword,0,REAL,FALSA
,,,,,,,,,6789000b08f2703ba0b959b1,001,2025-04-30_12h06.44.473,empathy_intonation_perc,2024.1.4,Win32,59.95203837,,,,,,,,,,,,,,186,rizate,,,,,,182.822,184.522,0,1,1.18,,0,72,72,185,1,pseudoword,0,REAL,FALSA
,,,,,,,,,6789000b08f2703ba0b959b1,001,2025-04-30_12h06.44.473,empathy_intonation_perc,2024.1.4,Win32,59.95203837,,,,,,,,,,,,,,185,aljizo,,,,,,184.522,186.422,1,0,1.369,,0,73,73,184,1,pseudoword,0,REAL,FALSA
,,,,,,,,,6789000b08f2703ba0b959b1,001,2025-04-30_12h06.44.473,empathy_intonation_perc,2024.1.4,Win32,59.95203837,,,,,,,,,,,,,,18,altar,,,,,,186.423,187.672,0,1,0.708,,0,74,74,17,1,three_way_cognate,1,REAL,FALSA
,,,,,,,,,6789000b08f2703ba0b959b1,001,2025-04-30_12h06.44.473,empathy_intonation_perc,2024.1.4,Win32,59.95203837,,,,,,,,,,,,,,64,rizado,,,,,,187.672,189.105,1,0,0.898,,0,75,75,63,1,non_cognate,1,REAL,FALSA
,,,,,,,,,6789000b08f2703ba0b959b1,001,2025-04-30_12h06.44.473,empathy_intonation_perc,2024.1.4,Win32,59.95203837,,,,,,,,,,,,,,42,rumor,,,,,,189.105,190.205,0,1,0.58,,0,76,76,41,1,two_way_cognate,1,REAL,FALSA
,,,,,,,,,6789000b08f2703ba0b959b1,001,2025-04-30_12h06.44.473,empathy_intonation_perc,2024.1.4,Win32,59.95203837,,,,,,,,,,,,,,174,pabea,,,,,,190.205,192.488,1,0,1.757,,0,77,77,173,1,pseudoword,0,REAL,FALSA
,,,,,,,,,6789000b08f2703ba0b959b1,001,2025-04-30_12h06.44.473,empathy_intonation_perc,2024.1.4,Win32,59.95203837,,,,,,,,,,,,,,133,conso,,,,,,192.489,194.122,1,0,1.091,,0,78,78,132,1,pseudoword,0,REAL,FALSA
,,,,,,,,,6789000b08f2703ba0b959b1,001,2025-04-30_12h06.44.473,empathy_intonation_perc,2024.1.4,Win32,59.95203837,,,,,,,,,,,,,,127,vien,,,,,,194.122,195.505,1,0,0.845,,0,79,79,126,1,pseudoword,0,REAL,FALSA
,,,,,,,,,6789000b08f2703ba0b959b1,001,2025-04-30_12h06.44.473,empathy_intonation_perc,2024.1.4,Win32,59.95203837,,,,,,,,,,,,,,2,tumor,,,,,,195.505,196.705,0,1,0.68,,0,80,80,1,1,three_way_cognate,1,REAL,FALSA
,,,,,,,,,6789000b08f2703ba0b959b1,001,2025-04-30_12h06.44.473,empathy_intonation_perc,2024.1.4,Win32,59.95203837,,,,,,,,,,,,,,58,colcha,,,,,,196.706,198.055,1,0,0.808,,0,81,81,57,1,non_cognate,1,REAL,FALSA
,,,,,,,,,6789000b08f2703ba0b959b1,001,2025-04-30_12h06.44.473,empathy_intonation_perc,2024.1.4,Win32,59.95203837,,,,,,,,,,,,,,104,estulo,,,,,,198.055,199.272,1,0,0.695,,0,82,82,103,1,pseudoword,0,REAL,FALSA
,,,,,,,,,6789000b08f2703ba0b959b1,001,2025-04-30_12h06.44.473,empathy_intonation_perc,2024.1.4,Win32,59.95203837,,,,,,,,,,,,,,3,disco,,,,,,199.273,200.339,1,0,0.528,,0,83,83,2,1,three_way_cognate,1,REAL,FALSA
,,,,,,,,,6789000b08f2703ba0b959b1,001,2025-04-30_12h06.44.473,empathy_intonation_perc,2024.1.4,Win32,59.95203837,,,,,,,,,,,,,,12,dogma,,,,,,200.339,201.772,0,1,0.898,,0,84,84,11,1,three_way_cognate,1,REAL,FALSA
,,,,,,,,,6789000b08f2703ba0b959b1,001,2025-04-30_12h06.44.473,empathy_intonation_perc,2024.1.4,Win32,59.95203837,,,,,,,,,,,,,,179,suelet,,,,,,201.772,203.005,1,0,0.719,,0,85,85,178,1,pseudoword,0,REAL,FALSA
,,,,,,,,,6789000b08f2703ba0b959b1,001,2025-04-30_12h06.44.473,empathy_intonation_perc,2024.1.4,Win32,59.95203837,,,,,,,,,,,,,,14,aura,,,,,,203.005,204.355,0,1,0.825,,0,86,86,13,1,three_way_cognate,1,REAL,FALSA
,,,,,,,,,6789000b08f2703ba0b959b1,001,2025-04-30_12h06.44.473,empathy_intonation_perc,2024.1.4,Win32,59.95203837,,,,,,,,,,,,,,86,cuenco,,,,,,204.356,206.506,1,0,1.613,,0,87,87,85,1,non_cognate,1,REAL,FALSA
,,,,,,,,,6789000b08f2703ba0b959b1,001,2025-04-30_12h06.44.473,empathy_intonation_perc,2024.1.4,Win32,59.95203837,,,,,,,,,,,,,,23,plural,,,,,,206.506,207.922,0,1,0.874,,0,88,88,22,1,three_way_cognate,1,REAL,FALSA
,,,,,,,,,6789000b08f2703ba0b959b1,001,2025-04-30_12h06.44.473,empathy_intonation_perc,2024.1.4,Win32,59.95203837,,,,,,,,,,,,,,57,regalo,,,,,,207.922,209.422,1,0,0.963,,0,89,89,56,1,non_cognate,1,REAL,FALSA
,,,,,,,,,6789000b08f2703ba0b959b1,001,2025-04-30_12h06.44.473,empathy_intonation_perc,2024.1.4,Win32,59.95203837,,,,,,,,,,,,,,181,gravés,,,,,,209.422,210.522,1,0,0.564,,0,90,90,180,1,pseudoword,0,REAL,FALSA
,,,,,,,,,6789000b08f2703ba0b959b1,001,2025-04-30_12h06.44.473,empathy_intonation_perc,2024.1.4,Win32,59.95203837,,,,,,,,,,,,,,83,hálito,,,,,,210.522,212.021,0,1,0.969,,0,91,91,82,1,non_cognate,1,REAL,FALSA
,,,,,,,,,6789000b08f2703ba0b959b1,001,2025-04-30_12h06.44.473,empathy_intonation_perc,2024.1.4,Win32,59.95203837,,,,,,,,,,,,,,17,clan,,,,,,212.022,213.722,0,1,1.182,,0,92,92,16,1,three_way_cognate,1,REAL,FALSA
,,,,,,,,,6789000b08f2703ba0b959b1,001,2025-04-30_12h06.44.473,empathy_intonation_perc,2024.1.4,Win32,59.95203837,,,,,,,,,,,,,,169,pitis,,,,,,213.722,216.389,0,1,2.146,,0,93,93,168,1,pseudoword,0,REAL,FALSA
,,,,,,,,,6789000b08f2703ba0b959b1,001,2025-04-30_12h06.44.473,empathy_intonation_perc,2024.1.4,Win32,59.95203837,,,,,,,,,,,,,,31,civil,,,,,,216.389,217.772,0,1,0.859,,0,94,94,30,1,two_way_cognate,1,REAL,FALSA
,,,,,,,,,6789000b08f2703ba0b959b1,001,2025-04-30_12h06.44.473,empathy_intonation_perc,2024.1.4,Win32,59.95203837,,,,,,,,,,,,,,167,dobbo,,,,,,217.772,219.389,0,1,1.076,,0,95,95,166,1,pseudoword,0,REAL,FALSA
,,,,,,,,,6789000b08f2703ba0b959b1,001,2025-04-30_12h06.44.473,empathy_intonation_perc,2024.1.4,Win32,59.95203837,,,,,,,,,,,,,,44,editor,,,,,,219.389,220.705,0,1,0.78,,0,96,96,43,1,two_way_cognate,1,REAL,FALSA
,,,,,,,,,6789000b08f2703ba0b959b1,001,2025-04-30_12h06.44.473,empathy_intonation_perc,2024.1.4,Win32,59.95203837,,,,,,,,,,,,,,41,pasta,,,,,,220.705,222.039,0,1,0.817,,0,97,97,40,1,two_way_cognate,1,REAL,FALSA
,,,,,,,,,6789000b08f2703ba0b959b1,001,2025-04-30_12h06.44.473,empathy_intonation_perc,2024.1.4,Win32,59.95203837,,,,,,,,,,,,,,51,listo,,,,,,222.039,223.289,1,0,0.713,,0,98,98,50,1,non_cognate,1,REAL,FALSA
,,,,,,,,,6789000b08f2703ba0b959b1,001,2025-04-30_12h06.44.473,empathy_intonation_perc,2024.1.4,Win32,59.95203837,,,,,,,,,,,,,,76,chocar,,,,,,223.289,224.439,1,0,0.629,,0,99,99,75,1,non_cognate,1,REAL,FALSA
,,,,,,,,,6789000b08f2703ba0b959b1,001,2025-04-30_12h06.44.473,empathy_intonation_perc,2024.1.4,Win32,59.95203837,,,,,,,,,,,,,,30,fiscal,,,,,,224.439,226.005,0,1,1.036,,0,100,100,29,1,two_way_cognate,1,REAL,FALSA
,,,,,,,,,6789000b08f2703ba0b959b1,001,2025-04-30_12h06.44.473,empathy_intonation_perc,2024.1.4,Win32,59.95203837,,,,,,,,,,,,,,128,pelí,,,,,,226.005,227.688,1,0,1.167,,0,101,101,127,1,pseudoword,0,REAL,FALSA
,,,,,,,,,6789000b08f2703ba0b959b1,001,2025-04-30_12h06.44.473,empathy_intonation_perc,2024.1.4,Win32,59.95203837,,,,,,,,,,,,,,162,cengo,,,,,,227.688,229.889,0,1,1.673,,0,102,102,161,1,pseudoword,0,REAL,FALSA
,,,,,,,,,6789000b08f2703ba0b959b1,001,2025-04-30_12h06.44.473,empathy_intonation_perc,2024.1.4,Win32,59.95203837,,,,,,,,,,,,,,183,edioso,,,,,,229.889,231.455,1,0,1.033,,0,103,103,182,1,pseudoword,0,REAL,FALSA
,,,,,,,,,6789000b08f2703ba0b959b1,001,2025-04-30_12h06.44.473,empathy_intonation_perc,2024.1.4,Win32,59.95203837,,,,,,,,,,,,,,124,lobe,,,,,,231.455,232.889,0,1,0.911,,0,104,104,123,1,pseudoword,0,REAL,FALSA
,,,,,,,,,6789000b08f2703ba0b959b1,001,2025-04-30_12h06.44.473,empathy_intonation_perc,2024.1.4,Win32,59.95203837,,,,,,,,,,,,,,164,tecia,,,,,,232.889,235.205,1,0,1.785,,0,105,105,163,1,pseudoword,0,REAL,FALSA
,,,,,,,,,6789000b08f2703ba0b959b1,001,2025-04-30_12h06.44.473,empathy_intonation_perc,2024.1.4,Win32,59.95203837,,,,,,,,,,,,,,92,flecha,,,,,,235.205,237.005,0,1,1.279,,0,106,106,91,1,non_cognate,1,REAL,FALSA
,,,,,,,,,6789000b08f2703ba0b959b1,001,2025-04-30_12h06.44.473,empathy_intonation_perc,2024.1.4,Win32,59.95203837,,,,,,,,,,,,,,168,cobén,,,,,,237.005,238.421,1,0,0.894,,0,107,107,167,1,pseudoword,0,REAL,FALSA
,,,,,,,,,6789000b08f2703ba0b959b1,001,2025-04-30_12h06.44.473,empathy_intonation_perc,2024.1.4,Win32,59.95203837,,,,,,,,,,,,,,84,aviso,,,,,,238.422,239.671,1,0,0.713,,0,108,108,83,1,non_cognate,1,REAL,FALSA
,,,,,,,,,6789000b08f2703ba0b959b1,001,2025-04-30_12h06.44.473,empathy_intonation_perc,2024.1.4,Win32,59.95203837,,,,,,,,,,,,,,125,ceme,,,,,,239.672,240.938,0,1,0.748,,0,109,109,124,1,pseudoword,0,REAL,FALSA
,,,,,,,,,6789000b08f2703ba0b959b1,001,2025-04-30_12h06.44.473,empathy_intonation_perc,2024.1.4,Win32,59.95203837,,,,,,,,,,,,,,114,dibrea,,,,,,240.938,243.388,0,1,1.936,,0,110,110,113,1,pseudoword,0,REAL,FALSA
,,,,,,,,,6789000b08f2703ba0b959b1,001,2025-04-30_12h06.44.473,empathy_intonation_perc,2024.1.4,Win32,59.95203837,,,,,,,,,,,,,,45,total,,,,,,243.388,244.571,0,1,0.663,,0,111,111,44,1,two_way_cognate,1,REAL,FALSA
,,,,,,,,,6789000b08f2703ba0b959b1,001,2025-04-30_12h06.44.473,empathy_intonation_perc,2024.1.4,Win32,59.95203837,,,,,,,,,,,,,,190,asumie,,,,,,244.572,247.805,0,1,2.705,,0,112,112,189,1,pseudoword,0,REAL,FALSA
,,,,,,,,,6789000b08f2703ba0b959b1,001,2025-04-30_12h06.44.473,empathy_intonation_perc,2024.1.4,Win32,59.95203837,,,,,,,,,,,,,,54,tapón,,,,,,247.805,249.438,1,0,1.106,,0,113,113,53,1,non_cognate,1,REAL,FALSA
,,,,,,,,,6789000b08f2703ba0b959b1,001,2025-04-30_12h06.44.473,empathy_intonation_perc,2024.1.4,Win32,59.95203837,,,,,,,,,,,,,,35,aurora,,,,,,249.439,252.055,0,1,2.07,,0,114,114,34,1,two_way_cognate,1,REAL,FALSA
,,,,,,,,,6789000b08f2703ba0b959b1,001,2025-04-30_12h06.44.473,empathy_intonation_perc,2024.1.4,Win32,59.95203837,,,,,,,,,,,,,,173,mibro,,,,,,252.055,254.255,0,1,1.678,,0,115,115,172,1,pseudoword,0,REAL,FALSA
,,,,,,,,,6789000b08f2703ba0b959b1,001,2025-04-30_12h06.44.473,empathy_intonation_perc,2024.1.4,Win32,59.95203837,,,,,,,,,,,,,,99,bugor,,,,,,254.255,255.439,1,0,0.655,,0,116,116,98,1,pseudoword,0,REAL,FALSA
,,,,,,,,,6789000b08f2703ba0b959b1,001,2025-04-30_12h06.44.473,empathy_intonation_perc,2024.1.4,Win32,59.95203837,,,,,,,,,,,,,,145,rúo,,,,,,255.439,256.538,1,0,0.568,,0,117,117,144,1,pseudoword,0,REAL,FALSA
,,,,,,,,,6789000b08f2703ba0b959b1,001,2025-04-30_12h06.44.473,empathy_intonation_perc,2024.1.4,Win32,59.95203837,,,,,,,,,,,,,,101,losco,,,,,,256.538,257.705,0,1,0.649,,0,118,118,100,1,pseudoword,0,REAL,FALSA
,,,,,,,,,6789000b08f2703ba0b959b1,001,2025-04-30_12h06.44.473,empathy_intonation_perc,2024.1.4,Win32,59.95203837,,,,,,,,,,,,,,78,rendir,,,,,,257.705,260.672,0,1,2.433,,0,119,119,77,1,non_cognate,1,REAL,FALSA
,,,,,,,,,6789000b08f2703ba0b959b1,001,2025-04-30_12h06.44.473,empathy_intonation_perc,2024.1.4,Win32,59.95203837,,,,,,,,,,,,,,184,huenos,,,,,,260.672,261.888,1,0,0.666,,0,120,120,183,1,pseudoword,0,REAL,FALSA
,,,,,,,,,6789000b08f2703ba0b959b1,001,2025-04-30_12h06.44.473,empathy_intonation_perc,2024.1.4,Win32,59.95203837,,,,,,,,,,,,,,93,tapa,,,,,,261.888,263.188,1,0,0.78,,0,121,121,92,1,non_cognate,1,REAL,FALSA
,,,,,,,,,6789000b08f2703ba0b959b1,001,2025-04-30_12h06.44.473,empathy_intonation_perc,2024.1.4,Win32,59.95203837,,,,,,,,,,,,,,180,pupica,,,,,,263.189,264.322,1,0,0.594,,0,122,122,179,1,pseudoword,0,REAL,FALSA
,,,,,,,,,6789000b08f2703ba0b959b1,001,2025-04-30_12h06.44.473,empathy_intonation_perc,2024.1.4,Win32,59.95203837,,,,,,,,,,,,,,102,coyo,,,,,,264.322,266.238,0,1,1.391,,0,123,123,101,1,pseudoword,0,REAL,FALSA
,,,,,,,,,6789000b08f2703ba0b959b1,001,2025-04-30_12h06.44.473,empathy_intonation_perc,2024.1.4,Win32,59.95203837,,,,,,,,,,,,,,81,sacar,,,,,,266.238,269.705,1,0,2.948,,0,124,124,80,1,non_cognate,1,REAL,FALSA
,,,,,,,,,6789000b08f2703ba0b959b1,001,2025-04-30_12h06.44.473,empathy_intonation_perc,2024.1.4,Win32,59.95203837,,,,,,,,,,,,,,33,collar,,,,,,269.706,270.955,1,0,0.714,,0,125,125,32,1,two_way_cognate,1,REAL,FALSA
,,,,,,,,,6789000b08f2703ba0b959b1,001,2025-04-30_12h06.44.473,empathy_intonation_perc,2024.1.4,Win32,59.95203837,,,,,,,,,,,,,,176,gripar,,,,,,270.955,272.255,1,0,0.771,,0,126,126,175,1,pseudoword,0,REAL,FALSA
,,,,,,,,,6789000b08f2703ba0b959b1,001,2025-04-30_12h06.44.473,empathy_intonation_perc,2024.1.4,Win32,59.95203837,,,,,,,,,,,,,,131,fuar,,,,,,272.255,273.621,1,0,0.851,,0,127,127,130,1,pseudoword,0,REAL,FALSA
,,,,,,,,,6789000b08f2703ba0b959b1,001,2025-04-30_12h06.44.473,empathy_intonation_perc,2024.1.4,Win32,59.95203837,,,,,,,,,,,,,,85,enorme,,,,,,273.622,275.939,0,1,1.772,,0,128,128,84,1,non_cognate,1,REAL,FALSA
,,,,,,,,,6789000b08f2703ba0b959b1,001,2025-04-30_12h06.44.473,empathy_intonation_perc,2024.1.4,Win32,59.95203837,,,,,,,,,,,,,,28,ardor,,,,,,275.939,277.554,1,0,1.072,,0,129,129,27,1,two_way_cognate,1,REAL,FALSA
,,,,,,,,,6789000b08f2703ba0b959b1,001,2025-04-30_12h06.44.473,empathy_intonation_perc,2024.1.4,Win32,59.95203837,,,,,,,,,,,,,,98,martir,,,,,,277.555,279.104,1,0,1.03,,0,130,130,97,1,pseudoword,0,REAL,FALSA
,,,,,,,,,6789000b08f2703ba0b959b1,001,2025-04-30_12h06.44.473,empathy_intonation_perc,2024.1.4,Win32,59.95203837,,,,,,,,,,,,,,115,lidena,,,,,,279.105,280.588,0,1,0.96,,0,131,131,114,1,pseudoword,0,REAL,FALSA
,,,,,,,,,6789000b08f2703ba0b959b1,001,2025-04-30_12h06.44.473,empathy_intonation_perc,2024.1.4,Win32,59.95203837,,,,,,,,,,,,,,149,emén,,,,,,280.588,283.305,0,1,2.199,,0,132,132,148,1,pseudoword,0,REAL,FALSA
,,,,,,,,,6789000b08f2703ba0b959b1,001,2025-04-30_12h06.44.473,empathy_intonation_perc,2024.1.4,Win32,59.95203837,,,,,,,,,,,,,,26,enigma,,,,,,283.305,284.571,0,1,0.741,,0,133,133,25,1,two_way_cognate,1,REAL,FALSA
,,,,,,,,,6789000b08f2703ba0b959b1,001,2025-04-30_12h06.44.473,empathy_intonation_perc,2024.1.4,Win32,59.95203837,,,,,,,,,,,,,,16,chat,,,,,,284.572,285.905,0,1,0.788,,0,134,134,15,1,three_way_cognate,1,REAL,FALSA
,,,,,,,,,6789000b08f2703ba0b959b1,001,2025-04-30_12h06.44.473,empathy_intonation_perc,2024.1.4,Win32,59.95203837,,,,,,,,,,,,,,5,extra,,,,,,285.905,287.189,0,1,0.755,,0,135,135,4,1,three_way_cognate,1,REAL,FALSA
,,,,,,,,,6789000b08f2703ba0b959b1,001,2025-04-30_12h06.44.473,empathy_intonation_perc,2024.1.4,Win32,59.95203837,,,,,,,,,,,,,,52,blando,,,,,,287.189,289.372,0,1,1.645,,0,136,136,51,1,non_cognate,1,REAL,FALSA
,,,,,,,,,6789000b08f2703ba0b959b1,001,2025-04-30_12h06.44.473,empathy_intonation_perc,2024.1.4,Win32,59.95203837,,,,,,,,,,,,,,50,sierra,,,,,,289.372,290.572,1,0,0.663,,0,137,137,49,1,non_cognate,1,REAL,FALSA
,,,,,,,,,6789000b08f2703ba0b959b1,001,2025-04-30_12h06.44.473,empathy_intonation_perc,2024.1.4,Win32,59.95203837,,,,,,,,,,,,,,80,cuenco,,,,,,290.572,291.755,1,0,0.651,,0,138,138,79,1,non_cognate,1,REAL,FALSA
,,,,,,,,,6789000b08f2703ba0b959b1,001,2025-04-30_12h06.44.473,empathy_intonation_perc,2024.1.4,Win32,59.95203837,,,,,,,,,,,,,,91,equipo,,,,,,291.755,295.671,1,0,3.401,,0,139,139,90,1,non_cognate,1,REAL,FALSA
,,,,,,,,,6789000b08f2703ba0b959b1,001,2025-04-30_12h06.44.473,empathy_intonation_perc,2024.1.4,Win32,59.95203837,,,,,,,,,,,,,,113,nasce,,,,,,295.671,296.955,1,0,0.763,,0,140,140,112,1,pseudoword,0,REAL,FALSA
,,,,,,,,,6789000b08f2703ba0b959b1,001,2025-04-30_12h06.44.473,empathy_intonation_perc,2024.1.4,Win32,59.95203837,,,,,,,,,,,,,,89,muñeca,,,,,,296.955,298.171,1,0,0.697,,0,141,141,88,1,non_cognate,1,REAL,FALSA
,,,,,,,,,6789000b08f2703ba0b959b1,001,2025-04-30_12h06.44.473,empathy_intonation_perc,2024.1.4,Win32,59.95203837,,,,,,,,,,,,,,36,viable,,,,,,298.171,299.888,0,1,1.191,,0,142,142,35,1,two_way_cognate,1,REAL,FALSA
,,,,,,,,,6789000b08f2703ba0b959b1,001,2025-04-30_12h06.44.473,empathy_intonation_perc,2024.1.4,Win32,59.95203837,,,,,,,,,,,,,,68,puñal,,,,,,299.888,301.037,1,0,0.635,,0,143,143,67,1,non_cognate,1,REAL,FALSA
,,,,,,,,,6789000b08f2703ba0b959b1,001,2025-04-30_12h06.44.473,empathy_intonation_perc,2024.1.4,Win32,59.95203837,,,,,,,,,,,,,,55,maldad,,,,,,301.038,302.488,0,1,0.929,,0,144,144,54,1,non_cognate,1,REAL,FALSA
,,,,,,,,,6789000b08f2703ba0b959b1,001,2025-04-30_12h06.44.473,empathy_intonation_perc,2024.1.4,Win32,59.95203837,,,,,,,,,,,,,,7,albino,,,,,,302.488,304.104,0,1,1.077,,0,145,145,6,1,three_way_cognate,1,REAL,FALSA
,,,,,,,,,6789000b08f2703ba0b959b1,001,2025-04-30_12h06.44.473,empathy_intonation_perc,2024.1.4,Win32,59.95203837,,,,,,,,,,,,,,49,teñir,,,,,,304.105,305.455,1,0,0.821,,0,146,146,48,1,non_cognate,1,REAL,FALSA
,,,,,,,,,6789000b08f2703ba0b959b1,001,2025-04-30_12h06.44.473,empathy_intonation_perc,2024.1.4,Win32,59.95203837,,,,,,,,,,,,,,94,forro,,,,,,305.455,308.821,0,1,2.831,,0,147,147,93,1,non_cognate,1,REAL,FALSA
,,,,,,,,,6789000b08f2703ba0b959b1,001,2025-04-30_12h06.44.473,empathy_intonation_perc,2024.1.4,Win32,59.95203837,,,,,,,,,,,,,,150,cricó,,,,,,308.822,310.121,1,0,0.761,,0,148,148,149,1,pseudoword,0,REAL,FALSA
,,,,,,,,,6789000b08f2703ba0b959b1,001,2025-04-30_12h06.44.473,empathy_intonation_perc,2024.1.4,Win32,59.95203837,,,,,,,,,,,,,,156,ozoso,,,,,,310.122,311.521,0,1,0.864,,0,149,149,155,1,pseudoword,0,REAL,FALSA
,,,,,,,,,6789000b08f2703ba0b959b1,001,2025-04-30_12h06.44.473,empathy_intonation_perc,2024.1.4,Win32,59.95203837,,,,,,,,,,,,,,182,desaro,,,,,,311.521,312.704,1,0,0.659,,0,150,150,181,1,pseudoword,0,REAL,FALSA
,,,,,,,,,6789000b08f2703ba0b959b1,001,2025-04-30_12h06.44.473,empathy_intonation_perc,2024.1.4,Win32,59.95203837,,,,,,,,,,,,,,121,barbs,,,,,,312.704,313.921,0,1,0.699,,0,151,151,120,1,pseudoword,0,REAL,FALSA
,,,,,,,,,6789000b08f2703ba0b959b1,001,2025-04-30_12h06.44.473,empathy_intonation_perc,2024.1.4,Win32,59.95203837,,,,,,,,,,,,,,90,venado,,,,,,313.921,315.121,1,0,0.679,,0,152,152,89,1,non_cognate,1,REAL,FALSA
,,,,,,,,,6789000b08f2703ba0b959b1,001,2025-04-30_12h06.44.473,empathy_intonation_perc,2024.1.4,Win32,59.95203837,,,,,,,,,,,,,,135,panté,,,,,,315.121,316.254,1,0,0.612,,0,153,153,134,1,pseudoword,0,REAL,FALSA
,,,,,,,,,6789000b08f2703ba0b959b1,001,2025-04-30_12h06.44.473,empathy_intonation_perc,2024.1.4,Win32,59.95203837,,,,,,,,,,,,,,107,plago,,,,,,316.254,317.921,1,0,1.151,,0,154,154,106,1,pseudoword,0,REAL,FALSA
,,,,,,,,,6789000b08f2703ba0b959b1,001,2025-04-30_12h06.44.473,empathy_intonation_perc,2024.1.4,Win32,59.95203837,,,,,,,,,,,,,,160,fomeó,,,,,,317.921,319.038,1,0,0.59,,0,155,155,159,1,pseudoword,0,REAL,FALSA
,,,,,,,,,6789000b08f2703ba0b959b1,001,2025-04-30_12h06.44.473,empathy_intonation_perc,2024.1.4,Win32,59.95203837,,,,,,,,,,,,,,177,entodo,,,,,,319.038,320.704,1,0,1.13,,0,156,156,176,1,pseudoword,0,REAL,FALSA
,,,,,,,,,6789000b08f2703ba0b959b1,001,2025-04-30_12h06.44.473,empathy_intonation_perc,2024.1.4,Win32,59.95203837,,,,,,,,,,,,,,70,ánimo,,,,,,320.705,322.321,0,1,1.08,,0,157,157,69,1,non_cognate,1,REAL,FALSA
,,,,,,,,,6789000b08f2703ba0b959b1,001,2025-04-30_12h06.44.473,empathy_intonation_perc,2024.1.4,Win32,59.95203837,,,,,,,,,,,,,,27,piano,,,,,,322.322,323.671,0,1,0.814,,0,158,158,26,1,two_way_cognate,1,REAL,FALSA
,,,,,,,,,6789000b08f2703ba0b959b1,001,2025-04-30_12h06.44.473,empathy_intonation_perc,2024.1.4,Win32,59.95203837,,,,,,,,,,,,,,15,test,,,,,,323.671,324.855,0,1,0.654,,0,159,159,14,1,three_way_cognate,1,REAL,FALSA
,,,,,,,,,6789000b08f2703ba0b959b1,001,2025-04-30_12h06.44.473,empathy_intonation_perc,2024.1.4,Win32,59.95203837,,,,,,,,,,,,,,152,prave,,,,,,324.855,327.171,0,1,1.775,,0,160,160,151,1,pseudoword,0,REAL,FALSA
,,,,,,,,,6789000b08f2703ba0b959b1,001,2025-04-30_12h06.44.473,empathy_intonation_perc,2024.1.4,Win32,59.95203837,,,,,,,,,,,,,,154,harvé,,,,,,327.171,329.205,0,1,1.508,,0,161,161,153,1,pseudoword,0,REAL,FALSA
,,,,,,,,,6789000b08f2703ba0b959b1,001,2025-04-30_12h06.44.473,empathy_intonation_perc,2024.1.4,Win32,59.95203837,,,,,,,,,,,,,,56,pico,,,,,,329.205,331.238,0,1,1.498,,0,162,162,55,1,non_cognate,1,REAL,FALSA
,,,,,,,,,6789000b08f2703ba0b959b1,001,2025-04-30_12h06.44.473,empathy_intonation_perc,2024.1.4,Win32,59.95203837,,,,,,,,,,,,,,74,ala,,,,,,331.239,332.321,0,1,0.553,,0,163,163,73,1,non_cognate,1,REAL,FALSA
,,,,,,,,,6789000b08f2703ba0b959b1,001,2025-04-30_12h06.44.473,empathy_intonation_perc,2024.1.4,Win32,59.95203837,,,,,,,,,,,,,,123,arane,,,,,,332.321,333.904,0,1,1.065,,0,164,164,122,1,pseudoword,0,REAL,FALSA
,,,,,,,,,6789000b08f2703ba0b959b1,001,2025-04-30_12h06.44.473,empathy_intonation_perc,2024.1.4,Win32,59.95203837,,,,,,,,,,,,,,109,laras,,,,,,333.905,335.737,1,0,1.3,,0,165,165,108,1,pseudoword,0,REAL,FALSA
,,,,,,,,,6789000b08f2703ba0b959b1,001,2025-04-30_12h06.44.473,empathy_intonation_perc,2024.1.4,Win32,59.95203837,,,,,,,,,,,,,,10,drama,,,,,,335.738,337.105,0,1,0.839,,0,166,166,9,1,three_way_cognate,1,REAL,FALSA
,,,,,,,,,6789000b08f2703ba0b959b1,001,2025-04-30_12h06.44.473,empathy_intonation_perc,2024.1.4,Win32,59.95203837,,,,,,,,,,,,,,110,densó,,,,,,337.105,338.304,1,0,0.664,,0,167,167,109,1,pseudoword,0,REAL,FALSA
,,,,,,,,,6789000b08f2703ba0b959b1,001,2025-04-30_12h06.44.473,empathy_intonation_perc,2024.1.4,Win32,59.95203837,,,,,,,,,,,,,,144,diroco,,,,,,338.304,339.988,0,1,1.161,,0,168,168,143,1,pseudoword,0,REAL,FALSA
,,,,,,,,,6789000b08f2703ba0b959b1,001,2025-04-30_12h06.44.473,empathy_intonation_perc,2024.1.4,Win32,59.95203837,,,,,,,,,,,,,,105,peniz,,,,,,339.988,341.288,0,1,0.753,,0,169,169,104,1,pseudoword,0,REAL,FALSA
,,,,,,,,,6789000b08f2703ba0b959b1,001,2025-04-30_12h06.44.473,empathy_intonation_perc,2024.1.4,Win32,59.95203837,,,,,,,,,,,,,,106,diebro,,,,,,341.288,342.438,0,1,0.629,,0,170,170,105,1,pseudoword,0,REAL,FALSA
,,,,,,,,,6789000b08f2703ba0b959b1,001,2025-04-30_12h06.44.473,empathy_intonation_perc,2024.1.4,Win32,59.95203837,,,,,,,,,,,,,,24,retina,,,,,,342.438,343.638,0,1,0.667,,0,171,171,23,1,three_way_cognate,1,REAL,FALSA
,,,,,,,,,6789000b08f2703ba0b959b1,001,2025-04-30_12h06.44.473,empathy_intonation_perc,2024.1.4,Win32,59.95203837,,,,,,,,,,,,,,139,sasos,,,,,,343.638,344.754,0,1,0.579,,0,172,172,138,1,pseudoword,0,REAL,FALSA
,,,,,,,,,6789000b08f2703ba0b959b1,001,2025-04-30_12h06.44.473,empathy_intonation_perc,2024.1.4,Win32,59.95203837,,,,,,,,,,,,,,29,clamor,,,,,,344.754,345.821,0,1,0.551,,0,173,173,28,1,two_way_cognate,1,REAL,FALSA
,,,,,,,,,6789000b08f2703ba0b959b1,001,2025-04-30_12h06.44.473,empathy_intonation_perc,2024.1.4,Win32,59.95203837,,,,,,,,,,,,,,72,rostro,,,,,,345.822,347.138,0,1,0.779,,0,174,174,71,1,non_cognate,1,REAL,FALSA
,,,,,,,,,6789000b08f2703ba0b959b1,001,2025-04-30_12h06.44.473,empathy_intonation_perc,2024.1.4,Win32,59.95203837,,,,,,,,,,,,,,129,vinzó,,,,,,347.138,348.254,1,0,0.579,,0,175,175,128,1,pseudoword,0,REAL,FALSA
,,,,,,,,,6789000b08f2703ba0b959b1,001,2025-04-30_12h06.44.473,empathy_intonation_perc,2024.1.4,Win32,59.95203837,,,,,,,,,,,,,,116,grigir,,,,,,348.255,349.604,0,1,0.815,,0,176,176,115,1,pseudoword,0,REAL,FALSA
,,,,,,,,,6789000b08f2703ba0b959b1,001,2025-04-30_12h06.44.473,empathy_intonation_perc,2024.1.4,Win32,59.95203837,,,,,,,,,,,,,,108,jauda,,,,,,349.604,350.804,0,1,0.676,,0,177,177,107,1,pseudoword,0,REAL,FALSA
,,,,,,,,,6789000b08f2703ba0b959b1,001,2025-04-30_12h06.44.473,empathy_intonation_perc,2024.1.4,Win32,59.95203837,,,,,,,,,,,,,,117,morrá,,,,,,350.804,352.038,1,0,0.709,,0,178,178,116,1,pseudoword,0,REAL,FALSA
,,,,,,,,,6789000b08f2703ba0b959b1,001,2025-04-30_12h06.44.473,empathy_intonation_perc,2024.1.4,Win32,59.95203837,,,,,,,,,,,,,,189,medium,,,,,,352.038,353.204,0,1,0.631,,0,179,179,188,1,pseudoword,0,REAL,FALSA
,,,,,,,,,6789000b08f2703ba0b959b1,001,2025-04-30_12h06.44.473,empathy_intonation_perc,2024.1.4,Win32,59.95203837,,,,,,,,,,,,,,159,trcia,,,,,,353.204,356.371,0,1,2.643,,0,180,180,158,1,pseudoword,0,REAL,FALSA
,,,,,,,,,6789000b08f2703ba0b959b1,001,2025-04-30_12h06.44.473,empathy_intonation_perc,2024.1.4,Win32,59.95203837,,,,,,,,,,,,,,140,chorde,,,,,,356.372,357.837,1,0,0.936,,0,181,181,139,1,pseudoword,0,REAL,FALSA
,,,,,,,,,6789000b08f2703ba0b959b1,001,2025-04-30_12h06.44.473,empathy_intonation_perc,2024.1.4,Win32,59.95203837,,,,,,,,,,,,,,158,babrá,,,,,,357.837,359.004,1,0,0.645,,0,182,182,157,1,pseudoword,0,REAL,FALSA
,,,,,,,,,6789000b08f2703ba0b959b1,001,2025-04-30_12h06.44.473,empathy_intonation_perc,2024.1.4,Win32,59.95203837,,,,,,,,,,,,,,6,horror,,,,,,359.004,361.271,0,1,1.743,,0,183,183,5,1,three_way_cognate,1,REAL,FALSA
,,,,,,,,,6789000b08f2703ba0b959b1,001,2025-04-30_12h06.44.473,empathy_intonation_perc,2024.1.4,Win32,59.95203837,,,,,,,,,,,,,,20,trauma,,,,,,361.271,362.537,0,1,0.751,,0,184,184,19,1,three_way_cognate,1,REAL,FALSA
,,,,,,,,,6789000b08f2703ba0b959b1,001,2025-04-30_12h06.44.473,empathy_intonation_perc,2024.1.4,Win32,59.95203837,,,,,,,,,,,,,,103,vueras,,,,,,362.537,363.888,1,0,0.833,,0,185,185,102,1,pseudoword,0,REAL,FALSA
,,,,,,,,,6789000b08f2703ba0b959b1,001,2025-04-30_12h06.44.473,empathy_intonation_perc,2024.1.4,Win32,59.95203837,,,,,,,,,,,,,,38,halo,,,,,,363.888,365.204,0,1,0.772,,0,186,186,37,1,two_way_cognate,1,REAL,FALSA
,,,,,,,,,6789000b08f2703ba0b959b1,001,2025-04-30_12h06.44.473,empathy_intonation_perc,2024.1.4,Win32,59.95203837,,,,,,,,,,,,,,79,suelo,,,,,,365.204,367.154,1,0,1.433,,0,187,187,78,1,non_cognate,1,REAL,FALSA
,,,,,,,,,6789000b08f2703ba0b959b1,001,2025-04-30_12h06.44.473,empathy_intonation_perc,2024.1.4,Win32,59.95203837,,,,,,,,,,,,,,175,tradía,,,,,,367.154,368.388,1,0,0.705,,0,188,188,174,1,pseudoword,0,REAL,FALSA
,,,,,,,,,6789000b08f2703ba0b959b1,001,2025-04-30_12h06.44.473,empathy_intonation_perc,2024.1.4,Win32,59.95203837,,,,,,,,,,,,,,170,diabo,,,,,,368.388,370.737,0,1,1.809,,0,189,189,169,1,pseudoword,0,REAL,FALSA
,,,,,,,,,6789000b08f2703ba0b959b1,001,2025-04-30_12h06.44.473,empathy_intonation_perc,2024.1.4,Win32,59.95203837,,,,,,,,,,,,,,151,prías,,,,,,370.738,371.954,1,0,0.678,,0,190,190,150,1,pseudoword,0,REAL,FALSA
,,,,,,,,,6789000b08f2703ba0b959b1,001,2025-04-30_12h06.44.473,empathy_intonation_perc,2024.1.4,Win32,59.95203837,,,,,,,,,,,,,,157,seled,,,,,,371.954,373.871,0,1,1.397,,0,191,191,156,1,pseudoword,0,REAL,FALSA
