lextale_instructions.started,lextale_instructions.stopped,lextale_instructions_loop.thisRepN,lextale_instructions_loop.thisTrialN,lextale_instructions_loop.thisN,lextale_instructions_loop.thisIndex,lextale_instructions_loop.ran,instructions_text,continue_text,participant,session,date,expName,psychopyVersion,OS,frameRate,lextale_practice.started,lextale_practice.stopped,key_resp_lextale_practice.keys,key_resp_lextale_practice.corr,key_resp_lextale_practice.rt,key_resp_lextale_practice.duration,lextale_practice_feedback.started,lextale_practice_feedback.stopped,lextale_practice_trials.thisRepN,lextale_practice_trials.thisTrialN,lextale_practice_trials.thisN,lextale_practice_trials.thisIndex,lextale_practice_trials.ran,stim,word,correct_response,prac_button_real,prac_button_false,lextale_check.started,lextale_check.stopped,lextale_trial.started,lextale_trial.stopped,key_resp_lextale_trial.keys,key_resp_lextale_trial.corr,key_resp_lextale_trial.rt,key_resp_lextale_trial.duration,lextail_trials.thisRepN,lextail_trials.thisTrialN,lextail_trials.thisN,lextail_trials.thisIndex,lextail_trials.ran,type,correct_reponse,button_real,button_false
0.0082,4.849,0,0,0,0,1,"Este es un test de vocabulario en español. 
  
  A continuación vas a ver 90 secuencias de letras que parecen 'españolas'.
  
  Solo algunas de ellas son palabras de verdad.",(presiona la barra espaciadora para continuar),anna,001,2024-06-20_08h25.48.330,empathy_intonation_perc,2024.1.4,Linux aarch64,59.88023952,,,,,,,,,,,,,,,,,,,,,,,,,,,,,,,,,,,
4.8518,6.4997,0,1,1,1,1,"Por favor, señala las palabras que tú conoces (aquellas que estás convencido que son palabras españolas, incluso aunque no seas capaz de dar el significado preciso).",(presiona la barra espaciadora para continuar),anna,001,2024-06-20_08h25.48.330,empathy_intonation_perc,2024.1.4,Linux aarch64,59.88023952,,,,,,,,,,,,,,,,,,,,,,,,,,,,,,,,,,,
6.5008,8.838,0,2,2,2,1,Pero cuidado: los errores se penalizan. Por eso no tiene sentido tratar de incrementar tu puntuación marcando como reales palabras que nunca has visto.,(presiona la barra espaciadora para continuar),anna,001,2024-06-20_08h25.48.330,empathy_intonation_perc,2024.1.4,Linux aarch64,59.88023952,,,,,,,,,,,,,,,,,,,,,,,,,,,,,,,,,,,
8.8389,11.0569,0,3,3,3,1,"Presiona la tecla 1 si piensas que es una palabra real y la tecla 
  0 si piensas que es una palabra falsa. 
  
  Vamos a practicar un poco...",(presiona la barra espaciadora para continuar),anna,001,2024-06-20_08h25.48.330,empathy_intonation_perc,2024.1.4,Linux aarch64,59.88023952,,,,,,,,,,,,,,,,,,,,,,,,,,,,,,,,,,,
,,,,,,,,,anna,001,2024-06-20_08h25.48.330,empathy_intonation_perc,2024.1.4,Linux aarch64,59.88023952,11.0639,14.2465,0,1,2.6393,,14.258,15.2475,0,0,0,0,1,0,depiste,0,REAL,FALSA,,,,,,,,,,,,,,,,,
,,,,,,,,,anna,001,2024-06-20_08h25.48.330,empathy_intonation_perc,2024.1.4,Linux aarch64,59.88023952,15.2494,16.8495,1,1,1.0591,,16.851,17.8495,0,1,1,1,1,0,sí,1,REAL,FALSA,,,,,,,,,,,,,,,,,
,,,,,,,,,anna,001,2024-06-20_08h25.48.330,empathy_intonation_perc,2024.1.4,Linux aarch64,59.88023952,17.8518,19.8858,0,1,1.4934,,19.8861,20.8892,0,2,2,2,1,0,coné,0,REAL,FALSA,,,,,,,,,,,,,,,,,
,,,,,,,,,anna,001,2024-06-20_08h25.48.330,empathy_intonation_perc,2024.1.4,Linux aarch64,59.88023952,20.9023,22.7723,0,1,1.3388,,22.7736,23.7616,0,3,3,3,1,0,calpar,0,REAL,FALSA,,,,,,,,,,,,,,,,,
,,,,,,,,,anna,001,2024-06-20_08h25.48.330,empathy_intonation_perc,2024.1.4,Linux aarch64,59.88023952,23.7631,25.293,0,1,0.9969,,25.2931,26.2961,0,4,4,4,1,0,joten,0,REAL,FALSA,,,,,,,,,,,,,,,,,
,,,,,,,,,anna,001,2024-06-20_08h25.48.330,empathy_intonation_perc,2024.1.4,Linux aarch64,59.88023952,26.3099,28.2978,0,0,1.4598,,28.2997,29.2998,0,5,5,5,1,0,sacapuntas,1,REAL,FALSA,,,,,,,,,,,,,,,,,
,,,,,,,,,anna,001,2024-06-20_08h25.48.330,empathy_intonation_perc,2024.1.4,Linux aarch64,59.88023952,29.302,31.2013,0,1,1.3755,,31.2024,32.2057,0,6,6,6,1,0,priba,0,REAL,FALSA,,,,,,,,,,,,,,,,,
,,,,,,,,,anna,001,2024-06-20_08h25.48.330,empathy_intonation_perc,2024.1.4,Linux aarch64,59.88023952,32.2271,34.0753,0,1,1.3147,,34.0755,35.0755,0,7,7,7,1,0,pelasula,0,REAL,FALSA,,,,,,,,,,,,,,,,,
,,,,,,,,,anna,001,2024-06-20_08h25.48.330,empathy_intonation_perc,2024.1.4,Linux aarch64,59.88023952,35.0787,36.2418,1,1,0.6258,,36.242,37.2448,0,8,8,8,1,0,bien,1,REAL,FALSA,,,,,,,,,,,,,,,,,
,,,,,,,,,anna,001,2024-06-20_08h25.48.330,empathy_intonation_perc,2024.1.4,Linux aarch64,59.88023952,37.2491,38.1109,0,0,0.3257,,38.111,39.1137,0,9,9,9,1,0,casa,1,REAL,FALSA,,,,,,,,,,,,,,,,,
,,,,,,,,,anna,001,2024-06-20_08h25.48.330,empathy_intonation_perc,2024.1.4,Linux aarch64,59.88023952,39.1147,40.583,1,0,0.9344,,40.5832,41.5862,0,10,10,10,1,0,lejo,0,REAL,FALSA,,,,,,,,,,,,,,,,,
,,,,,,,,,anna,001,2024-06-20_08h25.48.330,empathy_intonation_perc,2024.1.4,Linux aarch64,59.88023952,41.5922,43.5694,1,0,1.4462,,43.5697,44.572,0,11,11,11,1,0,pretantas,0,REAL,FALSA,,,,,,,,,,,,,,,,,
,,,,,,,,,anna,001,2024-06-20_08h25.48.330,empathy_intonation_perc,2024.1.4,Linux aarch64,59.88023952,,,,,,,,,,,,,,,,,,,44.5737,46.6578,,,,,,,,,,,,,,,
,,,,,,,,,anna,001,2024-06-20_08h25.48.330,empathy_intonation_perc,2024.1.4,Linux aarch64,59.88023952,,,,,,,,,,,,,,92,flecha,,,,,,46.6879,49.3783,1,0,2.1663,,0,0,0,91,1,non_cognate,1,REAL,FALSA
,,,,,,,,,anna,001,2024-06-20_08h25.48.330,empathy_intonation_perc,2024.1.4,Linux aarch64,59.88023952,,,,,,,,,,,,,,186,rizate,,,,,,49.3815,51.5857,0,1,1.6626,,0,1,1,185,1,pseudoword,0,REAL,FALSA
,,,,,,,,,anna,001,2024-06-20_08h25.48.330,empathy_intonation_perc,2024.1.4,Linux aarch64,59.88023952,,,,,,,,,,,,,,122,boñaz,,,,,,51.5867,54.1178,0,1,1.9942,,0,2,2,121,1,pseudoword,0,REAL,FALSA
,,,,,,,,,anna,001,2024-06-20_08h25.48.330,empathy_intonation_perc,2024.1.4,Linux aarch64,59.88023952,,,,,,,,,,,,,,120,mauja,,,,,,54.1309,55.5198,0,1,0.8552,,0,3,3,119,1,pseudoword,0,REAL,FALSA
,,,,,,,,,anna,001,2024-06-20_08h25.48.330,empathy_intonation_perc,2024.1.4,Linux aarch64,59.88023952,,,,,,,,,,,,,,129,vinzó,,,,,,55.5205,57.0558,0,1,1.0099,,0,4,4,128,1,pseudoword,0,REAL,FALSA
,,,,,,,,,anna,001,2024-06-20_08h25.48.330,empathy_intonation_perc,2024.1.4,Linux aarch64,59.88023952,,,,,,,,,,,,,,188,amplir,,,,,,57.0567,58.5086,1,0,0.9301,,0,5,5,187,1,pseudoword,0,REAL,FALSA
,,,,,,,,,anna,001,2024-06-20_08h25.48.330,empathy_intonation_perc,2024.1.4,Linux aarch64,59.88023952,,,,,,,,,,,,,,180,pupica,,,,,,58.5096,60.677,0,1,1.6262,,0,6,6,179,1,pseudoword,0,REAL,FALSA
,,,,,,,,,anna,001,2024-06-20_08h25.48.330,empathy_intonation_perc,2024.1.4,Linux aarch64,59.88023952,,,,,,,,,,,,,,156,ozoso,,,,,,60.6777,61.9972,0,1,0.7958,,0,7,7,155,1,pseudoword,0,REAL,FALSA
,,,,,,,,,anna,001,2024-06-20_08h25.48.330,empathy_intonation_perc,2024.1.4,Linux aarch64,59.88023952,,,,,,,,,,,,,,57,regalo,,,,,,61.9986,63.3006,1,0,0.7802,,0,8,8,56,1,non_cognate,1,REAL,FALSA
,,,,,,,,,anna,001,2024-06-20_08h25.48.330,empathy_intonation_perc,2024.1.4,Linux aarch64,59.88023952,,,,,,,,,,,,,,18,altar,,,,,,63.304,64.5207,1,0,0.6855,,0,9,9,17,1,three_way_cognate,1,REAL,FALSA
,,,,,,,,,anna,001,2024-06-20_08h25.48.330,empathy_intonation_perc,2024.1.4,Linux aarch64,59.88023952,,,,,,,,,,,,,,7,albino,,,,,,64.5215,66.4379,1,0,1.3704,,0,10,10,6,1,three_way_cognate,1,REAL,FALSA
,,,,,,,,,anna,001,2024-06-20_08h25.48.330,empathy_intonation_perc,2024.1.4,Linux aarch64,59.88023952,,,,,,,,,,,,,,79,suelo,,,,,,66.44,67.6894,1,0,0.7097,,0,11,11,78,1,non_cognate,1,REAL,FALSA
,,,,,,,,,anna,001,2024-06-20_08h25.48.330,empathy_intonation_perc,2024.1.4,Linux aarch64,59.88023952,,,,,,,,,,,,,,111,monue,,,,,,67.6903,69.0262,0,1,0.7994,,0,12,12,110,1,pseudoword,0,REAL,FALSA
,,,,,,,,,anna,001,2024-06-20_08h25.48.330,empathy_intonation_perc,2024.1.4,Linux aarch64,59.88023952,,,,,,,,,,,,,,21,hotel,,,,,,69.0271,70.258,1,0,0.6923,,0,13,13,20,1,three_way_cognate,1,REAL,FALSA
,,,,,,,,,anna,001,2024-06-20_08h25.48.330,empathy_intonation_perc,2024.1.4,Linux aarch64,59.88023952,,,,,,,,,,,,,,138,tator,,,,,,70.2592,71.7649,0,1,0.9779,,0,14,14,137,1,pseudoword,0,REAL,FALSA
,,,,,,,,,anna,001,2024-06-20_08h25.48.330,empathy_intonation_perc,2024.1.4,Linux aarch64,59.88023952,,,,,,,,,,,,,,25,vigor,,,,,,71.7661,74.2662,1,0,1.9643,,0,15,15,24,1,two_way_cognate,1,REAL,FALSA
,,,,,,,,,anna,001,2024-06-20_08h25.48.330,empathy_intonation_perc,2024.1.4,Linux aarch64,59.88023952,,,,,,,,,,,,,,142,parre,,,,,,74.2789,75.5858,0,1,0.7716,,0,16,16,141,1,pseudoword,0,REAL,FALSA
,,,,,,,,,anna,001,2024-06-20_08h25.48.330,empathy_intonation_perc,2024.1.4,Linux aarch64,59.88023952,,,,,,,,,,,,,,145,rúo,,,,,,75.5868,77.153,0,1,1.0258,,0,17,17,144,1,pseudoword,0,REAL,FALSA
,,,,,,,,,anna,001,2024-06-20_08h25.48.330,empathy_intonation_perc,2024.1.4,Linux aarch64,59.88023952,,,,,,,,,,,,,,36,viable,,,,,,77.1545,79.3044,1,0,1.6198,,0,18,18,35,1,two_way_cognate,1,REAL,FALSA
,,,,,,,,,anna,001,2024-06-20_08h25.48.330,empathy_intonation_perc,2024.1.4,Linux aarch64,59.88023952,,,,,,,,,,,,,,43,honor,,,,,,79.3053,83.5942,1,0,3.767,,0,19,19,42,1,two_way_cognate,1,REAL,FALSA
,,,,,,,,,anna,001,2024-06-20_08h25.48.330,empathy_intonation_perc,2024.1.4,Linux aarch64,59.88023952,,,,,,,,,,,,,,27,piano,,,,,,83.6079,84.8787,1,0,0.749,,0,20,20,26,1,two_way_cognate,1,REAL,FALSA
,,,,,,,,,anna,001,2024-06-20_08h25.48.330,empathy_intonation_perc,2024.1.4,Linux aarch64,59.88023952,,,,,,,,,,,,,,154,harvé,,,,,,84.8797,86.2173,0,1,0.8028,,0,21,21,153,1,pseudoword,0,REAL,FALSA
,,,,,,,,,anna,001,2024-06-20_08h25.48.330,empathy_intonation_perc,2024.1.4,Linux aarch64,59.88023952,,,,,,,,,,,,,,182,desaro,,,,,,86.2182,87.5688,0,1,0.8032,,0,22,22,181,1,pseudoword,0,REAL,FALSA
,,,,,,,,,anna,001,2024-06-20_08h25.48.330,empathy_intonation_perc,2024.1.4,Linux aarch64,59.88023952,,,,,,,,,,,,,,3,disco,,,,,,87.5725,88.9858,1,0,0.8793,,0,23,23,2,1,three_way_cognate,1,REAL,FALSA
,,,,,,,,,anna,001,2024-06-20_08h25.48.330,empathy_intonation_perc,2024.1.4,Linux aarch64,59.88023952,,,,,,,,,,,,,,157,seled,,,,,,88.9893,90.2879,0,1,0.7657,,0,24,24,156,1,pseudoword,0,REAL,FALSA
,,,,,,,,,anna,001,2024-06-20_08h25.48.330,empathy_intonation_perc,2024.1.4,Linux aarch64,59.88023952,,,,,,,,,,,,,,146,gió,,,,,,90.2888,91.5886,0,1,0.7653,,0,25,25,145,1,pseudoword,0,REAL,FALSA
,,,,,,,,,anna,001,2024-06-20_08h25.48.330,empathy_intonation_perc,2024.1.4,Linux aarch64,59.88023952,,,,,,,,,,,,,,134,molor,,,,,,91.5895,94.0117,0,1,1.8817,,0,26,26,133,1,pseudoword,0,REAL,FALSA
,,,,,,,,,anna,001,2024-06-20_08h25.48.330,empathy_intonation_perc,2024.1.4,Linux aarch64,59.88023952,,,,,,,,,,,,,,162,cengo,,,,,,94.0132,95.3263,0,1,0.7786,,0,27,27,161,1,pseudoword,0,REAL,FALSA
,,,,,,,,,anna,001,2024-06-20_08h25.48.330,empathy_intonation_perc,2024.1.4,Linux aarch64,59.88023952,,,,,,,,,,,,,,37,torso,,,,,,95.3272,97.1982,1,0,1.3397,,0,28,28,36,1,two_way_cognate,1,REAL,FALSA
,,,,,,,,,anna,001,2024-06-20_08h25.48.330,empathy_intonation_perc,2024.1.4,Linux aarch64,59.88023952,,,,,,,,,,,,,,49,teñir,,,,,,97.2005,98.4475,0,1,0.7111,,0,29,29,48,1,non_cognate,1,REAL,FALSA
,,,,,,,,,anna,001,2024-06-20_08h25.48.330,empathy_intonation_perc,2024.1.4,Linux aarch64,59.88023952,,,,,,,,,,,,,,84,aviso,,,,,,98.449,99.9325,0,1,0.9385,,0,30,30,83,1,non_cognate,1,REAL,FALSA
,,,,,,,,,anna,001,2024-06-20_08h25.48.330,empathy_intonation_perc,2024.1.4,Linux aarch64,59.88023952,,,,,,,,,,,,,,65,guerra,,,,,,99.9352,101.2377,1,0,0.7675,,0,31,31,64,1,non_cognate,1,REAL,FALSA
,,,,,,,,,anna,001,2024-06-20_08h25.48.330,empathy_intonation_perc,2024.1.4,Linux aarch64,59.88023952,,,,,,,,,,,,,,165,chote,,,,,,101.2391,102.7562,0,1,0.9838,,0,32,32,164,1,pseudoword,0,REAL,FALSA
,,,,,,,,,anna,001,2024-06-20_08h25.48.330,empathy_intonation_perc,2024.1.4,Linux aarch64,59.88023952,,,,,,,,,,,,,,34,actor,,,,,,102.7571,104.2246,1,0,0.9334,,0,33,33,33,1,two_way_cognate,1,REAL,FALSA
,,,,,,,,,anna,001,2024-06-20_08h25.48.330,empathy_intonation_perc,2024.1.4,Linux aarch64,59.88023952,,,,,,,,,,,,,,147,alla,,,,,,104.2274,106.1615,0,1,1.3977,,0,34,34,146,1,pseudoword,0,REAL,FALSA
,,,,,,,,,anna,001,2024-06-20_08h25.48.330,empathy_intonation_perc,2024.1.4,Linux aarch64,59.88023952,,,,,,,,,,,,,,13,plan,,,,,,106.1627,107.4601,1,0,0.752,,0,35,35,12,1,three_way_cognate,1,REAL,FALSA
,,,,,,,,,anna,001,2024-06-20_08h25.48.330,empathy_intonation_perc,2024.1.4,Linux aarch64,59.88023952,,,,,,,,,,,,,,86,cuenco,,,,,,107.4618,108.9129,0,1,0.9073,,0,36,36,85,1,non_cognate,1,REAL,FALSA
,,,,,,,,,anna,001,2024-06-20_08h25.48.330,empathy_intonation_perc,2024.1.4,Linux aarch64,59.88023952,,,,,,,,,,,,,,184,huenos,,,,,,108.9149,110.3814,0,1,0.9437,,0,37,37,183,1,pseudoword,0,REAL,FALSA
,,,,,,,,,anna,001,2024-06-20_08h25.48.330,empathy_intonation_perc,2024.1.4,Linux aarch64,59.88023952,,,,,,,,,,,,,,128,pelí,,,,,,110.3827,114.4588,1,0,3.5501,,0,38,38,127,1,pseudoword,0,REAL,FALSA
,,,,,,,,,anna,001,2024-06-20_08h25.48.330,empathy_intonation_perc,2024.1.4,Linux aarch64,59.88023952,,,,,,,,,,,,,,192,próces,,,,,,114.4709,119.8011,1,0,4.8035,,0,39,39,191,1,pseudoword,0,REAL,FALSA
,,,,,,,,,anna,001,2024-06-20_08h25.48.330,empathy_intonation_perc,2024.1.4,Linux aarch64,59.88023952,,,,,,,,,,,,,,89,muñeca,,,,,,119.8111,121.1997,1,0,0.8629,,0,40,40,88,1,non_cognate,1,REAL,FALSA
,,,,,,,,,anna,001,2024-06-20_08h25.48.330,empathy_intonation_perc,2024.1.4,Linux aarch64,59.88023952,,,,,,,,,,,,,,126,tobre,,,,,,121.2005,122.6156,0,1,0.8816,,0,41,41,125,1,pseudoword,0,REAL,FALSA
,,,,,,,,,anna,001,2024-06-20_08h25.48.330,empathy_intonation_perc,2024.1.4,Linux aarch64,59.88023952,,,,,,,,,,,,,,31,civil,,,,,,122.619,124.0373,1,0,0.8814,,0,42,42,30,1,two_way_cognate,1,REAL,FALSA
,,,,,,,,,anna,001,2024-06-20_08h25.48.330,empathy_intonation_perc,2024.1.4,Linux aarch64,59.88023952,,,,,,,,,,,,,,112,samón,,,,,,124.0401,125.84,1,0,1.2661,,0,43,43,111,1,pseudoword,0,REAL,FALSA
,,,,,,,,,anna,001,2024-06-20_08h25.48.330,empathy_intonation_perc,2024.1.4,Linux aarch64,59.88023952,,,,,,,,,,,,,,174,pabea,,,,,,125.8409,127.2246,0,1,0.8444,,0,44,44,173,1,pseudoword,0,REAL,FALSA
,,,,,,,,,anna,001,2024-06-20_08h25.48.330,empathy_intonation_perc,2024.1.4,Linux aarch64,59.88023952,,,,,,,,,,,,,,70,ánimo,,,,,,127.2283,128.6238,1,0,0.8574,,0,45,45,69,1,non_cognate,1,REAL,FALSA
,,,,,,,,,anna,001,2024-06-20_08h25.48.330,empathy_intonation_perc,2024.1.4,Linux aarch64,59.88023952,,,,,,,,,,,,,,103,vueras,,,,,,128.6247,130.1441,0,1,0.9836,,0,46,46,102,1,pseudoword,0,REAL,FALSA
,,,,,,,,,anna,001,2024-06-20_08h25.48.330,empathy_intonation_perc,2024.1.4,Linux aarch64,59.88023952,,,,,,,,,,,,,,91,equipo,,,,,,130.1454,131.3977,1,0,0.7055,,0,47,47,90,1,non_cognate,1,REAL,FALSA
,,,,,,,,,anna,001,2024-06-20_08h25.48.330,empathy_intonation_perc,2024.1.4,Linux aarch64,59.88023952,,,,,,,,,,,,,,118,bará,,,,,,131.3985,132.77,0,1,0.8504,0.0006,0,48,48,117,1,pseudoword,0,REAL,FALSA
,,,,,,,,,anna,001,2024-06-20_08h25.48.330,empathy_intonation_perc,2024.1.4,Linux aarch64,59.88023952,,,,,,,,,,,,,,119,esís,,,,,,132.7727,134.3846,0,1,1.0774,,0,49,49,118,1,pseudoword,0,REAL,FALSA
,,,,,,,,,anna,001,2024-06-20_08h25.48.330,empathy_intonation_perc,2024.1.4,Linux aarch64,59.88023952,,,,,,,,,,,,,,88,percha,,,,,,134.3865,135.8017,0,1,0.8772,,0,50,50,87,1,non_cognate,1,REAL,FALSA
,,,,,,,,,anna,001,2024-06-20_08h25.48.330,empathy_intonation_perc,2024.1.4,Linux aarch64,59.88023952,,,,,,,,,,,,,,125,ceme,,,,,,135.8036,137.1078,0,1,0.7855,,0,51,51,124,1,pseudoword,0,REAL,FALSA
,,,,,,,,,anna,001,2024-06-20_08h25.48.330,empathy_intonation_perc,2024.1.4,Linux aarch64,59.88023952,,,,,,,,,,,,,,29,clamor,,,,,,137.1087,138.5221,0,1,0.8739,,0,52,52,28,1,two_way_cognate,1,REAL,FALSA
,,,,,,,,,anna,001,2024-06-20_08h25.48.330,empathy_intonation_perc,2024.1.4,Linux aarch64,59.88023952,,,,,,,,,,,,,,33,collar,,,,,,138.5274,140.7752,1,0,1.7145,,0,53,53,32,1,two_way_cognate,1,REAL,FALSA
,,,,,,,,,anna,001,2024-06-20_08h25.48.330,empathy_intonation_perc,2024.1.4,Linux aarch64,59.88023952,,,,,,,,,,,,,,50,sierra,,,,,,140.7761,142.3766,0,1,1.0633,,0,54,54,49,1,non_cognate,1,REAL,FALSA
,,,,,,,,,anna,001,2024-06-20_08h25.48.330,empathy_intonation_perc,2024.1.4,Linux aarch64,59.88023952,,,,,,,,,,,,,,164,tecia,,,,,,142.3777,143.68,0,1,0.7807,,0,55,55,163,1,pseudoword,0,REAL,FALSA
,,,,,,,,,anna,001,2024-06-20_08h25.48.330,empathy_intonation_perc,2024.1.4,Linux aarch64,59.88023952,,,,,,,,,,,,,,176,gripar,,,,,,143.681,145.3001,1,0,1.0809,,0,56,56,175,1,pseudoword,0,REAL,FALSA
,,,,,,,,,anna,001,2024-06-20_08h25.48.330,empathy_intonation_perc,2024.1.4,Linux aarch64,59.88023952,,,,,,,,,,,,,,140,chorde,,,,,,145.3009,146.733,0,1,0.8979,,0,57,57,139,1,pseudoword,0,REAL,FALSA
,,,,,,,,,anna,001,2024-06-20_08h25.48.330,empathy_intonation_perc,2024.1.4,Linux aarch64,59.88023952,,,,,,,,,,,,,,87,muleta,,,,,,146.734,148.4688,1,0,1.2152,,0,58,58,86,1,non_cognate,1,REAL,FALSA
,,,,,,,,,anna,001,2024-06-20_08h25.48.330,empathy_intonation_perc,2024.1.4,Linux aarch64,59.88023952,,,,,,,,,,,,,,76,chocar,,,,,,148.4737,151.2417,0,1,2.2301,0.0006,0,59,59,75,1,non_cognate,1,REAL,FALSA
,,,,,,,,,anna,001,2024-06-20_08h25.48.330,empathy_intonation_perc,2024.1.4,Linux aarch64,59.88023952,,,,,,,,,,,,,,190,asumie,,,,,,151.2428,152.8594,0,1,1.0778,,0,60,60,189,1,pseudoword,0,REAL,FALSA
,,,,,,,,,anna,001,2024-06-20_08h25.48.330,empathy_intonation_perc,2024.1.4,Linux aarch64,59.88023952,,,,,,,,,,,,,,141,virios,,,,,,152.8604,154.3802,0,1,0.9812,,0,61,61,140,1,pseudoword,0,REAL,FALSA
,,,,,,,,,anna,001,2024-06-20_08h25.48.330,empathy_intonation_perc,2024.1.4,Linux aarch64,59.88023952,,,,,,,,,,,,,,72,rostro,,,,,,154.3813,155.8643,1,0,0.9413,,0,62,62,71,1,non_cognate,1,REAL,FALSA
,,,,,,,,,anna,001,2024-06-20_08h25.48.330,empathy_intonation_perc,2024.1.4,Linux aarch64,59.88023952,,,,,,,,,,,,,,77,suave,,,,,,155.8653,157.1322,1,0,0.7275,,0,63,63,76,1,non_cognate,1,REAL,FALSA
,,,,,,,,,anna,001,2024-06-20_08h25.48.330,empathy_intonation_perc,2024.1.4,Linux aarch64,59.88023952,,,,,,,,,,,,,,179,suelet,,,,,,157.1363,158.588,0,1,0.9109,,0,64,64,178,1,pseudoword,0,REAL,FALSA
,,,,,,,,,anna,001,2024-06-20_08h25.48.330,empathy_intonation_perc,2024.1.4,Linux aarch64,59.88023952,,,,,,,,,,,,,,169,pitis,,,,,,158.5888,160.107,0,1,0.9801,,0,65,65,168,1,pseudoword,0,REAL,FALSA
,,,,,,,,,anna,001,2024-06-20_08h25.48.330,empathy_intonation_perc,2024.1.4,Linux aarch64,59.88023952,,,,,,,,,,,,,,11,golf,,,,,,160.108,161.7241,1,0,1.0834,,0,66,66,10,1,three_way_cognate,1,REAL,FALSA
,,,,,,,,,anna,001,2024-06-20_08h25.48.330,empathy_intonation_perc,2024.1.4,Linux aarch64,59.88023952,,,,,,,,,,,,,,30,fiscal,,,,,,161.7252,163.157,0,1,0.8962,,0,67,67,29,1,two_way_cognate,1,REAL,FALSA
,,,,,,,,,anna,001,2024-06-20_08h25.48.330,empathy_intonation_perc,2024.1.4,Linux aarch64,59.88023952,,,,,,,,,,,,,,133,conso,,,,,,163.1579,165.027,0,1,1.3339,,0,68,68,132,1,pseudoword,0,REAL,FALSA
,,,,,,,,,anna,001,2024-06-20_08h25.48.330,empathy_intonation_perc,2024.1.4,Linux aarch64,59.88023952,,,,,,,,,,,,,,75,patada,,,,,,165.0311,166.8452,0,1,1.2767,,0,69,69,74,1,non_cognate,1,REAL,FALSA
,,,,,,,,,anna,001,2024-06-20_08h25.48.330,empathy_intonation_perc,2024.1.4,Linux aarch64,59.88023952,,,,,,,,,,,,,,10,drama,,,,,,166.846,168.2469,1,0,0.8725,,0,70,70,9,1,three_way_cognate,1,REAL,FALSA
,,,,,,,,,anna,001,2024-06-20_08h25.48.330,empathy_intonation_perc,2024.1.4,Linux aarch64,59.88023952,,,,,,,,,,,,,,67,llamar,,,,,,168.2499,169.5335,1,0,0.7416,,0,71,71,66,1,non_cognate,1,REAL,FALSA
,,,,,,,,,anna,001,2024-06-20_08h25.48.330,empathy_intonation_perc,2024.1.4,Linux aarch64,59.88023952,,,,,,,,,,,,,,136,hueas,,,,,,169.5357,170.8839,0,1,0.8099,,0,72,72,135,1,pseudoword,0,REAL,FALSA
,,,,,,,,,anna,001,2024-06-20_08h25.48.330,empathy_intonation_perc,2024.1.4,Linux aarch64,59.88023952,,,,,,,,,,,,,,78,rendir,,,,,,170.8892,172.5898,0,1,1.17,,0,73,73,77,1,non_cognate,1,REAL,FALSA
,,,,,,,,,anna,001,2024-06-20_08h25.48.330,empathy_intonation_perc,2024.1.4,Linux aarch64,59.88023952,,,,,,,,,,,,,,143,hurcos,,,,,,172.5907,173.9755,0,1,0.8515,,0,74,74,142,1,pseudoword,0,REAL,FALSA
,,,,,,,,,anna,001,2024-06-20_08h25.48.330,empathy_intonation_perc,2024.1.4,Linux aarch64,59.88023952,,,,,,,,,,,,,,144,diroco,,,,,,173.9765,175.342,0,1,0.8297,,0,75,75,143,1,pseudoword,0,REAL,FALSA
,,,,,,,,,anna,001,2024-06-20_08h25.48.330,empathy_intonation_perc,2024.1.4,Linux aarch64,59.88023952,,,,,,,,,,,,,,60,siglo,,,,,,175.343,176.6594,1,0,0.7802,,0,76,76,59,1,non_cognate,1,REAL,FALSA
,,,,,,,,,anna,001,2024-06-20_08h25.48.330,empathy_intonation_perc,2024.1.4,Linux aarch64,59.88023952,,,,,,,,,,,,,,71,torta,,,,,,176.6606,178.2972,1,0,1.0949,,0,77,77,70,1,non_cognate,1,REAL,FALSA
,,,,,,,,,anna,001,2024-06-20_08h25.48.330,empathy_intonation_perc,2024.1.4,Linux aarch64,59.88023952,,,,,,,,,,,,,,42,rumor,,,,,,178.2981,179.8351,1,0,1.0018,,0,78,78,41,1,two_way_cognate,1,REAL,FALSA
,,,,,,,,,anna,001,2024-06-20_08h25.48.330,empathy_intonation_perc,2024.1.4,Linux aarch64,59.88023952,,,,,,,,,,,,,,32,animal,,,,,,179.8358,181.0991,1,0,0.7251,,0,79,79,31,1,two_way_cognate,1,REAL,FALSA
,,,,,,,,,anna,001,2024-06-20_08h25.48.330,empathy_intonation_perc,2024.1.4,Linux aarch64,59.88023952,,,,,,,,,,,,,,97,nocita,,,,,,181.1002,182.4343,0,1,0.8078,,0,80,80,96,1,pseudoword,0,REAL,FALSA
,,,,,,,,,anna,001,2024-06-20_08h25.48.330,empathy_intonation_perc,2024.1.4,Linux aarch64,59.88023952,,,,,,,,,,,,,,96,caro,,,,,,182.4351,184.538,1,0,1.581,,0,81,81,95,1,non_cognate,1,REAL,FALSA
,,,,,,,,,anna,001,2024-06-20_08h25.48.330,empathy_intonation_perc,2024.1.4,Linux aarch64,59.88023952,,,,,,,,,,,,,,12,dogma,,,,,,184.5392,185.9146,0,1,0.8363,,0,82,82,11,1,three_way_cognate,1,REAL,FALSA
,,,,,,,,,anna,001,2024-06-20_08h25.48.330,empathy_intonation_perc,2024.1.4,Linux aarch64,59.88023952,,,,,,,,,,,,,,94,forro,,,,,,185.9155,187.3934,0,1,0.9502,0.0018,0,83,83,93,1,non_cognate,1,REAL,FALSA
,,,,,,,,,anna,001,2024-06-20_08h25.48.330,empathy_intonation_perc,2024.1.4,Linux aarch64,59.88023952,,,,,,,,,,,,,,26,enigma,,,,,,187.3944,188.8111,1,0,0.8835,,0,84,84,25,1,two_way_cognate,1,REAL,FALSA
,,,,,,,,,anna,001,2024-06-20_08h25.48.330,empathy_intonation_perc,2024.1.4,Linux aarch64,59.88023952,,,,,,,,,,,,,,130,dubo,,,,,,188.8122,190.6145,0,1,1.2621,,0,85,85,129,1,pseudoword,0,REAL,FALSA
,,,,,,,,,anna,001,2024-06-20_08h25.48.330,empathy_intonation_perc,2024.1.4,Linux aarch64,59.88023952,,,,,,,,,,,,,,173,mibro,,,,,,190.6176,195.487,0,1,4.329,,0,86,86,172,1,pseudoword,0,REAL,FALSA
,,,,,,,,,anna,001,2024-06-20_08h25.48.330,empathy_intonation_perc,2024.1.4,Linux aarch64,59.88023952,,,,,,,,,,,,,,178,inichó,,,,,,195.5011,197.2078,0,1,1.1784,0.0009,0,87,87,177,1,pseudoword,0,REAL,FALSA
,,,,,,,,,anna,001,2024-06-20_08h25.48.330,empathy_intonation_perc,2024.1.4,Linux aarch64,59.88023952,,,,,,,,,,,,,,100,épinas,,,,,,197.2085,198.7761,0,1,1.0235,,0,88,88,99,1,pseudoword,0,REAL,FALSA
,,,,,,,,,anna,001,2024-06-20_08h25.48.330,empathy_intonation_perc,2024.1.4,Linux aarch64,59.88023952,,,,,,,,,,,,,,168,cobén,,,,,,198.7788,200.2446,0,1,0.9236,,0,89,89,167,1,pseudoword,0,REAL,FALSA
,,,,,,,,,anna,001,2024-06-20_08h25.48.330,empathy_intonation_perc,2024.1.4,Linux aarch64,59.88023952,,,,,,,,,,,,,,14,aura,,,,,,200.246,201.4815,1,0,0.692,,0,90,90,13,1,three_way_cognate,1,REAL,FALSA
,,,,,,,,,anna,001,2024-06-20_08h25.48.330,empathy_intonation_perc,2024.1.4,Linux aarch64,59.88023952,,,,,,,,,,,,,,5,extra,,,,,,201.484,203.3308,0,1,1.3195,,0,91,91,4,1,three_way_cognate,1,REAL,FALSA
,,,,,,,,,anna,001,2024-06-20_08h25.48.330,empathy_intonation_perc,2024.1.4,Linux aarch64,59.88023952,,,,,,,,,,,,,,106,diebro,,,,,,203.3317,204.7337,0,1,0.8651,,0,92,92,105,1,pseudoword,0,REAL,FALSA
,,,,,,,,,anna,001,2024-06-20_08h25.48.330,empathy_intonation_perc,2024.1.4,Linux aarch64,59.88023952,,,,,,,,,,,,,,53,punta,,,,,,204.7357,206.0692,1,0,0.7945,,0,93,93,52,1,non_cognate,1,REAL,FALSA
,,,,,,,,,anna,001,2024-06-20_08h25.48.330,empathy_intonation_perc,2024.1.4,Linux aarch64,59.88023952,,,,,,,,,,,,,,20,trauma,,,,,,206.0709,207.9084,1,0,1.2869,,0,94,94,19,1,three_way_cognate,1,REAL,FALSA
,,,,,,,,,anna,001,2024-06-20_08h25.48.330,empathy_intonation_perc,2024.1.4,Linux aarch64,59.88023952,,,,,,,,,,,,,,68,puñal,,,,,,207.9105,209.2897,1,0,0.8463,,0,95,95,67,1,non_cognate,1,REAL,FALSA
,,,,,,,,,anna,001,2024-06-20_08h25.48.330,empathy_intonation_perc,2024.1.4,Linux aarch64,59.88023952,,,,,,,,,,,,,,59,feo,,,,,,209.2906,210.6118,1,0,0.7815,,0,96,96,58,1,non_cognate,1,REAL,FALSA
,,,,,,,,,anna,001,2024-06-20_08h25.48.330,empathy_intonation_perc,2024.1.4,Linux aarch64,59.88023952,,,,,,,,,,,,,,1,moral,,,,,,210.6131,211.8262,1,0,0.6742,,0,97,97,0,1,three_way_cognate,1,REAL,FALSA
,,,,,,,,,anna,001,2024-06-20_08h25.48.330,empathy_intonation_perc,2024.1.4,Linux aarch64,59.88023952,,,,,,,,,,,,,,2,tumor,,,,,,211.8281,213.2292,1,0,0.8617,,0,98,98,1,1,three_way_cognate,1,REAL,FALSA
,,,,,,,,,anna,001,2024-06-20_08h25.48.330,empathy_intonation_perc,2024.1.4,Linux aarch64,59.88023952,,,,,,,,,,,,,,40,pelvis,,,,,,213.2301,215.1013,0,1,1.3309,,0,99,99,39,1,two_way_cognate,1,REAL,FALSA
,,,,,,,,,anna,001,2024-06-20_08h25.48.330,empathy_intonation_perc,2024.1.4,Linux aarch64,59.88023952,,,,,,,,,,,,,,189,medium,,,,,,215.1021,216.6821,0,1,1.0434,,0,100,100,188,1,pseudoword,0,REAL,FALSA
,,,,,,,,,anna,001,2024-06-20_08h25.48.330,empathy_intonation_perc,2024.1.4,Linux aarch64,59.88023952,,,,,,,,,,,,,,6,horror,,,,,,216.684,218.0579,1,0,0.8331,,0,101,101,5,1,three_way_cognate,1,REAL,FALSA
,,,,,,,,,anna,001,2024-06-20_08h25.48.330,empathy_intonation_perc,2024.1.4,Linux aarch64,59.88023952,,,,,,,,,,,,,,28,ardor,,,,,,218.0593,219.3364,0,1,0.745,,0,102,102,27,1,two_way_cognate,1,REAL,FALSA
,,,,,,,,,anna,001,2024-06-20_08h25.48.330,empathy_intonation_perc,2024.1.4,Linux aarch64,59.88023952,,,,,,,,,,,,,,9,portal,,,,,,219.337,220.606,1,0,0.7387,,0,103,103,8,1,three_way_cognate,1,REAL,FALSA
,,,,,,,,,anna,001,2024-06-20_08h25.48.330,empathy_intonation_perc,2024.1.4,Linux aarch64,59.88023952,,,,,,,,,,,,,,183,edioso,,,,,,220.6106,221.8596,0,1,0.7102,,0,104,104,182,1,pseudoword,0,REAL,FALSA
,,,,,,,,,anna,001,2024-06-20_08h25.48.330,empathy_intonation_perc,2024.1.4,Linux aarch64,59.88023952,,,,,,,,,,,,,,64,rizado,,,,,,221.862,223.2932,1,0,0.8985,,0,105,105,63,1,non_cognate,1,REAL,FALSA
,,,,,,,,,anna,001,2024-06-20_08h25.48.330,empathy_intonation_perc,2024.1.4,Linux aarch64,59.88023952,,,,,,,,,,,,,,69,tiza,,,,,,223.2939,224.6268,0,1,0.8038,,0,106,106,68,1,non_cognate,1,REAL,FALSA
,,,,,,,,,anna,001,2024-06-20_08h25.48.330,empathy_intonation_perc,2024.1.4,Linux aarch64,59.88023952,,,,,,,,,,,,,,51,listo,,,,,,224.6296,226.0155,1,0,0.8644,,0,107,107,50,1,non_cognate,1,REAL,FALSA
,,,,,,,,,anna,001,2024-06-20_08h25.48.330,empathy_intonation_perc,2024.1.4,Linux aarch64,59.88023952,,,,,,,,,,,,,,74,ala,,,,,,226.0164,227.3314,0,1,0.7755,,0,108,108,73,1,non_cognate,1,REAL,FALSA
,,,,,,,,,anna,001,2024-06-20_08h25.48.330,empathy_intonation_perc,2024.1.4,Linux aarch64,59.88023952,,,,,,,,,,,,,,17,clan,,,,,,227.3361,229.1761,1,0,1.3041,,0,109,109,16,1,three_way_cognate,1,REAL,FALSA
,,,,,,,,,anna,001,2024-06-20_08h25.48.330,empathy_intonation_perc,2024.1.4,Linux aarch64,59.88023952,,,,,,,,,,,,,,148,gino,,,,,,229.1769,230.5871,0,1,0.8767,,0,110,110,147,1,pseudoword,0,REAL,FALSA
,,,,,,,,,anna,001,2024-06-20_08h25.48.330,empathy_intonation_perc,2024.1.4,Linux aarch64,59.88023952,,,,,,,,,,,,,,54,tapón,,,,,,230.5881,232.1755,0,1,1.0492,,0,111,111,53,1,non_cognate,1,REAL,FALSA
,,,,,,,,,anna,001,2024-06-20_08h25.48.330,empathy_intonation_perc,2024.1.4,Linux aarch64,59.88023952,,,,,,,,,,,,,,113,nasce,,,,,,232.1763,233.5599,0,1,0.8527,,0,112,112,112,1,pseudoword,0,REAL,FALSA
,,,,,,,,,anna,001,2024-06-20_08h25.48.330,empathy_intonation_perc,2024.1.4,Linux aarch64,59.88023952,,,,,,,,,,,,,,139,sasos,,,,,,233.5612,234.93,0,1,0.835,,0,113,113,138,1,pseudoword,0,REAL,FALSA
,,,,,,,,,anna,001,2024-06-20_08h25.48.330,empathy_intonation_perc,2024.1.4,Linux aarch64,59.88023952,,,,,,,,,,,,,,39,casual,,,,,,234.9323,236.644,1,0,1.1662,,0,114,114,38,1,two_way_cognate,1,REAL,FALSA
,,,,,,,,,anna,001,2024-06-20_08h25.48.330,empathy_intonation_perc,2024.1.4,Linux aarch64,59.88023952,,,,,,,,,,,,,,117,morrá,,,,,,236.6451,237.867,0,1,0.6893,,0,115,115,116,1,pseudoword,0,REAL,FALSA
,,,,,,,,,anna,001,2024-06-20_08h25.48.330,empathy_intonation_perc,2024.1.4,Linux aarch64,59.88023952,,,,,,,,,,,,,,160,fomeó,,,,,,237.8683,239.8399,0,1,1.4373,,0,116,116,159,1,pseudoword,0,REAL,FALSA
,,,,,,,,,anna,001,2024-06-20_08h25.48.330,empathy_intonation_perc,2024.1.4,Linux aarch64,59.88023952,,,,,,,,,,,,,,171,gotro,,,,,,239.8405,241.3051,0,1,0.9306,,0,117,117,170,1,pseudoword,0,REAL,FALSA
,,,,,,,,,anna,001,2024-06-20_08h25.48.330,empathy_intonation_perc,2024.1.4,Linux aarch64,59.88023952,,,,,,,,,,,,,,99,bugor,,,,,,241.3085,242.9737,0,1,1.1329,,0,118,118,98,1,pseudoword,0,REAL,FALSA
,,,,,,,,,anna,001,2024-06-20_08h25.48.330,empathy_intonation_perc,2024.1.4,Linux aarch64,59.88023952,,,,,,,,,,,,,,47,color,,,,,,242.9769,244.7898,1,0,1.2811,,0,119,119,46,1,two_way_cognate,1,REAL,FALSA
,,,,,,,,,anna,001,2024-06-20_08h25.48.330,empathy_intonation_perc,2024.1.4,Linux aarch64,59.88023952,,,,,,,,,,,,,,93,tapa,,,,,,244.7906,247.1759,1,0,1.8582,,0,120,120,92,1,non_cognate,1,REAL,FALSA
,,,,,,,,,anna,001,2024-06-20_08h25.48.330,empathy_intonation_perc,2024.1.4,Linux aarch64,59.88023952,,,,,,,,,,,,,,108,jauda,,,,,,247.1768,248.7788,0,1,1.0649,,0,121,121,107,1,pseudoword,0,REAL,FALSA
,,,,,,,,,anna,001,2024-06-20_08h25.48.330,empathy_intonation_perc,2024.1.4,Linux aarch64,59.88023952,,,,,,,,,,,,,,114,dibrea,,,,,,248.7809,250.0703,0,1,0.7497,,0,122,122,113,1,pseudoword,0,REAL,FALSA
,,,,,,,,,anna,001,2024-06-20_08h25.48.330,empathy_intonation_perc,2024.1.4,Linux aarch64,59.88023952,,,,,,,,,,,,,,83,hálito,,,,,,250.0725,251.3992,0,1,0.7992,,0,123,123,82,1,non_cognate,1,REAL,FALSA
,,,,,,,,,anna,001,2024-06-20_08h25.48.330,empathy_intonation_perc,2024.1.4,Linux aarch64,59.88023952,,,,,,,,,,,,,,82,brillo,,,,,,251.4006,253.0013,1,0,1.0761,,0,124,124,81,1,non_cognate,1,REAL,FALSA
,,,,,,,,,anna,001,2024-06-20_08h25.48.330,empathy_intonation_perc,2024.1.4,Linux aarch64,59.88023952,,,,,,,,,,,,,,102,coyo,,,,,,253.0024,254.2865,0,1,0.745,0.0034,0,125,125,101,1,pseudoword,0,REAL,FALSA
,,,,,,,,,anna,001,2024-06-20_08h25.48.330,empathy_intonation_perc,2024.1.4,Linux aarch64,59.88023952,,,,,,,,,,,,,,48,pelvis,,,,,,254.2884,255.7081,0,1,0.8806,,0,126,126,47,1,two_way_cognate,1,REAL,FALSA
,,,,,,,,,anna,001,2024-06-20_08h25.48.330,empathy_intonation_perc,2024.1.4,Linux aarch64,59.88023952,,,,,,,,,,,,,,44,editor,,,,,,255.7092,257.0239,1,0,0.7762,,0,127,127,43,1,two_way_cognate,1,REAL,FALSA
,,,,,,,,,anna,001,2024-06-20_08h25.48.330,empathy_intonation_perc,2024.1.4,Linux aarch64,59.88023952,,,,,,,,,,,,,,81,sacar,,,,,,257.0248,258.4448,1,0,0.8991,,0,128,128,80,1,non_cognate,1,REAL,FALSA
,,,,,,,,,anna,001,2024-06-20_08h25.48.330,empathy_intonation_perc,2024.1.4,Linux aarch64,59.88023952,,,,,,,,,,,,,,163,olzan,,,,,,258.4484,259.8831,0,1,0.8986,,0,129,129,162,1,pseudoword,0,REAL,FALSA
,,,,,,,,,anna,001,2024-06-20_08h25.48.330,empathy_intonation_perc,2024.1.4,Linux aarch64,59.88023952,,,,,,,,,,,,,,153,golla,,,,,,259.884,261.2142,0,1,0.8013,,0,130,130,152,1,pseudoword,0,REAL,FALSA
,,,,,,,,,anna,001,2024-06-20_08h25.48.330,empathy_intonation_perc,2024.1.4,Linux aarch64,59.88023952,,,,,,,,,,,,,,159,trcia,,,,,,261.2149,262.4332,0,1,0.6763,,0,131,131,158,1,pseudoword,0,REAL,FALSA
,,,,,,,,,anna,001,2024-06-20_08h25.48.330,empathy_intonation_perc,2024.1.4,Linux aarch64,59.88023952,,,,,,,,,,,,,,135,panté,,,,,,262.4347,263.7337,0,1,0.7631,,0,132,132,134,1,pseudoword,0,REAL,FALSA
,,,,,,,,,anna,001,2024-06-20_08h25.48.330,empathy_intonation_perc,2024.1.4,Linux aarch64,59.88023952,,,,,,,,,,,,,,116,grigir,,,,,,263.7372,265.2027,0,1,0.931,,0,133,133,115,1,pseudoword,0,REAL,FALSA
,,,,,,,,,anna,001,2024-06-20_08h25.48.330,empathy_intonation_perc,2024.1.4,Linux aarch64,59.88023952,,,,,,,,,,,,,,155,kugis,,,,,,265.2047,266.4054,0,1,0.6593,,0,134,134,154,1,pseudoword,0,REAL,FALSA
,,,,,,,,,anna,001,2024-06-20_08h25.48.330,empathy_intonation_perc,2024.1.4,Linux aarch64,59.88023952,,,,,,,,,,,,,,166,anfia,,,,,,266.4064,267.558,0,1,0.6261,,0,135,135,165,1,pseudoword,0,REAL,FALSA
,,,,,,,,,anna,001,2024-06-20_08h25.48.330,empathy_intonation_perc,2024.1.4,Linux aarch64,59.88023952,,,,,,,,,,,,,,109,laras,,,,,,267.5596,268.7254,0,1,0.6325,,0,136,136,108,1,pseudoword,0,REAL,FALSA
,,,,,,,,,anna,001,2024-06-20_08h25.48.330,empathy_intonation_perc,2024.1.4,Linux aarch64,59.88023952,,,,,,,,,,,,,,38,halo,,,,,,268.7263,270.8265,0,1,1.5581,,0,137,137,37,1,two_way_cognate,1,REAL,FALSA
,,,,,,,,,anna,001,2024-06-20_08h25.48.330,empathy_intonation_perc,2024.1.4,Linux aarch64,59.88023952,,,,,,,,,,,,,,149,emén,,,,,,270.8272,272.1136,0,1,0.7584,,0,138,138,148,1,pseudoword,0,REAL,FALSA
,,,,,,,,,anna,001,2024-06-20_08h25.48.330,empathy_intonation_perc,2024.1.4,Linux aarch64,59.88023952,,,,,,,,,,,,,,137,trugo,,,,,,272.1145,273.5721,0,1,0.9336,,0,139,139,136,1,pseudoword,0,REAL,FALSA
,,,,,,,,,anna,001,2024-06-20_08h25.48.330,empathy_intonation_perc,2024.1.4,Linux aarch64,59.88023952,,,,,,,,,,,,,,123,arane,,,,,,273.573,276.9367,0,1,2.838,,0,140,140,122,1,pseudoword,0,REAL,FALSA
,,,,,,,,,anna,001,2024-06-20_08h25.48.330,empathy_intonation_perc,2024.1.4,Linux aarch64,59.88023952,,,,,,,,,,,,,,98,martir,,,,,,276.9482,278.5892,0,1,1.1063,,0,141,141,97,1,pseudoword,0,REAL,FALSA
,,,,,,,,,anna,001,2024-06-20_08h25.48.330,empathy_intonation_perc,2024.1.4,Linux aarch64,59.88023952,,,,,,,,,,,,,,187,nomata,,,,,,278.5908,280.0414,0,1,0.9161,,0,142,142,186,1,pseudoword,0,REAL,FALSA
,,,,,,,,,anna,001,2024-06-20_08h25.48.330,empathy_intonation_perc,2024.1.4,Linux aarch64,59.88023952,,,,,,,,,,,,,,101,losco,,,,,,280.0424,281.7758,0,1,1.1932,,0,143,143,100,1,pseudoword,0,REAL,FALSA
,,,,,,,,,anna,001,2024-06-20_08h25.48.330,empathy_intonation_perc,2024.1.4,Linux aarch64,59.88023952,,,,,,,,,,,,,,61,aduana,,,,,,281.778,283.0123,0,1,0.7144,,0,144,144,60,1,non_cognate,1,REAL,FALSA
,,,,,,,,,anna,001,2024-06-20_08h25.48.330,empathy_intonation_perc,2024.1.4,Linux aarch64,59.88023952,,,,,,,,,,,,,,175,tradía,,,,,,283.0131,284.6311,0,1,1.0859,,0,145,145,174,1,pseudoword,0,REAL,FALSA
,,,,,,,,,anna,001,2024-06-20_08h25.48.330,empathy_intonation_perc,2024.1.4,Linux aarch64,59.88023952,,,,,,,,,,,,,,124,lobe,,,,,,284.6323,286.8194,0,1,1.6622,,0,146,146,123,1,pseudoword,0,REAL,FALSA
,,,,,,,,,anna,001,2024-06-20_08h25.48.330,empathy_intonation_perc,2024.1.4,Linux aarch64,59.88023952,,,,,,,,,,,,,,121,barbs,,,,,,286.8322,288.2576,0,1,0.8992,,0,147,147,120,1,pseudoword,0,REAL,FALSA
,,,,,,,,,anna,001,2024-06-20_08h25.48.330,empathy_intonation_perc,2024.1.4,Linux aarch64,59.88023952,,,,,,,,,,,,,,90,venado,,,,,,288.2587,292.3851,0,1,3.5896,,0,148,148,89,1,non_cognate,1,REAL,FALSA
,,,,,,,,,anna,001,2024-06-20_08h25.48.330,empathy_intonation_perc,2024.1.4,Linux aarch64,59.88023952,,,,,,,,,,,,,,41,pasta,,,,,,292.3984,293.6108,1,0,0.6828,,0,149,149,40,1,two_way_cognate,1,REAL,FALSA
,,,,,,,,,anna,001,2024-06-20_08h25.48.330,empathy_intonation_perc,2024.1.4,Linux aarch64,59.88023952,,,,,,,,,,,,,,80,cuenco,,,,,,293.6115,295.1293,0,1,0.9797,,0,150,150,79,1,non_cognate,1,REAL,FALSA
,,,,,,,,,anna,001,2024-06-20_08h25.48.330,empathy_intonation_perc,2024.1.4,Linux aarch64,59.88023952,,,,,,,,,,,,,,191,frasis,,,,,,295.1308,297.5063,0,1,1.8424,,0,151,151,190,1,pseudoword,0,REAL,FALSA
,,,,,,,,,anna,001,2024-06-20_08h25.48.330,empathy_intonation_perc,2024.1.4,Linux aarch64,59.88023952,,,,,,,,,,,,,,170,diabo,,,,,,297.5072,298.767,0,1,0.7283,,0,152,152,169,1,pseudoword,0,REAL,FALSA
,,,,,,,,,anna,001,2024-06-20_08h25.48.330,empathy_intonation_perc,2024.1.4,Linux aarch64,59.88023952,,,,,,,,,,,,,,127,vien,,,,,,298.7678,302.1376,0,1,2.8307,,0,153,153,126,1,pseudoword,0,REAL,FALSA
,,,,,,,,,anna,001,2024-06-20_08h25.48.330,empathy_intonation_perc,2024.1.4,Linux aarch64,59.88023952,,,,,,,,,,,,,,62,pegar,,,,,,302.14,303.6114,1,0,0.9431,,0,154,154,61,1,non_cognate,1,REAL,FALSA
,,,,,,,,,anna,001,2024-06-20_08h25.48.330,empathy_intonation_perc,2024.1.4,Linux aarch64,59.88023952,,,,,,,,,,,,,,35,aurora,,,,,,303.6124,305.7288,0,1,1.5788,,0,155,155,34,1,two_way_cognate,1,REAL,FALSA
,,,,,,,,,anna,001,2024-06-20_08h25.48.330,empathy_intonation_perc,2024.1.4,Linux aarch64,59.88023952,,,,,,,,,,,,,,152,prave,,,,,,305.73,306.9285,0,1,0.6607,,0,156,156,151,1,pseudoword,0,REAL,FALSA
,,,,,,,,,anna,001,2024-06-20_08h25.48.330,empathy_intonation_perc,2024.1.4,Linux aarch64,59.88023952,,,,,,,,,,,,,,115,lidena,,,,,,306.9341,308.2354,0,1,0.7662,,0,157,157,114,1,pseudoword,0,REAL,FALSA
,,,,,,,,,anna,001,2024-06-20_08h25.48.330,empathy_intonation_perc,2024.1.4,Linux aarch64,59.88023952,,,,,,,,,,,,,,52,blando,,,,,,308.2363,309.4156,0,1,0.6408,,0,158,158,51,1,non_cognate,1,REAL,FALSA
,,,,,,,,,anna,001,2024-06-20_08h25.48.330,empathy_intonation_perc,2024.1.4,Linux aarch64,59.88023952,,,,,,,,,,,,,,151,prías,,,,,,309.4165,310.7172,0,1,0.7651,,0,159,159,150,1,pseudoword,0,REAL,FALSA
,,,,,,,,,anna,001,2024-06-20_08h25.48.330,empathy_intonation_perc,2024.1.4,Linux aarch64,59.88023952,,,,,,,,,,,,,,22,mango,,,,,,310.7214,312.2875,1,0,1.0325,,0,160,160,21,1,three_way_cognate,1,REAL,FALSA
,,,,,,,,,anna,001,2024-06-20_08h25.48.330,empathy_intonation_perc,2024.1.4,Linux aarch64,59.88023952,,,,,,,,,,,,,,150,cricó,,,,,,312.2892,313.5889,0,1,0.7684,,0,161,161,149,1,pseudoword,0,REAL,FALSA
,,,,,,,,,anna,001,2024-06-20_08h25.48.330,empathy_intonation_perc,2024.1.4,Linux aarch64,59.88023952,,,,,,,,,,,,,,24,retina,,,,,,313.5899,315.594,0,1,1.4736,,0,162,162,23,1,three_way_cognate,1,REAL,FALSA
,,,,,,,,,anna,001,2024-06-20_08h25.48.330,empathy_intonation_perc,2024.1.4,Linux aarch64,59.88023952,,,,,,,,,,,,,,8,kilo,,,,,,315.597,320.7484,1,0,4.607,,0,163,163,7,1,three_way_cognate,1,REAL,FALSA
,,,,,,,,,anna,001,2024-06-20_08h25.48.330,empathy_intonation_perc,2024.1.4,Linux aarch64,59.88023952,,,,,,,,,,,,,,132,nocó,,,,,,320.7657,321.9189,0,1,0.6295,,0,164,164,131,1,pseudoword,0,REAL,FALSA
,,,,,,,,,anna,001,2024-06-20_08h25.48.330,empathy_intonation_perc,2024.1.4,Linux aarch64,59.88023952,,,,,,,,,,,,,,16,chat,,,,,,321.9197,323.2046,1,0,0.7441,,0,165,165,15,1,three_way_cognate,1,REAL,FALSA
,,,,,,,,,anna,001,2024-06-20_08h25.48.330,empathy_intonation_perc,2024.1.4,Linux aarch64,59.88023952,,,,,,,,,,,,,,172,dogue,,,,,,323.206,324.7725,0,1,1.0345,,0,166,166,171,1,pseudoword,0,REAL,FALSA
,,,,,,,,,anna,001,2024-06-20_08h25.48.330,empathy_intonation_perc,2024.1.4,Linux aarch64,59.88023952,,,,,,,,,,,,,,167,dobbo,,,,,,324.7733,326.0589,0,1,0.7425,,0,167,167,166,1,pseudoword,0,REAL,FALSA
,,,,,,,,,anna,001,2024-06-20_08h25.48.330,empathy_intonation_perc,2024.1.4,Linux aarch64,59.88023952,,,,,,,,,,,,,,161,civas,,,,,,326.0605,327.2932,0,1,0.6967,,0,168,168,160,1,pseudoword,0,REAL,FALSA
,,,,,,,,,anna,001,2024-06-20_08h25.48.330,empathy_intonation_perc,2024.1.4,Linux aarch64,59.88023952,,,,,,,,,,,,,,45,total,,,,,,327.2941,328.6285,1,0,0.7999,,0,169,169,44,1,two_way_cognate,1,REAL,FALSA
,,,,,,,,,anna,001,2024-06-20_08h25.48.330,empathy_intonation_perc,2024.1.4,Linux aarch64,59.88023952,,,,,,,,,,,,,,23,plural,,,,,,328.6295,330.8348,1,0,1.6622,,0,170,170,22,1,three_way_cognate,1,REAL,FALSA
,,,,,,,,,anna,001,2024-06-20_08h25.48.330,empathy_intonation_perc,2024.1.4,Linux aarch64,59.88023952,,,,,,,,,,,,,,58,colcha,,,,,,330.8469,332.316,0,1,0.9466,,0,171,171,57,1,non_cognate,1,REAL,FALSA
,,,,,,,,,anna,001,2024-06-20_08h25.48.330,empathy_intonation_perc,2024.1.4,Linux aarch64,59.88023952,,,,,,,,,,,,,,107,plago,,,,,,332.3186,334.089,0,1,1.2314,,0,172,172,106,1,pseudoword,0,REAL,FALSA
,,,,,,,,,anna,001,2024-06-20_08h25.48.330,empathy_intonation_perc,2024.1.4,Linux aarch64,59.88023952,,,,,,,,,,,,,,66,aleta,,,,,,334.0899,335.3358,0,1,0.713,,0,173,173,65,1,non_cognate,1,REAL,FALSA
,,,,,,,,,anna,001,2024-06-20_08h25.48.330,empathy_intonation_perc,2024.1.4,Linux aarch64,59.88023952,,,,,,,,,,,,,,181,gravés,,,,,,335.3366,336.6578,0,1,0.785,,0,174,174,180,1,pseudoword,0,REAL,FALSA
,,,,,,,,,anna,001,2024-06-20_08h25.48.330,empathy_intonation_perc,2024.1.4,Linux aarch64,59.88023952,,,,,,,,,,,,,,131,fuar,,,,,,336.6589,337.9401,0,1,0.747,,0,175,175,130,1,pseudoword,0,REAL,FALSA
,,,,,,,,,anna,001,2024-06-20_08h25.48.330,empathy_intonation_perc,2024.1.4,Linux aarch64,59.88023952,,,,,,,,,,,,,,85,enorme,,,,,,337.9435,339.2426,1,0,0.7593,,0,176,176,84,1,non_cognate,1,REAL,FALSA
,,,,,,,,,anna,001,2024-06-20_08h25.48.330,empathy_intonation_perc,2024.1.4,Linux aarch64,59.88023952,,,,,,,,,,,,,,46,mortal,,,,,,339.2459,340.5834,1,0,0.7939,,0,177,177,45,1,two_way_cognate,1,REAL,FALSA
,,,,,,,,,anna,001,2024-06-20_08h25.48.330,empathy_intonation_perc,2024.1.4,Linux aarch64,59.88023952,,,,,,,,,,,,,,177,entodo,,,,,,340.5845,341.8804,0,1,0.7622,,0,178,178,176,1,pseudoword,0,REAL,FALSA
,,,,,,,,,anna,001,2024-06-20_08h25.48.330,empathy_intonation_perc,2024.1.4,Linux aarch64,59.88023952,,,,,,,,,,,,,,56,pico,,,,,,341.8813,343.7467,1,0,1.331,,0,179,179,55,1,non_cognate,1,REAL,FALSA
,,,,,,,,,anna,001,2024-06-20_08h25.48.330,empathy_intonation_perc,2024.1.4,Linux aarch64,59.88023952,,,,,,,,,,,,,,73,llevar,,,,,,343.7491,345.2522,1,0,0.9827,,0,180,180,72,1,non_cognate,1,REAL,FALSA
,,,,,,,,,anna,001,2024-06-20_08h25.48.330,empathy_intonation_perc,2024.1.4,Linux aarch64,59.88023952,,,,,,,,,,,,,,4,flora,,,,,,345.2531,346.6205,1,0,0.83,,0,181,181,3,1,three_way_cognate,1,REAL,FALSA
,,,,,,,,,anna,001,2024-06-20_08h25.48.330,empathy_intonation_perc,2024.1.4,Linux aarch64,59.88023952,,,,,,,,,,,,,,63,hilo,,,,,,346.6213,348.137,0,1,0.9739,0.0004,0,182,182,62,1,non_cognate,1,REAL,FALSA
,,,,,,,,,anna,001,2024-06-20_08h25.48.330,empathy_intonation_perc,2024.1.4,Linux aarch64,59.88023952,,,,,,,,,,,,,,55,maldad,,,,,,348.1377,349.7079,0,1,1.0333,,0,183,183,54,1,non_cognate,1,REAL,FALSA
,,,,,,,,,anna,001,2024-06-20_08h25.48.330,empathy_intonation_perc,2024.1.4,Linux aarch64,59.88023952,,,,,,,,,,,,,,19,mafia,,,,,,349.7087,351.4093,0,1,1.1566,,0,184,184,18,1,three_way_cognate,1,REAL,FALSA
,,,,,,,,,anna,001,2024-06-20_08h25.48.330,empathy_intonation_perc,2024.1.4,Linux aarch64,59.88023952,,,,,,,,,,,,,,15,test,,,,,,351.4104,354.9463,1,0,3.0149,,0,185,185,14,1,three_way_cognate,1,REAL,FALSA
,,,,,,,,,anna,001,2024-06-20_08h25.48.330,empathy_intonation_perc,2024.1.4,Linux aarch64,59.88023952,,,,,,,,,,,,,,104,estulo,,,,,,354.9591,356.3861,0,1,0.8939,,0,186,186,103,1,pseudoword,0,REAL,FALSA
,,,,,,,,,anna,001,2024-06-20_08h25.48.330,empathy_intonation_perc,2024.1.4,Linux aarch64,59.88023952,,,,,,,,,,,,,,95,listo,,,,,,356.3882,358.3712,1,0,1.4518,,0,187,187,94,1,non_cognate,1,REAL,FALSA
,,,,,,,,,anna,001,2024-06-20_08h25.48.330,empathy_intonation_perc,2024.1.4,Linux aarch64,59.88023952,,,,,,,,,,,,,,185,aljizo,,,,,,358.3724,359.6529,0,1,0.7439,,0,188,188,184,1,pseudoword,0,REAL,FALSA
,,,,,,,,,anna,001,2024-06-20_08h25.48.330,empathy_intonation_perc,2024.1.4,Linux aarch64,59.88023952,,,,,,,,,,,,,,105,leniz,,,,,,359.6562,361.1235,0,1,0.9424,,0,189,189,104,1,pseudoword,0,REAL,FALSA
,,,,,,,,,anna,001,2024-06-20_08h25.48.330,empathy_intonation_perc,2024.1.4,Linux aarch64,59.88023952,,,,,,,,,,,,,,158,babrá,,,,,,361.1259,362.4262,0,1,0.7569,,0,190,190,157,1,pseudoword,0,REAL,FALSA
,,,,,,,,,anna,001,2024-06-20_08h25.48.330,empathy_intonation_perc,2024.1.4,Linux aarch64,59.88023952,,,,,,,,,,,,,,110,densó,,,,,,362.4289,364.4937,0,1,1.5256,,0,191,191,109,1,pseudoword,0,REAL,FALSA
