lextale_instructions.started,lextale_instructions.stopped,lextale_instructions_loop.thisRepN,lextale_instructions_loop.thisTrialN,lextale_instructions_loop.thisN,lextale_instructions_loop.thisIndex,lextale_instructions_loop.ran,instructions_text,continue_text,participant,session,date,expName,psychopyVersion,OS,frameRate,lextale_practice.started,lextale_practice.stopped,key_resp_lextale_practice.keys,key_resp_lextale_practice.corr,key_resp_lextale_practice.rt,key_resp_lextale_practice.duration,lextale_practice_feedback.started,lextale_practice_feedback.stopped,lextale_practice_trials.thisRepN,lextale_practice_trials.thisTrialN,lextale_practice_trials.thisN,lextale_practice_trials.thisIndex,lextale_practice_trials.ran,stim,word,correct_response,prac_button_real,prac_button_false,lextale_check.started,lextale_check.stopped,lextale_trial.started,lextale_trial.stopped,key_resp_lextale_trial.keys,key_resp_lextale_trial.corr,key_resp_lextale_trial.rt,key_resp_lextale_trial.duration,lextail_trials.thisRepN,lextail_trials.thisTrialN,lextail_trials.thisN,lextail_trials.thisIndex,lextail_trials.ran,type,correct_reponse,button_real,button_false
0.005,4.527,0,0,0,0,1,"Este es un test de vocabulario en español. 
  
  A continuación vas a ver 90 secuencias de letras que parecen 'españolas'.
  
  Solo algunas de ellas son palabras de verdad.",(presiona la barra espaciadora para continuar),,001,2025-04-30_08h47.39.345,empathy_intonation_perc,2024.1.4,Win32,59.95203837,,,,,,,,,,,,,,,,,,,,,,,,,,,,,,,,,,,
4.527,10.472,0,1,1,1,1,"Por favor, señala las palabras que tú conoces (aquellas que estás convencido que son palabras españolas, incluso aunque no seas capaz de dar el significado preciso).",(presiona la barra espaciadora para continuar),,001,2025-04-30_08h47.39.345,empathy_intonation_perc,2024.1.4,Win32,59.95203837,,,,,,,,,,,,,,,,,,,,,,,,,,,,,,,,,,,
10.475,17.487,0,2,2,2,1,Pero cuidado: los errores se penalizan. Por eso no tiene sentido tratar de incrementar tu puntuación marcando como reales palabras que nunca has visto.,(presiona la barra espaciadora para continuar),,001,2025-04-30_08h47.39.345,empathy_intonation_perc,2024.1.4,Win32,59.95203837,,,,,,,,,,,,,,,,,,,,,,,,,,,,,,,,,,,
17.489,22.155,0,3,3,3,1,"Presiona la tecla 1 si piensas que es una palabra real y la tecla 
  0 si piensas que es una palabra falsa. 
  
  Vamos a practicar un poco...",(presiona la barra espaciadora para continuar),,001,2025-04-30_08h47.39.345,empathy_intonation_perc,2024.1.4,Win32,59.95203837,,,,,,,,,,,,,,,,,,,,,,,,,,,,,,,,,,,
,,,,,,,,,,001,2025-04-30_08h47.39.345,empathy_intonation_perc,2024.1.4,Win32,59.95203837,22.16,24.022,1,0,1.325,,24.022,25.019,0,0,0,0,1,0,depiste,0,REAL,FALSA,,,,,,,,,,,,,,,,,
,,,,,,,,,,001,2025-04-30_08h47.39.345,empathy_intonation_perc,2024.1.4,Win32,59.95203837,25.02,26.771,1,1,1.219,,26.771,27.769,0,1,1,1,1,0,sí,1,REAL,FALSA,,,,,,,,,,,,,,,,,
,,,,,,,,,,001,2025-04-30_08h47.39.345,empathy_intonation_perc,2024.1.4,Win32,59.95203837,27.77,29.054,0,1,0.744,,29.054,30.056,0,2,2,2,1,0,coné,0,REAL,FALSA,,,,,,,,,,,,,,,,,
,,,,,,,,,,001,2025-04-30_08h47.39.345,empathy_intonation_perc,2024.1.4,Win32,59.95203837,30.057,31.522,1,0,0.928,,31.522,32.52,0,3,3,3,1,0,calpar,0,REAL,FALSA,,,,,,,,,,,,,,,,,
,,,,,,,,,,001,2025-04-30_08h47.39.345,empathy_intonation_perc,2024.1.4,Win32,59.95203837,32.52,34.019,0,1,0.956,,34.019,35.005,0,4,4,4,1,0,joten,0,REAL,FALSA,,,,,,,,,,,,,,,,,
,,,,,,,,,,001,2025-04-30_08h47.39.345,empathy_intonation_perc,2024.1.4,Win32,59.95203837,35.006,36.856,1,1,1.322,,36.856,37.853,0,5,5,5,1,0,sacapuntas,1,REAL,FALSA,,,,,,,,,,,,,,,,,
,,,,,,,,,,001,2025-04-30_08h47.39.345,empathy_intonation_perc,2024.1.4,Win32,59.95203837,37.854,40.023,0,1,1.64,,40.023,41.02,0,6,6,6,1,0,priba,0,REAL,FALSA,,,,,,,,,,,,,,,,,
,,,,,,,,,,001,2025-04-30_08h47.39.345,empathy_intonation_perc,2024.1.4,Win32,59.95203837,41.023,42.652,1,0,1.099,,42.653,43.653,0,7,7,7,1,0,pelasula,0,REAL,FALSA,,,,,,,,,,,,,,,,,
,,,,,,,,,,001,2025-04-30_08h47.39.345,empathy_intonation_perc,2024.1.4,Win32,59.95203837,43.653,45.07,1,1,0.878,,45.07,46.069,0,8,8,8,1,0,bien,1,REAL,FALSA,,,,,,,,,,,,,,,,,
,,,,,,,,,,001,2025-04-30_08h47.39.345,empathy_intonation_perc,2024.1.4,Win32,59.95203837,46.07,47.369,1,1,0.748,,47.369,48.364,0,9,9,9,1,0,casa,1,REAL,FALSA,,,,,,,,,,,,,,,,,
,,,,,,,,,,001,2025-04-30_08h47.39.345,empathy_intonation_perc,2024.1.4,Win32,59.95203837,48.365,49.777,0,1,0.883,,49.777,50.769,0,10,10,10,1,0,lejo,0,REAL,FALSA,,,,,,,,,,,,,,,,,
,,,,,,,,,,001,2025-04-30_08h47.39.345,empathy_intonation_perc,2024.1.4,Win32,59.95203837,50.77,52.369,0,1,1.059,,52.369,53.369,0,11,11,11,1,0,pretantas,0,REAL,FALSA,,,,,,,,,,,,,,,,,
,,,,,,,,,,001,2025-04-30_08h47.39.345,empathy_intonation_perc,2024.1.4,Win32,59.95203837,,,,,,,,,,,,,,,,,,,53.369,54.84,,,,,,,,,,,,,,,
,,,,,,,,,,001,2025-04-30_08h47.39.345,empathy_intonation_perc,2024.1.4,Win32,59.95203837,,,,,,,,,,,,,,12,dogma,,,,,,54.86,56.436,0,1,1.048,,0,0,0,11,1,three_way_cognate,1,REAL,FALSA
,,,,,,,,,,001,2025-04-30_08h47.39.345,empathy_intonation_perc,2024.1.4,Win32,59.95203837,,,,,,,,,,,,,,112,samón,,,,,,56.437,58.419,1,0,1.438,,0,1,1,111,1,pseudoword,0,REAL,FALSA
,,,,,,,,,,001,2025-04-30_08h47.39.345,empathy_intonation_perc,2024.1.4,Win32,59.95203837,,,,,,,,,,,,,,147,alla,,,,,,58.42,60.02,0,1,1.071,,0,2,2,146,1,pseudoword,0,REAL,FALSA
,,,,,,,,,,001,2025-04-30_08h47.39.345,empathy_intonation_perc,2024.1.4,Win32,59.95203837,,,,,,,,,,,,,,149,emén,,,,,,60.021,61.703,0,1,1.142,,0,3,3,148,1,pseudoword,0,REAL,FALSA
,,,,,,,,,,001,2025-04-30_08h47.39.345,empathy_intonation_perc,2024.1.4,Win32,59.95203837,,,,,,,,,,,,,,174,pabea,,,,,,61.703,63.186,1,0,0.963,,0,4,4,173,1,pseudoword,0,REAL,FALSA
,,,,,,,,,,001,2025-04-30_08h47.39.345,empathy_intonation_perc,2024.1.4,Win32,59.95203837,,,,,,,,,,,,,,136,hueas,,,,,,63.186,64.903,0,1,1.185,,0,5,5,135,1,pseudoword,0,REAL,FALSA
,,,,,,,,,,001,2025-04-30_08h47.39.345,empathy_intonation_perc,2024.1.4,Win32,59.95203837,,,,,,,,,,,,,,22,mango,,,,,,64.904,66.27,1,0,0.823,,0,6,6,21,1,three_way_cognate,1,REAL,FALSA
,,,,,,,,,,001,2025-04-30_08h47.39.345,empathy_intonation_perc,2024.1.4,Win32,59.95203837,,,,,,,,,,,,,,122,boñaz,,,,,,66.27,67.961,1,0,1.166,,0,7,7,121,1,pseudoword,0,REAL,FALSA
,,,,,,,,,,001,2025-04-30_08h47.39.345,empathy_intonation_perc,2024.1.4,Win32,59.95203837,,,,,,,,,,,,,,70,ánimo,,,,,,67.962,69.503,1,0,1.007,,0,8,8,69,1,non_cognate,1,REAL,FALSA
,,,,,,,,,,001,2025-04-30_08h47.39.345,empathy_intonation_perc,2024.1.4,Win32,59.95203837,,,,,,,,,,,,,,56,pico,,,,,,69.505,71.803,1,0,1.77,,0,9,9,55,1,non_cognate,1,REAL,FALSA
,,,,,,,,,,001,2025-04-30_08h47.39.345,empathy_intonation_perc,2024.1.4,Win32,59.95203837,,,,,,,,,,,,,,73,llevar,,,,,,71.804,73.035,0,1,0.684,,0,10,10,72,1,non_cognate,1,REAL,FALSA
,,,,,,,,,,001,2025-04-30_08h47.39.345,empathy_intonation_perc,2024.1.4,Win32,59.95203837,,,,,,,,,,,,,,76,chocar,,,,,,73.04,74.308,0,1,0.725,,0,11,11,75,1,non_cognate,1,REAL,FALSA
,,,,,,,,,,001,2025-04-30_08h47.39.345,empathy_intonation_perc,2024.1.4,Win32,59.95203837,,,,,,,,,,,,,,156,ozoso,,,,,,74.31,76.038,1,0,1.192,,0,12,12,155,1,pseudoword,0,REAL,FALSA
,,,,,,,,,,001,2025-04-30_08h47.39.345,empathy_intonation_perc,2024.1.4,Win32,59.95203837,,,,,,,,,,,,,,176,gripar,,,,,,76.039,78.25,0,1,1.668,,0,13,13,175,1,pseudoword,0,REAL,FALSA
,,,,,,,,,,001,2025-04-30_08h47.39.345,empathy_intonation_perc,2024.1.4,Win32,59.95203837,,,,,,,,,,,,,,186,rizate,,,,,,78.251,79.703,0,1,0.925,,0,14,14,185,1,pseudoword,0,REAL,FALSA
,,,,,,,,,,001,2025-04-30_08h47.39.345,empathy_intonation_perc,2024.1.4,Win32,59.95203837,,,,,,,,,,,,,,161,civas,,,,,,79.704,80.987,1,0,0.746,,0,15,15,160,1,pseudoword,0,REAL,FALSA
,,,,,,,,,,001,2025-04-30_08h47.39.345,empathy_intonation_perc,2024.1.4,Win32,59.95203837,,,,,,,,,,,,,,82,brillo,,,,,,80.987,82.419,0,1,0.912,,0,16,16,81,1,non_cognate,1,REAL,FALSA
,,,,,,,,,,001,2025-04-30_08h47.39.345,empathy_intonation_perc,2024.1.4,Win32,59.95203837,,,,,,,,,,,,,,85,enorme,,,,,,82.421,84.131,1,0,1.171,,0,17,17,84,1,non_cognate,1,REAL,FALSA
,,,,,,,,,,001,2025-04-30_08h47.39.345,empathy_intonation_perc,2024.1.4,Win32,59.95203837,,,,,,,,,,,,,,182,desaro,,,,,,84.131,85.672,0,1,1.006,,0,18,18,181,1,pseudoword,0,REAL,FALSA
,,,,,,,,,,001,2025-04-30_08h47.39.345,empathy_intonation_perc,2024.1.4,Win32,59.95203837,,,,,,,,,,,,,,107,plago,,,,,,85.672,86.987,0,1,0.773,,0,19,19,106,1,pseudoword,0,REAL,FALSA
,,,,,,,,,,001,2025-04-30_08h47.39.345,empathy_intonation_perc,2024.1.4,Win32,59.95203837,,,,,,,,,,,,,,134,molor,,,,,,86.987,88.37,0,1,0.841,,0,20,20,133,1,pseudoword,0,REAL,FALSA
,,,,,,,,,,001,2025-04-30_08h47.39.345,empathy_intonation_perc,2024.1.4,Win32,59.95203837,,,,,,,,,,,,,,90,venado,,,,,,88.371,90.821,1,0,1.905,,0,21,21,89,1,non_cognate,1,REAL,FALSA
,,,,,,,,,,001,2025-04-30_08h47.39.345,empathy_intonation_perc,2024.1.4,Win32,59.95203837,,,,,,,,,,,,,,113,nasce,,,,,,90.821,92.17,0,1,0.831,,0,22,22,112,1,pseudoword,0,REAL,FALSA
,,,,,,,,,,001,2025-04-30_08h47.39.345,empathy_intonation_perc,2024.1.4,Win32,59.95203837,,,,,,,,,,,,,,86,cuenco,,,,,,92.17,93.736,1,0,1.042,,0,23,23,85,1,non_cognate,1,REAL,FALSA
,,,,,,,,,,001,2025-04-30_08h47.39.345,empathy_intonation_perc,2024.1.4,Win32,59.95203837,,,,,,,,,,,,,,130,dubo,,,,,,93.737,94.953,0,1,0.684,,0,24,24,129,1,pseudoword,0,REAL,FALSA
,,,,,,,,,,001,2025-04-30_08h47.39.345,empathy_intonation_perc,2024.1.4,Win32,59.95203837,,,,,,,,,,,,,,167,dobbo,,,,,,94.954,96.19,0,1,0.691,,0,25,25,166,1,pseudoword,0,REAL,FALSA
,,,,,,,,,,001,2025-04-30_08h47.39.345,empathy_intonation_perc,2024.1.4,Win32,59.95203837,,,,,,,,,,,,,,173,mibro,,,,,,96.19,97.503,0,1,0.773,,0,26,26,172,1,pseudoword,0,REAL,FALSA
,,,,,,,,,,001,2025-04-30_08h47.39.345,empathy_intonation_perc,2024.1.4,Win32,59.95203837,,,,,,,,,,,,,,30,fiscal,,,,,,97.504,98.94,1,0,0.892,,0,27,27,29,1,two_way_cognate,1,REAL,FALSA
,,,,,,,,,,001,2025-04-30_08h47.39.345,empathy_intonation_perc,2024.1.4,Win32,59.95203837,,,,,,,,,,,,,,123,arane,,,,,,98.94,100.353,0,1,0.866,,0,28,28,122,1,pseudoword,0,REAL,FALSA
,,,,,,,,,,001,2025-04-30_08h47.39.345,empathy_intonation_perc,2024.1.4,Win32,59.95203837,,,,,,,,,,,,,,55,maldad,,,,,,100.355,102.42,1,0,1.52,,0,29,29,54,1,non_cognate,1,REAL,FALSA
,,,,,,,,,,001,2025-04-30_08h47.39.345,empathy_intonation_perc,2024.1.4,Win32,59.95203837,,,,,,,,,,,,,,31,civil,,,,,,102.421,103.719,1,0,0.755,,0,30,30,30,1,two_way_cognate,1,REAL,FALSA
,,,,,,,,,,001,2025-04-30_08h47.39.345,empathy_intonation_perc,2024.1.4,Win32,59.95203837,,,,,,,,,,,,,,66,aleta,,,,,,103.72,105.374,0,1,1.136,,0,31,31,65,1,non_cognate,1,REAL,FALSA
,,,,,,,,,,001,2025-04-30_08h47.39.345,empathy_intonation_perc,2024.1.4,Win32,59.95203837,,,,,,,,,,,,,,178,inichó,,,,,,105.374,107.834,1,0,1.939,,0,32,32,177,1,pseudoword,0,REAL,FALSA
,,,,,,,,,,001,2025-04-30_08h47.39.345,empathy_intonation_perc,2024.1.4,Win32,59.95203837,,,,,,,,,,,,,,78,rendir,,,,,,107.838,109.124,0,1,0.756,,0,33,33,77,1,non_cognate,1,REAL,FALSA
,,,,,,,,,,001,2025-04-30_08h47.39.345,empathy_intonation_perc,2024.1.4,Win32,59.95203837,,,,,,,,,,,,,,152,prave,,,,,,109.125,111.208,1,0,1.542,,0,34,34,151,1,pseudoword,0,REAL,FALSA
,,,,,,,,,,001,2025-04-30_08h47.39.345,empathy_intonation_perc,2024.1.4,Win32,59.95203837,,,,,,,,,,,,,,10,drama,,,,,,111.208,112.67,1,0,0.923,,0,35,35,9,1,three_way_cognate,1,REAL,FALSA
,,,,,,,,,,001,2025-04-30_08h47.39.345,empathy_intonation_perc,2024.1.4,Win32,59.95203837,,,,,,,,,,,,,,100,épinas,,,,,,112.671,114.34,1,0,1.127,,0,36,36,99,1,pseudoword,0,REAL,FALSA
,,,,,,,,,,001,2025-04-30_08h47.39.345,empathy_intonation_perc,2024.1.4,Win32,59.95203837,,,,,,,,,,,,,,60,siglo,,,,,,114.341,115.787,0,1,0.905,,0,37,37,59,1,non_cognate,1,REAL,FALSA
,,,,,,,,,,001,2025-04-30_08h47.39.345,empathy_intonation_perc,2024.1.4,Win32,59.95203837,,,,,,,,,,,,,,95,listo,,,,,,115.787,117.204,1,0,0.891,,0,38,38,94,1,non_cognate,1,REAL,FALSA
,,,,,,,,,,001,2025-04-30_08h47.39.345,empathy_intonation_perc,2024.1.4,Win32,59.95203837,,,,,,,,,,,,,,79,suelo,,,,,,117.205,118.586,1,0,0.84,,0,39,39,78,1,non_cognate,1,REAL,FALSA
,,,,,,,,,,001,2025-04-30_08h47.39.345,empathy_intonation_perc,2024.1.4,Win32,59.95203837,,,,,,,,,,,,,,129,vinzó,,,,,,118.588,120.42,0,1,1.304,,0,40,40,128,1,pseudoword,0,REAL,FALSA
,,,,,,,,,,001,2025-04-30_08h47.39.345,empathy_intonation_perc,2024.1.4,Win32,59.95203837,,,,,,,,,,,,,,101,losco,,,,,,120.42,122.037,0,1,1.089,,0,41,41,100,1,pseudoword,0,REAL,FALSA
,,,,,,,,,,001,2025-04-30_08h47.39.345,empathy_intonation_perc,2024.1.4,Win32,59.95203837,,,,,,,,,,,,,,170,diabo,,,,,,122.038,123.539,0,1,0.96,,0,42,42,169,1,pseudoword,0,REAL,FALSA
,,,,,,,,,,001,2025-04-30_08h47.39.345,empathy_intonation_perc,2024.1.4,Win32,59.95203837,,,,,,,,,,,,,,17,clan,,,,,,123.54,124.854,1,0,0.771,,0,43,43,16,1,three_way_cognate,1,REAL,FALSA
,,,,,,,,,,001,2025-04-30_08h47.39.345,empathy_intonation_perc,2024.1.4,Win32,59.95203837,,,,,,,,,,,,,,135,panté,,,,,,124.855,127.171,0,1,1.775,,0,44,44,134,1,pseudoword,0,REAL,FALSA
,,,,,,,,,,001,2025-04-30_08h47.39.345,empathy_intonation_perc,2024.1.4,Win32,59.95203837,,,,,,,,,,,,,,94,forro,,,,,,127.172,129.138,0,1,1.436,,0,45,45,93,1,non_cognate,1,REAL,FALSA
,,,,,,,,,,001,2025-04-30_08h47.39.345,empathy_intonation_perc,2024.1.4,Win32,59.95203837,,,,,,,,,,,,,,133,conso,,,,,,129.138,130.703,0,1,1.034,,0,46,46,132,1,pseudoword,0,REAL,FALSA
,,,,,,,,,,001,2025-04-30_08h47.39.345,empathy_intonation_perc,2024.1.4,Win32,59.95203837,,,,,,,,,,,,,,88,percha,,,,,,130.704,131.936,1,0,0.689,,0,47,47,87,1,non_cognate,1,REAL,FALSA
,,,,,,,,,,001,2025-04-30_08h47.39.345,empathy_intonation_perc,2024.1.4,Win32,59.95203837,,,,,,,,,,,,,,72,rostro,,,,,,131.936,133.254,0,1,0.788,,0,48,48,71,1,non_cognate,1,REAL,FALSA
,,,,,,,,,,001,2025-04-30_08h47.39.345,empathy_intonation_perc,2024.1.4,Win32,59.95203837,,,,,,,,,,,,,,111,monue,,,,,,133.254,134.504,0,1,0.735,,0,49,49,110,1,pseudoword,0,REAL,FALSA
,,,,,,,,,,001,2025-04-30_08h47.39.345,empathy_intonation_perc,2024.1.4,Win32,59.95203837,,,,,,,,,,,,,,9,portal,,,,,,134.505,136.121,1,0,1.089,,0,50,50,8,1,three_way_cognate,1,REAL,FALSA
,,,,,,,,,,001,2025-04-30_08h47.39.345,empathy_intonation_perc,2024.1.4,Win32,59.95203837,,,,,,,,,,,,,,28,ardor,,,,,,136.121,137.551,0,1,0.896,,0,51,51,27,1,two_way_cognate,1,REAL,FALSA
,,,,,,,,,,001,2025-04-30_08h47.39.345,empathy_intonation_perc,2024.1.4,Win32,59.95203837,,,,,,,,,,,,,,67,llamar,,,,,,137.554,139.905,0,1,1.82,,0,52,52,66,1,non_cognate,1,REAL,FALSA
,,,,,,,,,,001,2025-04-30_08h47.39.345,empathy_intonation_perc,2024.1.4,Win32,59.95203837,,,,,,,,,,,,,,49,teñir,,,,,,139.906,141.19,1,0,0.735,,0,53,53,48,1,non_cognate,1,REAL,FALSA
,,,,,,,,,,001,2025-04-30_08h47.39.345,empathy_intonation_perc,2024.1.4,Win32,59.95203837,,,,,,,,,,,,,,74,ala,,,,,,141.19,142.505,0,1,0.768,,0,54,54,73,1,non_cognate,1,REAL,FALSA
,,,,,,,,,,001,2025-04-30_08h47.39.345,empathy_intonation_perc,2024.1.4,Win32,59.95203837,,,,,,,,,,,,,,119,esís,,,,,,142.506,144.106,0,1,1.064,,0,55,55,118,1,pseudoword,0,REAL,FALSA
,,,,,,,,,,001,2025-04-30_08h47.39.345,empathy_intonation_perc,2024.1.4,Win32,59.95203837,,,,,,,,,,,,,,53,punta,,,,,,144.107,145.442,1,0,0.793,,0,56,56,52,1,non_cognate,1,REAL,FALSA
,,,,,,,,,,001,2025-04-30_08h47.39.345,empathy_intonation_perc,2024.1.4,Win32,59.95203837,,,,,,,,,,,,,,145,rúo,,,,,,145.443,146.839,0,1,0.861,,0,57,57,144,1,pseudoword,0,REAL,FALSA
,,,,,,,,,,001,2025-04-30_08h47.39.345,empathy_intonation_perc,2024.1.4,Win32,59.95203837,,,,,,,,,,,,,,171,gotro,,,,,,146.839,148.19,0,1,0.805,,0,58,58,170,1,pseudoword,0,REAL,FALSA
,,,,,,,,,,001,2025-04-30_08h47.39.345,empathy_intonation_perc,2024.1.4,Win32,59.95203837,,,,,,,,,,,,,,118,bará,,,,,,148.191,149.499,0,1,0.769,,0,59,59,117,1,pseudoword,0,REAL,FALSA
,,,,,,,,,,001,2025-04-30_08h47.39.345,empathy_intonation_perc,2024.1.4,Win32,59.95203837,,,,,,,,,,,,,,15,test,,,,,,149.5,150.787,1,0,0.757,,0,60,60,14,1,three_way_cognate,1,REAL,FALSA
,,,,,,,,,,001,2025-04-30_08h47.39.345,empathy_intonation_perc,2024.1.4,Win32,59.95203837,,,,,,,,,,,,,,164,tecia,,,,,,150.787,152.787,0,1,1.476,,0,61,61,163,1,pseudoword,0,REAL,FALSA
,,,,,,,,,,001,2025-04-30_08h47.39.345,empathy_intonation_perc,2024.1.4,Win32,59.95203837,,,,,,,,,,,,,,144,diroco,,,,,,152.787,154.038,0,1,0.728,,0,62,62,143,1,pseudoword,0,REAL,FALSA
,,,,,,,,,,001,2025-04-30_08h47.39.345,empathy_intonation_perc,2024.1.4,Win32,59.95203837,,,,,,,,,,,,,,48,pelvis,,,,,,154.039,155.52,1,0,0.937,,0,63,63,47,1,two_way_cognate,1,REAL,FALSA
,,,,,,,,,,001,2025-04-30_08h47.39.345,empathy_intonation_perc,2024.1.4,Win32,59.95203837,,,,,,,,,,,,,,63,hilo,,,,,,155.52,156.737,0,1,0.697,,0,64,64,62,1,non_cognate,1,REAL,FALSA
,,,,,,,,,,001,2025-04-30_08h47.39.345,empathy_intonation_perc,2024.1.4,Win32,59.95203837,,,,,,,,,,,,,,77,suave,,,,,,156.737,157.954,1,0,0.69,,0,65,65,76,1,non_cognate,1,REAL,FALSA
,,,,,,,,,,001,2025-04-30_08h47.39.345,empathy_intonation_perc,2024.1.4,Win32,59.95203837,,,,,,,,,,,,,,142,parre,,,,,,157.954,159.77,1,0,1.272,,0,66,66,141,1,pseudoword,0,REAL,FALSA
,,,,,,,,,,001,2025-04-30_08h47.39.345,empathy_intonation_perc,2024.1.4,Win32,59.95203837,,,,,,,,,,,,,,108,jauda,,,,,,159.771,161.004,0,1,0.692,,0,67,67,107,1,pseudoword,0,REAL,FALSA
,,,,,,,,,,001,2025-04-30_08h47.39.345,empathy_intonation_perc,2024.1.4,Win32,59.95203837,,,,,,,,,,,,,,106,diebro,,,,,,161.005,162.337,0,1,0.806,,0,68,68,105,1,pseudoword,0,REAL,FALSA
,,,,,,,,,,001,2025-04-30_08h47.39.345,empathy_intonation_perc,2024.1.4,Win32,59.95203837,,,,,,,,,,,,,,140,chorde,,,,,,162.338,164.07,0,1,1.198,,0,69,69,139,1,pseudoword,0,REAL,FALSA
,,,,,,,,,,001,2025-04-30_08h47.39.345,empathy_intonation_perc,2024.1.4,Win32,59.95203837,,,,,,,,,,,,,,36,viable,,,,,,164.071,165.722,1,0,1.113,,0,70,70,35,1,two_way_cognate,1,REAL,FALSA
,,,,,,,,,,001,2025-04-30_08h47.39.345,empathy_intonation_perc,2024.1.4,Win32,59.95203837,,,,,,,,,,,,,,157,seled,,,,,,165.723,166.97,0,1,0.716,,0,71,71,156,1,pseudoword,0,REAL,FALSA
,,,,,,,,,,001,2025-04-30_08h47.39.345,empathy_intonation_perc,2024.1.4,Win32,59.95203837,,,,,,,,,,,,,,120,mauja,,,,,,166.971,168.321,0,1,0.808,,0,72,72,119,1,pseudoword,0,REAL,FALSA
,,,,,,,,,,001,2025-04-30_08h47.39.345,empathy_intonation_perc,2024.1.4,Win32,59.95203837,,,,,,,,,,,,,,2,tumor,,,,,,168.321,170.138,0,1,1.275,,0,73,73,1,1,three_way_cognate,1,REAL,FALSA
,,,,,,,,,,001,2025-04-30_08h47.39.345,empathy_intonation_perc,2024.1.4,Win32,59.95203837,,,,,,,,,,,,,,183,edioso,,,,,,170.138,171.671,1,0,1.003,,0,74,74,182,1,pseudoword,0,REAL,FALSA
,,,,,,,,,,001,2025-04-30_08h47.39.345,empathy_intonation_perc,2024.1.4,Win32,59.95203837,,,,,,,,,,,,,,45,total,,,,,,171.674,173.522,1,0,1.312,,0,75,75,44,1,two_way_cognate,1,REAL,FALSA
,,,,,,,,,,001,2025-04-30_08h47.39.345,empathy_intonation_perc,2024.1.4,Win32,59.95203837,,,,,,,,,,,,,,143,hurcos,,,,,,173.523,174.987,0,1,0.928,,0,76,76,142,1,pseudoword,0,REAL,FALSA
,,,,,,,,,,001,2025-04-30_08h47.39.345,empathy_intonation_perc,2024.1.4,Win32,59.95203837,,,,,,,,,,,,,,46,mortal,,,,,,174.988,176.381,1,0,0.85,,0,77,77,45,1,two_way_cognate,1,REAL,FALSA
,,,,,,,,,,001,2025-04-30_08h47.39.345,empathy_intonation_perc,2024.1.4,Win32,59.95203837,,,,,,,,,,,,,,192,próces,,,,,,176.381,178.458,1,0,1.539,,0,78,78,191,1,pseudoword,0,REAL,FALSA
,,,,,,,,,,001,2025-04-30_08h47.39.345,empathy_intonation_perc,2024.1.4,Win32,59.95203837,,,,,,,,,,,,,,141,virios,,,,,,178.458,179.772,0,1,0.774,,0,79,79,140,1,pseudoword,0,REAL,FALSA
,,,,,,,,,,001,2025-04-30_08h47.39.345,empathy_intonation_perc,2024.1.4,Win32,59.95203837,,,,,,,,,,,,,,125,ceme,,,,,,179.773,180.938,0,1,0.634,,0,80,80,124,1,pseudoword,0,REAL,FALSA
,,,,,,,,,,001,2025-04-30_08h47.39.345,empathy_intonation_perc,2024.1.4,Win32,59.95203837,,,,,,,,,,,,,,175,tradía,,,,,,180.939,182.454,0,1,0.974,,0,81,81,174,1,pseudoword,0,REAL,FALSA
,,,,,,,,,,001,2025-04-30_08h47.39.345,empathy_intonation_perc,2024.1.4,Win32,59.95203837,,,,,,,,,,,,,,191,frasis,,,,,,182.455,183.838,0,1,0.851,,0,82,82,190,1,pseudoword,0,REAL,FALSA
,,,,,,,,,,001,2025-04-30_08h47.39.345,empathy_intonation_perc,2024.1.4,Win32,59.95203837,,,,,,,,,,,,,,65,guerra,,,,,,183.838,185.09,1,0,0.709,,0,83,83,64,1,non_cognate,1,REAL,FALSA
,,,,,,,,,,001,2025-04-30_08h47.39.345,empathy_intonation_perc,2024.1.4,Win32,59.95203837,,,,,,,,,,,,,,71,torta,,,,,,185.091,186.904,1,0,1.27,,0,84,84,70,1,non_cognate,1,REAL,FALSA
,,,,,,,,,,001,2025-04-30_08h47.39.345,empathy_intonation_perc,2024.1.4,Win32,59.95203837,,,,,,,,,,,,,,35,aurora,,,,,,186.905,188.572,1,0,1.128,,0,85,85,34,1,two_way_cognate,1,REAL,FALSA
,,,,,,,,,,001,2025-04-30_08h47.39.345,empathy_intonation_perc,2024.1.4,Win32,59.95203837,,,,,,,,,,,,,,33,collar,,,,,,188.572,189.787,0,1,0.677,,0,86,86,32,1,two_way_cognate,1,REAL,FALSA
,,,,,,,,,,001,2025-04-30_08h47.39.345,empathy_intonation_perc,2024.1.4,Win32,59.95203837,,,,,,,,,,,,,,114,dibrea,,,,,,189.788,191.721,0,1,1.392,,0,87,87,113,1,pseudoword,0,REAL,FALSA
,,,,,,,,,,001,2025-04-30_08h47.39.345,empathy_intonation_perc,2024.1.4,Win32,59.95203837,,,,,,,,,,,,,,154,harvé,,,,,,191.722,193.289,0,1,1.035,,0,88,88,153,1,pseudoword,0,REAL,FALSA
,,,,,,,,,,001,2025-04-30_08h47.39.345,empathy_intonation_perc,2024.1.4,Win32,59.95203837,,,,,,,,,,,,,,180,pupica,,,,,,193.29,194.755,0,1,0.924,,0,89,89,179,1,pseudoword,0,REAL,FALSA
,,,,,,,,,,001,2025-04-30_08h47.39.345,empathy_intonation_perc,2024.1.4,Win32,59.95203837,,,,,,,,,,,,,,58,colcha,,,,,,194.756,196.789,1,0,1.496,,0,90,90,57,1,non_cognate,1,REAL,FALSA
,,,,,,,,,,001,2025-04-30_08h47.39.345,empathy_intonation_perc,2024.1.4,Win32,59.95203837,,,,,,,,,,,,,,185,aljizo,,,,,,196.79,198.788,0,1,1.458,,0,91,91,184,1,pseudoword,0,REAL,FALSA
,,,,,,,,,,001,2025-04-30_08h47.39.345,empathy_intonation_perc,2024.1.4,Win32,59.95203837,,,,,,,,,,,,,,5,extra,,,,,,198.788,200.104,1,0,0.787,,0,92,92,4,1,three_way_cognate,1,REAL,FALSA
,,,,,,,,,,001,2025-04-30_08h47.39.345,empathy_intonation_perc,2024.1.4,Win32,59.95203837,,,,,,,,,,,,,,184,huenos,,,,,,200.106,201.454,0,1,0.802,,0,93,93,183,1,pseudoword,0,REAL,FALSA
,,,,,,,,,,001,2025-04-30_08h47.39.345,empathy_intonation_perc,2024.1.4,Win32,59.95203837,,,,,,,,,,,,,,162,cengo,,,,,,201.455,203.337,1,0,1.339,,0,94,94,161,1,pseudoword,0,REAL,FALSA
,,,,,,,,,,001,2025-04-30_08h47.39.345,empathy_intonation_perc,2024.1.4,Win32,59.95203837,,,,,,,,,,,,,,7,albino,,,,,,203.337,204.64,0,1,0.78,,0,95,95,6,1,three_way_cognate,1,REAL,FALSA
,,,,,,,,,,001,2025-04-30_08h47.39.345,empathy_intonation_perc,2024.1.4,Win32,59.95203837,,,,,,,,,,,,,,87,muleta,,,,,,204.643,206.358,1,0,1.178,,0,96,96,86,1,non_cognate,1,REAL,FALSA
,,,,,,,,,,001,2025-04-30_08h47.39.345,empathy_intonation_perc,2024.1.4,Win32,59.95203837,,,,,,,,,,,,,,92,flecha,,,,,,206.359,208.106,0,1,1.213,,0,97,97,91,1,non_cognate,1,REAL,FALSA
,,,,,,,,,,001,2025-04-30_08h47.39.345,empathy_intonation_perc,2024.1.4,Win32,59.95203837,,,,,,,,,,,,,,131,fuar,,,,,,208.107,209.522,0,1,0.871,,0,98,98,130,1,pseudoword,0,REAL,FALSA
,,,,,,,,,,001,2025-04-30_08h47.39.345,empathy_intonation_perc,2024.1.4,Win32,59.95203837,,,,,,,,,,,,,,168,cobén,,,,,,209.523,211.004,0,1,0.944,,0,99,99,167,1,pseudoword,0,REAL,FALSA
,,,,,,,,,,001,2025-04-30_08h47.39.345,empathy_intonation_perc,2024.1.4,Win32,59.95203837,,,,,,,,,,,,,,6,horror,,,,,,211.005,212.457,1,0,0.906,,0,100,100,5,1,three_way_cognate,1,REAL,FALSA
,,,,,,,,,,001,2025-04-30_08h47.39.345,empathy_intonation_perc,2024.1.4,Win32,59.95203837,,,,,,,,,,,,,,99,bugor,,,,,,212.457,214.122,0,1,1.118,,0,101,101,98,1,pseudoword,0,REAL,FALSA
,,,,,,,,,,001,2025-04-30_08h47.39.345,empathy_intonation_perc,2024.1.4,Win32,59.95203837,,,,,,,,,,,,,,84,aviso,,,,,,214.122,215.624,1,0,0.964,,0,102,102,83,1,non_cognate,1,REAL,FALSA
,,,,,,,,,,001,2025-04-30_08h47.39.345,empathy_intonation_perc,2024.1.4,Win32,59.95203837,,,,,,,,,,,,,,146,gió,,,,,,215.625,216.922,0,1,0.756,,0,103,103,145,1,pseudoword,0,REAL,FALSA
,,,,,,,,,,001,2025-04-30_08h47.39.345,empathy_intonation_perc,2024.1.4,Win32,59.95203837,,,,,,,,,,,,,,138,tator,,,,,,216.923,218.254,0,1,0.802,,0,104,104,137,1,pseudoword,0,REAL,FALSA
,,,,,,,,,,001,2025-04-30_08h47.39.345,empathy_intonation_perc,2024.1.4,Win32,59.95203837,,,,,,,,,,,,,,14,aura,,,,,,218.255,219.538,1,0,0.74,,0,105,105,13,1,three_way_cognate,1,REAL,FALSA
,,,,,,,,,,001,2025-04-30_08h47.39.345,empathy_intonation_perc,2024.1.4,Win32,59.95203837,,,,,,,,,,,,,,8,kilo,,,,,,219.539,221.106,1,0,1.034,,0,106,106,7,1,three_way_cognate,1,REAL,FALSA
,,,,,,,,,,001,2025-04-30_08h47.39.345,empathy_intonation_perc,2024.1.4,Win32,59.95203837,,,,,,,,,,,,,,132,nocó,,,,,,221.106,222.721,0,1,1.07,,0,107,107,131,1,pseudoword,0,REAL,FALSA
,,,,,,,,,,001,2025-04-30_08h47.39.345,empathy_intonation_perc,2024.1.4,Win32,59.95203837,,,,,,,,,,,,,,39,casual,,,,,,222.722,224.238,1,0,0.977,,0,108,108,38,1,two_way_cognate,1,REAL,FALSA
,,,,,,,,,,001,2025-04-30_08h47.39.345,empathy_intonation_perc,2024.1.4,Win32,59.95203837,,,,,,,,,,,,,,80,cuenco,,,,,,224.238,225.705,1,0,0.927,,0,109,109,79,1,non_cognate,1,REAL,FALSA
,,,,,,,,,,001,2025-04-30_08h47.39.345,empathy_intonation_perc,2024.1.4,Win32,59.95203837,,,,,,,,,,,,,,98,martir,,,,,,225.705,226.955,0,1,0.732,,0,110,110,97,1,pseudoword,0,REAL,FALSA
,,,,,,,,,,001,2025-04-30_08h47.39.345,empathy_intonation_perc,2024.1.4,Win32,59.95203837,,,,,,,,,,,,,,83,hálito,,,,,,226.955,228.254,0,1,0.771,,0,111,111,82,1,non_cognate,1,REAL,FALSA
,,,,,,,,,,001,2025-04-30_08h47.39.345,empathy_intonation_perc,2024.1.4,Win32,59.95203837,,,,,,,,,,,,,,42,rumor,,,,,,228.255,229.49,1,0,0.687,,0,112,112,41,1,two_way_cognate,1,REAL,FALSA
,,,,,,,,,,001,2025-04-30_08h47.39.345,empathy_intonation_perc,2024.1.4,Win32,59.95203837,,,,,,,,,,,,,,115,lidena,,,,,,229.49,231.013,0,1,0.983,,0,113,113,114,1,pseudoword,0,REAL,FALSA
,,,,,,,,,,001,2025-04-30_08h47.39.345,empathy_intonation_perc,2024.1.4,Win32,59.95203837,,,,,,,,,,,,,,189,medium,,,,,,231.013,232.655,1,0,1.103,,0,114,114,188,1,pseudoword,0,REAL,FALSA
,,,,,,,,,,001,2025-04-30_08h47.39.345,empathy_intonation_perc,2024.1.4,Win32,59.95203837,,,,,,,,,,,,,,64,rizado,,,,,,232.655,233.738,0,1,0.558,,0,115,115,63,1,non_cognate,1,REAL,FALSA
,,,,,,,,,,001,2025-04-30_08h47.39.345,empathy_intonation_perc,2024.1.4,Win32,59.95203837,,,,,,,,,,,,,,57,regalo,,,,,,233.738,235.805,1,0,1.518,,0,116,116,56,1,non_cognate,1,REAL,FALSA
,,,,,,,,,,001,2025-04-30_08h47.39.345,empathy_intonation_perc,2024.1.4,Win32,59.95203837,,,,,,,,,,,,,,97,nocita,,,,,,235.805,237.106,0,1,0.756,,0,117,117,96,1,pseudoword,0,REAL,FALSA
,,,,,,,,,,001,2025-04-30_08h47.39.345,empathy_intonation_perc,2024.1.4,Win32,59.95203837,,,,,,,,,,,,,,40,pelvis,,,,,,237.109,238.938,1,0,1.289,,0,118,118,39,1,two_way_cognate,1,REAL,FALSA
,,,,,,,,,,001,2025-04-30_08h47.39.345,empathy_intonation_perc,2024.1.4,Win32,59.95203837,,,,,,,,,,,,,,32,animal,,,,,,238.938,240.322,1,0,0.859,,0,119,119,31,1,two_way_cognate,1,REAL,FALSA
,,,,,,,,,,001,2025-04-30_08h47.39.345,empathy_intonation_perc,2024.1.4,Win32,59.95203837,,,,,,,,,,,,,,102,coyo,,,,,,240.322,241.888,0,1,1.023,,0,120,120,101,1,pseudoword,0,REAL,FALSA
,,,,,,,,,,001,2025-04-30_08h47.39.345,empathy_intonation_perc,2024.1.4,Win32,59.95203837,,,,,,,,,,,,,,109,laras,,,,,,241.889,243.905,1,0,1.469,,0,121,121,108,1,pseudoword,0,REAL,FALSA
,,,,,,,,,,001,2025-04-30_08h47.39.345,empathy_intonation_perc,2024.1.4,Win32,59.95203837,,,,,,,,,,,,,,153,golla,,,,,,243.905,245.106,0,1,0.673,,0,122,122,152,1,pseudoword,0,REAL,FALSA
,,,,,,,,,,001,2025-04-30_08h47.39.345,empathy_intonation_perc,2024.1.4,Win32,59.95203837,,,,,,,,,,,,,,110,densó,,,,,,245.107,246.738,1,0,1.088,,0,123,123,109,1,pseudoword,0,REAL,FALSA
,,,,,,,,,,001,2025-04-30_08h47.39.345,empathy_intonation_perc,2024.1.4,Win32,59.95203837,,,,,,,,,,,,,,34,actor,,,,,,246.738,248.508,0,1,1.236,,0,124,124,33,1,two_way_cognate,1,REAL,FALSA
,,,,,,,,,,001,2025-04-30_08h47.39.345,empathy_intonation_perc,2024.1.4,Win32,59.95203837,,,,,,,,,,,,,,81,sacar,,,,,,248.509,249.788,0,1,0.738,,0,125,125,80,1,non_cognate,1,REAL,FALSA
,,,,,,,,,,001,2025-04-30_08h47.39.345,empathy_intonation_perc,2024.1.4,Win32,59.95203837,,,,,,,,,,,,,,89,muñeca,,,,,,249.789,251.305,1,0,0.977,,0,126,126,88,1,non_cognate,1,REAL,FALSA
,,,,,,,,,,001,2025-04-30_08h47.39.345,empathy_intonation_perc,2024.1.4,Win32,59.95203837,,,,,,,,,,,,,,1,moral,,,,,,251.306,253.588,1,0,1.74,,0,127,127,0,1,three_way_cognate,1,REAL,FALSA
,,,,,,,,,,001,2025-04-30_08h47.39.345,empathy_intonation_perc,2024.1.4,Win32,59.95203837,,,,,,,,,,,,,,47,color,,,,,,253.589,255.406,0,1,1.275,,0,128,128,46,1,two_way_cognate,1,REAL,FALSA
,,,,,,,,,,001,2025-04-30_08h47.39.345,empathy_intonation_perc,2024.1.4,Win32,59.95203837,,,,,,,,,,,,,,181,gravés,,,,,,255.407,257.071,0,1,1.132,,0,129,129,180,1,pseudoword,0,REAL,FALSA
,,,,,,,,,,001,2025-04-30_08h47.39.345,empathy_intonation_perc,2024.1.4,Win32,59.95203837,,,,,,,,,,,,,,166,anfia,,,,,,257.071,258.371,0,1,0.765,,0,130,130,165,1,pseudoword,0,REAL,FALSA
,,,,,,,,,,001,2025-04-30_08h47.39.345,empathy_intonation_perc,2024.1.4,Win32,59.95203837,,,,,,,,,,,,,,41,pasta,,,,,,258.372,259.755,1,0,0.841,,0,131,131,40,1,two_way_cognate,1,REAL,FALSA
,,,,,,,,,,001,2025-04-30_08h47.39.345,empathy_intonation_perc,2024.1.4,Win32,59.95203837,,,,,,,,,,,,,,172,dogue,,,,,,259.755,261.04,0,1,0.757,,0,132,132,171,1,pseudoword,0,REAL,FALSA
,,,,,,,,,,001,2025-04-30_08h47.39.345,empathy_intonation_perc,2024.1.4,Win32,59.95203837,,,,,,,,,,,,,,38,halo,,,,,,261.041,262.39,0,1,0.807,,0,133,133,37,1,two_way_cognate,1,REAL,FALSA
,,,,,,,,,,001,2025-04-30_08h47.39.345,empathy_intonation_perc,2024.1.4,Win32,59.95203837,,,,,,,,,,,,,,139,sasos,,,,,,262.39,263.705,0,1,0.776,,0,134,134,138,1,pseudoword,0,REAL,FALSA
,,,,,,,,,,001,2025-04-30_08h47.39.345,empathy_intonation_perc,2024.1.4,Win32,59.95203837,,,,,,,,,,,,,,24,retina,,,,,,263.706,264.988,0,1,0.751,,0,135,135,23,1,three_way_cognate,1,REAL,FALSA
,,,,,,,,,,001,2025-04-30_08h47.39.345,empathy_intonation_perc,2024.1.4,Win32,59.95203837,,,,,,,,,,,,,,69,tiza,,,,,,264.988,266.379,0,1,0.864,,0,136,136,68,1,non_cognate,1,REAL,FALSA
,,,,,,,,,,001,2025-04-30_08h47.39.345,empathy_intonation_perc,2024.1.4,Win32,59.95203837,,,,,,,,,,,,,,105,peniz,,,,,,266.381,267.676,0,1,0.758,,0,137,137,104,1,pseudoword,0,REAL,FALSA
,,,,,,,,,,001,2025-04-30_08h47.39.345,empathy_intonation_perc,2024.1.4,Win32,59.95203837,,,,,,,,,,,,,,179,suelet,,,,,,267.679,269.406,0,1,1.189,,0,138,138,178,1,pseudoword,0,REAL,FALSA
,,,,,,,,,,001,2025-04-30_08h47.39.345,empathy_intonation_perc,2024.1.4,Win32,59.95203837,,,,,,,,,,,,,,124,lobe,,,,,,269.407,270.723,0,1,0.773,,0,139,139,123,1,pseudoword,0,REAL,FALSA
,,,,,,,,,,001,2025-04-30_08h47.39.345,empathy_intonation_perc,2024.1.4,Win32,59.95203837,,,,,,,,,,,,,,59,feo,,,,,,270.724,272.456,0,1,1.19,,0,140,140,58,1,non_cognate,1,REAL,FALSA
,,,,,,,,,,001,2025-04-30_08h47.39.345,empathy_intonation_perc,2024.1.4,Win32,59.95203837,,,,,,,,,,,,,,155,kugis,,,,,,272.457,273.856,0,1,0.862,,0,141,141,154,1,pseudoword,0,REAL,FALSA
,,,,,,,,,,001,2025-04-30_08h47.39.345,empathy_intonation_perc,2024.1.4,Win32,59.95203837,,,,,,,,,,,,,,163,llzan,,,,,,273.857,275.372,0,1,0.979,,0,142,142,162,1,pseudoword,0,REAL,FALSA
,,,,,,,,,,001,2025-04-30_08h47.39.345,empathy_intonation_perc,2024.1.4,Win32,59.95203837,,,,,,,,,,,,,,188,amplir,,,,,,275.374,276.738,1,0,0.824,,0,143,143,187,1,pseudoword,0,REAL,FALSA
,,,,,,,,,,001,2025-04-30_08h47.39.345,empathy_intonation_perc,2024.1.4,Win32,59.95203837,,,,,,,,,,,,,,137,trugo,,,,,,276.739,278.506,1,0,1.228,,0,144,144,136,1,pseudoword,0,REAL,FALSA
,,,,,,,,,,001,2025-04-30_08h47.39.345,empathy_intonation_perc,2024.1.4,Win32,59.95203837,,,,,,,,,,,,,,44,editor,,,,,,278.507,280.34,1,0,1.294,,0,145,145,43,1,two_way_cognate,1,REAL,FALSA
,,,,,,,,,,001,2025-04-30_08h47.39.345,empathy_intonation_perc,2024.1.4,Win32,59.95203837,,,,,,,,,,,,,,127,vien,,,,,,280.34,281.653,1,0,0.783,,0,146,146,126,1,pseudoword,0,REAL,FALSA
,,,,,,,,,,001,2025-04-30_08h47.39.345,empathy_intonation_perc,2024.1.4,Win32,59.95203837,,,,,,,,,,,,,,187,nomata,,,,,,281.653,283.222,0,1,1.042,,0,147,147,186,1,pseudoword,0,REAL,FALSA
,,,,,,,,,,001,2025-04-30_08h47.39.345,empathy_intonation_perc,2024.1.4,Win32,59.95203837,,,,,,,,,,,,,,116,grigir,,,,,,283.223,284.607,0,1,0.838,,0,148,148,115,1,pseudoword,0,REAL,FALSA
,,,,,,,,,,001,2025-04-30_08h47.39.345,empathy_intonation_perc,2024.1.4,Win32,59.95203837,,,,,,,,,,,,,,169,pitis,,,,,,284.607,285.856,0,1,0.705,,0,149,149,168,1,pseudoword,0,REAL,FALSA
,,,,,,,,,,001,2025-04-30_08h47.39.345,empathy_intonation_perc,2024.1.4,Win32,59.95203837,,,,,,,,,,,,,,25,vigor,,,,,,285.856,287.255,0,1,0.851,,0,150,150,24,1,two_way_cognate,1,REAL,FALSA
,,,,,,,,,,001,2025-04-30_08h47.39.345,empathy_intonation_perc,2024.1.4,Win32,59.95203837,,,,,,,,,,,,,,21,hotel,,,,,,287.255,288.805,1,0,1.016,,0,151,151,20,1,three_way_cognate,1,REAL,FALSA
,,,,,,,,,,001,2025-04-30_08h47.39.345,empathy_intonation_perc,2024.1.4,Win32,59.95203837,,,,,,,,,,,,,,52,blando,,,,,,288.806,291.189,1,0,1.84,,0,152,152,51,1,non_cognate,1,REAL,FALSA
,,,,,,,,,,001,2025-04-30_08h47.39.345,empathy_intonation_perc,2024.1.4,Win32,59.95203837,,,,,,,,,,,,,,29,clamor,,,,,,291.189,292.507,0,1,0.776,,0,153,153,28,1,two_way_cognate,1,REAL,FALSA
,,,,,,,,,,001,2025-04-30_08h47.39.345,empathy_intonation_perc,2024.1.4,Win32,59.95203837,,,,,,,,,,,,,,68,puñal,,,,,,292.508,293.889,1,0,0.838,,0,154,154,67,1,non_cognate,1,REAL,FALSA
,,,,,,,,,,001,2025-04-30_08h47.39.345,empathy_intonation_perc,2024.1.4,Win32,59.95203837,,,,,,,,,,,,,,160,fomeó,,,,,,293.89,295.238,1,0,0.805,,0,155,155,159,1,pseudoword,0,REAL,FALSA
,,,,,,,,,,001,2025-04-30_08h47.39.345,empathy_intonation_perc,2024.1.4,Win32,59.95203837,,,,,,,,,,,,,,51,listo,,,,,,295.239,296.622,1,0,0.84,,0,156,156,50,1,non_cognate,1,REAL,FALSA
,,,,,,,,,,001,2025-04-30_08h47.39.345,empathy_intonation_perc,2024.1.4,Win32,59.95203837,,,,,,,,,,,,,,19,mafia,,,,,,296.622,298.205,0,1,1.054,,0,157,157,18,1,three_way_cognate,1,REAL,FALSA
,,,,,,,,,,001,2025-04-30_08h47.39.345,empathy_intonation_perc,2024.1.4,Win32,59.95203837,,,,,,,,,,,,,,190,asumie,,,,,,298.206,299.472,0,1,0.75,,0,158,158,189,1,pseudoword,0,REAL,FALSA
,,,,,,,,,,001,2025-04-30_08h47.39.345,empathy_intonation_perc,2024.1.4,Win32,59.95203837,,,,,,,,,,,,,,128,pelí,,,,,,299.473,300.656,0,1,0.633,,0,159,159,127,1,pseudoword,0,REAL,FALSA
,,,,,,,,,,001,2025-04-30_08h47.39.345,empathy_intonation_perc,2024.1.4,Win32,59.95203837,,,,,,,,,,,,,,177,entodo,,,,,,300.659,302.322,0,1,1.122,,0,160,160,176,1,pseudoword,0,REAL,FALSA
,,,,,,,,,,001,2025-04-30_08h47.39.345,empathy_intonation_perc,2024.1.4,Win32,59.95203837,,,,,,,,,,,,,,104,estulo,,,,,,302.323,303.64,0,1,0.782,,0,161,161,103,1,pseudoword,0,REAL,FALSA
,,,,,,,,,,001,2025-04-30_08h47.39.345,empathy_intonation_perc,2024.1.4,Win32,59.95203837,,,,,,,,,,,,,,158,babrá,,,,,,303.64,305.197,0,1,1.027,,0,162,162,157,1,pseudoword,0,REAL,FALSA
,,,,,,,,,,001,2025-04-30_08h47.39.345,empathy_intonation_perc,2024.1.4,Win32,59.95203837,,,,,,,,,,,,,,23,plural,,,,,,305.197,307.456,1,0,1.723,,0,163,163,22,1,three_way_cognate,1,REAL,FALSA
,,,,,,,,,,001,2025-04-30_08h47.39.345,empathy_intonation_perc,2024.1.4,Win32,59.95203837,,,,,,,,,,,,,,26,enigma,,,,,,307.457,308.956,1,0,0.956,,0,164,164,25,1,two_way_cognate,1,REAL,FALSA
,,,,,,,,,,001,2025-04-30_08h47.39.345,empathy_intonation_perc,2024.1.4,Win32,59.95203837,,,,,,,,,,,,,,18,altar,,,,,,308.957,310.44,0,1,0.939,,0,165,165,17,1,three_way_cognate,1,REAL,FALSA
,,,,,,,,,,001,2025-04-30_08h47.39.345,empathy_intonation_perc,2024.1.4,Win32,59.95203837,,,,,,,,,,,,,,54,tapón,,,,,,310.44,311.889,1,0,0.916,,0,166,166,53,1,non_cognate,1,REAL,FALSA
,,,,,,,,,,001,2025-04-30_08h47.39.345,empathy_intonation_perc,2024.1.4,Win32,59.95203837,,,,,,,,,,,,,,43,honor,,,,,,311.89,315.025,0,1,2.603,,0,167,167,42,1,two_way_cognate,1,REAL,FALSA
,,,,,,,,,,001,2025-04-30_08h47.39.345,empathy_intonation_perc,2024.1.4,Win32,59.95203837,,,,,,,,,,,,,,37,torso,,,,,,315.026,316.923,1,0,1.35,,0,168,168,36,1,two_way_cognate,1,REAL,FALSA
,,,,,,,,,,001,2025-04-30_08h47.39.345,empathy_intonation_perc,2024.1.4,Win32,59.95203837,,,,,,,,,,,,,,11,golf,,,,,,316.924,318.205,0,1,0.754,,0,169,169,10,1,three_way_cognate,1,REAL,FALSA
,,,,,,,,,,001,2025-04-30_08h47.39.345,empathy_intonation_perc,2024.1.4,Win32,59.95203837,,,,,,,,,,,,,,126,tobre,,,,,,318.206,319.524,0,1,0.796,,0,170,170,125,1,pseudoword,0,REAL,FALSA
,,,,,,,,,,001,2025-04-30_08h47.39.345,empathy_intonation_perc,2024.1.4,Win32,59.95203837,,,,,,,,,,,,,,3,disco,,,,,,319.524,320.789,0,1,0.724,,0,171,171,2,1,three_way_cognate,1,REAL,FALSA
,,,,,,,,,,001,2025-04-30_08h47.39.345,empathy_intonation_perc,2024.1.4,Win32,59.95203837,,,,,,,,,,,,,,96,caro,,,,,,320.789,322.074,0,1,0.754,,0,172,172,95,1,non_cognate,1,REAL,FALSA
,,,,,,,,,,001,2025-04-30_08h47.39.345,empathy_intonation_perc,2024.1.4,Win32,59.95203837,,,,,,,,,,,,,,61,aduana,,,,,,322.075,323.806,0,1,1.194,,0,173,173,60,1,non_cognate,1,REAL,FALSA
,,,,,,,,,,001,2025-04-30_08h47.39.345,empathy_intonation_perc,2024.1.4,Win32,59.95203837,,,,,,,,,,,,,,148,gino,,,,,,323.807,325.09,0,1,0.75,,0,174,174,147,1,pseudoword,0,REAL,FALSA
,,,,,,,,,,001,2025-04-30_08h47.39.345,empathy_intonation_perc,2024.1.4,Win32,59.95203837,,,,,,,,,,,,,,165,chote,,,,,,325.09,326.826,1,0,1.213,,0,175,175,164,1,pseudoword,0,REAL,FALSA
,,,,,,,,,,001,2025-04-30_08h47.39.345,empathy_intonation_perc,2024.1.4,Win32,59.95203837,,,,,,,,,,,,,,4,flora,,,,,,326.826,328.556,0,1,1.189,,0,176,176,3,1,three_way_cognate,1,REAL,FALSA
,,,,,,,,,,001,2025-04-30_08h47.39.345,empathy_intonation_perc,2024.1.4,Win32,59.95203837,,,,,,,,,,,,,,20,trauma,,,,,,328.557,330.423,0,1,1.333,,0,177,177,19,1,three_way_cognate,1,REAL,FALSA
,,,,,,,,,,001,2025-04-30_08h47.39.345,empathy_intonation_perc,2024.1.4,Win32,59.95203837,,,,,,,,,,,,,,93,tapa,,,,,,330.424,332.309,1,0,1.351,,0,178,178,92,1,non_cognate,1,REAL,FALSA
,,,,,,,,,,001,2025-04-30_08h47.39.345,empathy_intonation_perc,2024.1.4,Win32,59.95203837,,,,,,,,,,,,,,91,equipo,,,,,,332.313,334.041,1,0,1.191,,0,179,179,90,1,non_cognate,1,REAL,FALSA
,,,,,,,,,,001,2025-04-30_08h47.39.345,empathy_intonation_perc,2024.1.4,Win32,59.95203837,,,,,,,,,,,,,,50,sierra,,,,,,334.043,335.489,1,0,0.908,,0,180,180,49,1,non_cognate,1,REAL,FALSA
,,,,,,,,,,001,2025-04-30_08h47.39.345,empathy_intonation_perc,2024.1.4,Win32,59.95203837,,,,,,,,,,,,,,117,morrá,,,,,,335.489,337.923,1,0,1.909,,0,181,181,116,1,pseudoword,0,REAL,FALSA
,,,,,,,,,,001,2025-04-30_08h47.39.345,empathy_intonation_perc,2024.1.4,Win32,59.95203837,,,,,,,,,,,,,,62,pegar,,,,,,337.923,339.444,0,1,0.989,,0,182,182,61,1,non_cognate,1,REAL,FALSA
,,,,,,,,,,001,2025-04-30_08h47.39.345,empathy_intonation_perc,2024.1.4,Win32,59.95203837,,,,,,,,,,,,,,103,vueras,,,,,,339.444,340.89,0,1,0.909,,0,183,183,102,1,pseudoword,0,REAL,FALSA
,,,,,,,,,,001,2025-04-30_08h47.39.345,empathy_intonation_perc,2024.1.4,Win32,59.95203837,,,,,,,,,,,,,,75,patada,,,,,,340.891,342.056,0,1,0.624,,0,184,184,74,1,non_cognate,1,REAL,FALSA
,,,,,,,,,,001,2025-04-30_08h47.39.345,empathy_intonation_perc,2024.1.4,Win32,59.95203837,,,,,,,,,,,,,,16,chat,,,,,,342.056,343.44,0,1,0.858,,0,185,185,15,1,three_way_cognate,1,REAL,FALSA
,,,,,,,,,,001,2025-04-30_08h47.39.345,empathy_intonation_perc,2024.1.4,Win32,59.95203837,,,,,,,,,,,,,,159,trcia,,,,,,343.44,344.656,0,1,0.673,,0,186,186,158,1,pseudoword,0,REAL,FALSA
,,,,,,,,,,001,2025-04-30_08h47.39.345,empathy_intonation_perc,2024.1.4,Win32,59.95203837,,,,,,,,,,,,,,13,plan,,,,,,344.657,346.457,0,1,1.26,,0,187,187,12,1,three_way_cognate,1,REAL,FALSA
,,,,,,,,,,001,2025-04-30_08h47.39.345,empathy_intonation_perc,2024.1.4,Win32,59.95203837,,,,,,,,,,,,,,150,cricó,,,,,,346.458,348.039,0,1,1.042,,0,188,188,149,1,pseudoword,0,REAL,FALSA
,,,,,,,,,,001,2025-04-30_08h47.39.345,empathy_intonation_perc,2024.1.4,Win32,59.95203837,,,,,,,,,,,,,,27,piano,,,,,,348.041,349.923,1,0,1.347,,0,189,189,26,1,two_way_cognate,1,REAL,FALSA
,,,,,,,,,,001,2025-04-30_08h47.39.345,empathy_intonation_perc,2024.1.4,Win32,59.95203837,,,,,,,,,,,,,,151,prías,,,,,,349.923,351.256,0,1,0.809,,0,190,190,150,1,pseudoword,0,REAL,FALSA
,,,,,,,,,,001,2025-04-30_08h47.39.345,empathy_intonation_perc,2024.1.4,Win32,59.95203837,,,,,,,,,,,,,,121,barbs,,,,,,351.256,352.406,0,1,0.624,,0,191,191,120,1,pseudoword,0,REAL,FALSA
