lextale_instructions.started,lextale_instructions.stopped,lextale_instructions_loop.thisRepN,lextale_instructions_loop.thisTrialN,lextale_instructions_loop.thisN,lextale_instructions_loop.thisIndex,lextale_instructions_loop.ran,instructions_text,continue_text,participant,session,date,expName,psychopyVersion,OS,frameRate,lextale_practice.started,lextale_practice.stopped,key_resp_lextale_practice.keys,key_resp_lextale_practice.corr,key_resp_lextale_practice.rt,key_resp_lextale_practice.duration,lextale_practice_feedback.started,lextale_practice_feedback.stopped,lextale_practice_trials.thisRepN,lextale_practice_trials.thisTrialN,lextale_practice_trials.thisN,lextale_practice_trials.thisIndex,lextale_practice_trials.ran,stim,word,correct_response,prac_button_real,prac_button_false,lextale_check.started,lextale_check.stopped,lextale_trial.started,lextale_trial.stopped,key_resp_lextale_trial.keys,key_resp_lextale_trial.corr,key_resp_lextale_trial.rt,key_resp_lextale_trial.duration,lextail_trials.thisRepN,lextail_trials.thisTrialN,lextail_trials.thisN,lextail_trials.thisIndex,lextail_trials.ran,type,correct_reponse,button_real,button_false
0.002,11.78,0,0,0,0,1,"Este es un test de vocabulario en español. 
  
  A continuación vas a ver 90 secuencias de letras que parecen 'españolas'.
  
  Solo algunas de ellas son palabras de verdad.",(presiona la barra espaciadora para continuar),,001,2025-05-06_19h10.49.901,empathy_intonation_perc,2024.1.4,Win32,60.09615385,,,,,,,,,,,,,,,,,,,,,,,,,,,,,,,,,,,
11.78,20.258,0,1,1,1,1,"Por favor, señala las palabras que tú conoces (aquellas que estás convencido que son palabras españolas, incluso aunque no seas capaz de dar el significado preciso).",(presiona la barra espaciadora para continuar),,001,2025-05-06_19h10.49.901,empathy_intonation_perc,2024.1.4,Win32,60.09615385,,,,,,,,,,,,,,,,,,,,,,,,,,,,,,,,,,,
20.258,35.946,0,2,2,2,1,Pero cuidado: los errores se penalizan. Por eso no tiene sentido tratar de incrementar tu puntuación marcando como reales palabras que nunca has visto.,(presiona la barra espaciadora para continuar),,001,2025-05-06_19h10.49.901,empathy_intonation_perc,2024.1.4,Win32,60.09615385,,,,,,,,,,,,,,,,,,,,,,,,,,,,,,,,,,,
35.948,38.743,0,3,3,3,1,"Presiona la tecla 1 si piensas que es una palabra real y la tecla 
  0 si piensas que es una palabra falsa. 
  
  Vamos a practicar un poco...",(presiona la barra espaciadora para continuar),,001,2025-05-06_19h10.49.901,empathy_intonation_perc,2024.1.4,Win32,60.09615385,,,,,,,,,,,,,,,,,,,,,,,,,,,,,,,,,,,
,,,,,,,,,,001,2025-05-06_19h10.49.901,empathy_intonation_perc,2024.1.4,Win32,60.09615385,38.746,40.258,1,0,0.967,,40.258,41.257,0,0,0,0,1,0,depiste,0,REAL,FALSA,,,,,,,,,,,,,,,,,
,,,,,,,,,,001,2025-05-06_19h10.49.901,empathy_intonation_perc,2024.1.4,Win32,60.09615385,41.258,43.921,1,1,2.138,,43.921,44.921,0,1,1,1,1,0,sí,1,REAL,FALSA,,,,,,,,,,,,,,,,,
,,,,,,,,,,001,2025-05-06_19h10.49.901,empathy_intonation_perc,2024.1.4,Win32,60.09615385,44.921,47.801,0,1,2.34,,47.801,48.801,0,2,2,2,1,0,coné,0,REAL,FALSA,,,,,,,,,,,,,,,,,
,,,,,,,,,,001,2025-05-06_19h10.49.901,empathy_intonation_perc,2024.1.4,Win32,60.09615385,48.801,51.765,1,0,2.44,,51.765,52.764,0,3,3,3,1,0,calpar,0,REAL,FALSA,,,,,,,,,,,,,,,,,
,,,,,,,,,,001,2025-05-06_19h10.49.901,empathy_intonation_perc,2024.1.4,Win32,60.09615385,52.765,54.779,0,1,1.48,,54.779,55.779,0,4,4,4,1,0,joten,0,REAL,FALSA,,,,,,,,,,,,,,,,,
,,,,,,,,,,001,2025-05-06_19h10.49.901,empathy_intonation_perc,2024.1.4,Win32,60.09615385,55.78,57.91,0,0,1.602,,57.91,58.91,0,5,5,5,1,0,sacapuntas,1,REAL,FALSA,,,,,,,,,,,,,,,,,
,,,,,,,,,,001,2025-05-06_19h10.49.901,empathy_intonation_perc,2024.1.4,Win32,60.09615385,58.91,61.224,1,0,1.777,,61.224,62.223,0,6,6,6,1,0,priba,0,REAL,FALSA,,,,,,,,,,,,,,,,,
,,,,,,,,,,001,2025-05-06_19h10.49.901,empathy_intonation_perc,2024.1.4,Win32,60.09615385,62.224,67.287,0,1,4.528,,67.287,68.285,0,7,7,7,1,0,pelasula,0,REAL,FALSA,,,,,,,,,,,,,,,,,
,,,,,,,,,,001,2025-05-06_19h10.49.901,empathy_intonation_perc,2024.1.4,Win32,60.09615385,68.287,69.667,1,1,0.846,,69.667,70.667,0,8,8,8,1,0,bien,1,REAL,FALSA,,,,,,,,,,,,,,,,,
,,,,,,,,,,001,2025-05-06_19h10.49.901,empathy_intonation_perc,2024.1.4,Win32,60.09615385,70.668,71.982,1,1,0.784,,71.982,72.981,0,9,9,9,1,0,casa,1,REAL,FALSA,,,,,,,,,,,,,,,,,
,,,,,,,,,,001,2025-05-06_19h10.49.901,empathy_intonation_perc,2024.1.4,Win32,60.09615385,72.982,74.763,1,0,1.251,,74.763,75.762,0,10,10,10,1,0,lejo,0,REAL,FALSA,,,,,,,,,,,,,,,,,
,,,,,,,,,,001,2025-05-06_19h10.49.901,empathy_intonation_perc,2024.1.4,Win32,60.09615385,75.762,77.794,0,1,1.497,,77.794,78.793,0,11,11,11,1,0,pretantas,0,REAL,FALSA,,,,,,,,,,,,,,,,,
,,,,,,,,,,001,2025-05-06_19h10.49.901,empathy_intonation_perc,2024.1.4,Win32,60.09615385,,,,,,,,,,,,,,,,,,,78.793,81.558,,,,,,,,,,,,,,,
,,,,,,,,,,001,2025-05-06_19h10.49.901,empathy_intonation_perc,2024.1.4,Win32,60.09615385,,,,,,,,,,,,,,28,ardor,,,,,,81.566,83.505,1,0,1.404,,0,0,0,27,1,two_way_cognate,1,REAL,FALSA
,,,,,,,,,,001,2025-05-06_19h10.49.901,empathy_intonation_perc,2024.1.4,Win32,60.09615385,,,,,,,,,,,,,,126,tobre,,,,,,83.506,85.471,0,1,1.428,,0,1,1,125,1,pseudoword,0,REAL,FALSA
,,,,,,,,,,001,2025-05-06_19h10.49.901,empathy_intonation_perc,2024.1.4,Win32,60.09615385,,,,,,,,,,,,,,165,chote,,,,,,85.472,86.886,0,1,0.869,,0,2,2,164,1,pseudoword,0,REAL,FALSA
,,,,,,,,,,001,2025-05-06_19h10.49.901,empathy_intonation_perc,2024.1.4,Win32,60.09615385,,,,,,,,,,,,,,18,altar,,,,,,86.886,88.285,1,0,0.886,,0,3,3,17,1,three_way_cognate,1,REAL,FALSA
,,,,,,,,,,001,2025-05-06_19h10.49.901,empathy_intonation_perc,2024.1.4,Win32,60.09615385,,,,,,,,,,,,,,160,fomeó,,,,,,88.285,89.917,0,1,1.1,,0,4,4,159,1,pseudoword,0,REAL,FALSA
,,,,,,,,,,001,2025-05-06_19h10.49.901,empathy_intonation_perc,2024.1.4,Win32,60.09615385,,,,,,,,,,,,,,59,feo,,,,,,89.918,91.283,1,0,0.842,,0,5,5,58,1,non_cognate,1,REAL,FALSA
,,,,,,,,,,001,2025-05-06_19h10.49.901,empathy_intonation_perc,2024.1.4,Win32,60.09615385,,,,,,,,,,,,,,95,listo,,,,,,91.283,92.448,1,0,0.636,,0,6,6,94,1,non_cognate,1,REAL,FALSA
,,,,,,,,,,001,2025-05-06_19h10.49.901,empathy_intonation_perc,2024.1.4,Win32,60.09615385,,,,,,,,,,,,,,186,rizate,,,,,,92.448,93.847,0,1,0.888,,0,7,7,185,1,pseudoword,0,REAL,FALSA
,,,,,,,,,,001,2025-05-06_19h10.49.901,empathy_intonation_perc,2024.1.4,Win32,60.09615385,,,,,,,,,,,,,,54,tapón,,,,,,93.848,96.162,1,0,1.767,,0,8,8,53,1,non_cognate,1,REAL,FALSA
,,,,,,,,,,001,2025-05-06_19h10.49.901,empathy_intonation_perc,2024.1.4,Win32,60.09615385,,,,,,,,,,,,,,118,bará,,,,,,96.162,97.328,1,0,0.633,,0,9,9,117,1,pseudoword,0,REAL,FALSA
,,,,,,,,,,001,2025-05-06_19h10.49.901,empathy_intonation_perc,2024.1.4,Win32,60.09615385,,,,,,,,,,,,,,150,cricó,,,,,,97.331,98.56,0,1,0.694,,0,10,10,149,1,pseudoword,0,REAL,FALSA
,,,,,,,,,,001,2025-05-06_19h10.49.901,empathy_intonation_perc,2024.1.4,Win32,60.09615385,,,,,,,,,,,,,,69,tiza,,,,,,98.56,99.926,0,1,0.839,,0,11,11,68,1,non_cognate,1,REAL,FALSA
,,,,,,,,,,001,2025-05-06_19h10.49.901,empathy_intonation_perc,2024.1.4,Win32,60.09615385,,,,,,,,,,,,,,60,siglo,,,,,,99.926,101.174,0,1,0.695,,0,12,12,59,1,non_cognate,1,REAL,FALSA
,,,,,,,,,,001,2025-05-06_19h10.49.901,empathy_intonation_perc,2024.1.4,Win32,60.09615385,,,,,,,,,,,,,,20,trauma,,,,,,101.175,102.323,1,0,0.596,,0,13,13,19,1,three_way_cognate,1,REAL,FALSA
,,,,,,,,,,001,2025-05-06_19h10.49.901,empathy_intonation_perc,2024.1.4,Win32,60.09615385,,,,,,,,,,,,,,5,extra,,,,,,102.324,103.489,1,0,0.62,,0,14,14,4,1,three_way_cognate,1,REAL,FALSA
,,,,,,,,,,001,2025-05-06_19h10.49.901,empathy_intonation_perc,2024.1.4,Win32,60.09615385,,,,,,,,,,,,,,92,flecha,,,,,,103.49,105.138,0,1,1.105,,0,15,15,91,1,non_cognate,1,REAL,FALSA
,,,,,,,,,,001,2025-05-06_19h10.49.901,empathy_intonation_perc,2024.1.4,Win32,60.09615385,,,,,,,,,,,,,,82,brillo,,,,,,105.138,106.253,1,0,0.578,,0,16,16,81,1,non_cognate,1,REAL,FALSA
,,,,,,,,,,001,2025-05-06_19h10.49.901,empathy_intonation_perc,2024.1.4,Win32,60.09615385,,,,,,,,,,,,,,81,sacar,,,,,,106.254,108.268,1,0,1.475,,0,17,17,80,1,non_cognate,1,REAL,FALSA
,,,,,,,,,,001,2025-05-06_19h10.49.901,empathy_intonation_perc,2024.1.4,Win32,60.09615385,,,,,,,,,,,,,,182,desaro,,,,,,108.269,109.917,0,1,1.112,,0,18,18,181,1,pseudoword,0,REAL,FALSA
,,,,,,,,,,001,2025-05-06_19h10.49.901,empathy_intonation_perc,2024.1.4,Win32,60.09615385,,,,,,,,,,,,,,40,pelvis,,,,,,109.918,111.383,1,0,0.921,,0,19,19,39,1,two_way_cognate,1,REAL,FALSA
,,,,,,,,,,001,2025-05-06_19h10.49.901,empathy_intonation_perc,2024.1.4,Win32,60.09615385,,,,,,,,,,,,,,174,pabea,,,,,,111.383,113.248,1,0,1.338,,0,20,20,173,1,pseudoword,0,REAL,FALSA
,,,,,,,,,,001,2025-05-06_19h10.49.901,empathy_intonation_perc,2024.1.4,Win32,60.09615385,,,,,,,,,,,,,,166,anfia,,,,,,113.249,114.913,0,1,1.129,,0,21,21,165,1,pseudoword,0,REAL,FALSA
,,,,,,,,,,001,2025-05-06_19h10.49.901,empathy_intonation_perc,2024.1.4,Win32,60.09615385,,,,,,,,,,,,,,135,panté,,,,,,114.914,116.262,0,1,0.806,,0,22,22,134,1,pseudoword,0,REAL,FALSA
,,,,,,,,,,001,2025-05-06_19h10.49.901,empathy_intonation_perc,2024.1.4,Win32,60.09615385,,,,,,,,,,,,,,46,mortal,,,,,,116.262,117.644,1,0,0.871,,0,23,23,45,1,two_way_cognate,1,REAL,FALSA
,,,,,,,,,,001,2025-05-06_19h10.49.901,empathy_intonation_perc,2024.1.4,Win32,60.09615385,,,,,,,,,,,,,,12,dogma,,,,,,117.645,118.877,1,0,0.693,,0,24,24,11,1,three_way_cognate,1,REAL,FALSA
,,,,,,,,,,001,2025-05-06_19h10.49.901,empathy_intonation_perc,2024.1.4,Win32,60.09615385,,,,,,,,,,,,,,47,color,,,,,,118.877,119.942,1,0,0.525,,0,25,25,46,1,two_way_cognate,1,REAL,FALSA
,,,,,,,,,,001,2025-05-06_19h10.49.901,empathy_intonation_perc,2024.1.4,Win32,60.09615385,,,,,,,,,,,,,,170,diabo,,,,,,119.942,121.474,0,1,1.006,,0,26,26,169,1,pseudoword,0,REAL,FALSA
,,,,,,,,,,001,2025-05-06_19h10.49.901,empathy_intonation_perc,2024.1.4,Win32,60.09615385,,,,,,,,,,,,,,74,ala,,,,,,121.475,122.84,0,1,0.833,,0,27,27,73,1,non_cognate,1,REAL,FALSA
,,,,,,,,,,001,2025-05-06_19h10.49.901,empathy_intonation_perc,2024.1.4,Win32,60.09615385,,,,,,,,,,,,,,48,pelvis,,,,,,122.841,124.355,1,0,0.98,,0,28,28,47,1,two_way_cognate,1,REAL,FALSA
,,,,,,,,,,001,2025-05-06_19h10.49.901,empathy_intonation_perc,2024.1.4,Win32,60.09615385,,,,,,,,,,,,,,119,esís,,,,,,124.356,125.954,0,1,1.068,,0,29,29,118,1,pseudoword,0,REAL,FALSA
,,,,,,,,,,001,2025-05-06_19h10.49.901,empathy_intonation_perc,2024.1.4,Win32,60.09615385,,,,,,,,,,,,,,173,mibro,,,,,,125.954,127.603,0,1,1.115,,0,30,30,172,1,pseudoword,0,REAL,FALSA
,,,,,,,,,,001,2025-05-06_19h10.49.901,empathy_intonation_perc,2024.1.4,Win32,60.09615385,,,,,,,,,,,,,,43,honor,,,,,,127.603,128.902,1,0,0.759,,0,31,31,42,1,two_way_cognate,1,REAL,FALSA
,,,,,,,,,,001,2025-05-06_19h10.49.901,empathy_intonation_perc,2024.1.4,Win32,60.09615385,,,,,,,,,,,,,,63,hilo,,,,,,128.902,131.201,1,0,1.771,,0,32,32,62,1,non_cognate,1,REAL,FALSA
,,,,,,,,,,001,2025-05-06_19h10.49.901,empathy_intonation_perc,2024.1.4,Win32,60.09615385,,,,,,,,,,,,,,67,llamar,,,,,,131.203,132.416,1,0,0.68,,0,33,33,66,1,non_cognate,1,REAL,FALSA
,,,,,,,,,,001,2025-05-06_19h10.49.901,empathy_intonation_perc,2024.1.4,Win32,60.09615385,,,,,,,,,,,,,,44,editor,,,,,,132.416,133.632,1,0,0.666,,0,34,34,43,1,two_way_cognate,1,REAL,FALSA
,,,,,,,,,,001,2025-05-06_19h10.49.901,empathy_intonation_perc,2024.1.4,Win32,60.09615385,,,,,,,,,,,,,,172,dogue,,,,,,133.632,135.014,0,1,0.846,,0,35,35,171,1,pseudoword,0,REAL,FALSA
,,,,,,,,,,001,2025-05-06_19h10.49.901,empathy_intonation_perc,2024.1.4,Win32,60.09615385,,,,,,,,,,,,,,169,pitis,,,,,,135.014,138.144,0,1,2.596,,0,36,36,168,1,pseudoword,0,REAL,FALSA
,,,,,,,,,,001,2025-05-06_19h10.49.901,empathy_intonation_perc,2024.1.4,Win32,60.09615385,,,,,,,,,,,,,,120,mauja,,,,,,138.145,139.543,0,1,0.857,,0,37,37,119,1,pseudoword,0,REAL,FALSA
,,,,,,,,,,001,2025-05-06_19h10.49.901,empathy_intonation_perc,2024.1.4,Win32,60.09615385,,,,,,,,,,,,,,93,tapa,,,,,,139.544,140.992,1,0,0.914,,0,38,38,92,1,non_cognate,1,REAL,FALSA
,,,,,,,,,,001,2025-05-06_19h10.49.901,empathy_intonation_perc,2024.1.4,Win32,60.09615385,,,,,,,,,,,,,,7,albino,,,,,,140.992,143.29,1,0,1.774,,0,39,39,6,1,three_way_cognate,1,REAL,FALSA
,,,,,,,,,,001,2025-05-06_19h10.49.901,empathy_intonation_perc,2024.1.4,Win32,60.09615385,,,,,,,,,,,,,,171,gotro,,,,,,143.29,145.239,0,1,1.418,,0,40,40,170,1,pseudoword,0,REAL,FALSA
,,,,,,,,,,001,2025-05-06_19h10.49.901,empathy_intonation_perc,2024.1.4,Win32,60.09615385,,,,,,,,,,,,,,36,viable,,,,,,145.239,148.435,1,0,2.657,,0,41,41,35,1,two_way_cognate,1,REAL,FALSA
,,,,,,,,,,001,2025-05-06_19h10.49.901,empathy_intonation_perc,2024.1.4,Win32,60.09615385,,,,,,,,,,,,,,2,tumor,,,,,,148.436,149.701,1,0,0.725,,0,42,42,1,1,three_way_cognate,1,REAL,FALSA
,,,,,,,,,,001,2025-05-06_19h10.49.901,empathy_intonation_perc,2024.1.4,Win32,60.09615385,,,,,,,,,,,,,,123,arane,,,,,,149.702,153.215,0,1,2.977,,0,43,43,122,1,pseudoword,0,REAL,FALSA
,,,,,,,,,,001,2025-05-06_19h10.49.901,empathy_intonation_perc,2024.1.4,Win32,60.09615385,,,,,,,,,,,,,,151,prías,,,,,,153.215,154.997,1,0,1.252,,0,44,44,150,1,pseudoword,0,REAL,FALSA
,,,,,,,,,,001,2025-05-06_19h10.49.901,empathy_intonation_perc,2024.1.4,Win32,60.09615385,,,,,,,,,,,,,,127,vien,,,,,,154.997,156.429,0,1,0.919,,0,45,45,126,1,pseudoword,0,REAL,FALSA
,,,,,,,,,,001,2025-05-06_19h10.49.901,empathy_intonation_perc,2024.1.4,Win32,60.09615385,,,,,,,,,,,,,,16,chat,,,,,,156.429,157.895,1,0,0.952,,0,46,46,15,1,three_way_cognate,1,REAL,FALSA
,,,,,,,,,,001,2025-05-06_19h10.49.901,empathy_intonation_perc,2024.1.4,Win32,60.09615385,,,,,,,,,,,,,,129,vinzó,,,,,,157.895,164.006,0,1,5.561,,0,47,47,128,1,pseudoword,0,REAL,FALSA
,,,,,,,,,,001,2025-05-06_19h10.49.901,empathy_intonation_perc,2024.1.4,Win32,60.09615385,,,,,,,,,,,,,,145,rúo,,,,,,164.009,165.255,0,1,0.717,,0,48,48,144,1,pseudoword,0,REAL,FALSA
,,,,,,,,,,001,2025-05-06_19h10.49.901,empathy_intonation_perc,2024.1.4,Win32,60.09615385,,,,,,,,,,,,,,124,lobe,,,,,,165.255,166.771,0,1,1.004,,0,49,49,123,1,pseudoword,0,REAL,FALSA
,,,,,,,,,,001,2025-05-06_19h10.49.901,empathy_intonation_perc,2024.1.4,Win32,60.09615385,,,,,,,,,,,,,,155,kugis,,,,,,166.771,168.203,0,1,0.895,,0,50,50,154,1,pseudoword,0,REAL,FALSA
,,,,,,,,,,001,2025-05-06_19h10.49.901,empathy_intonation_perc,2024.1.4,Win32,60.09615385,,,,,,,,,,,,,,192,próces,,,,,,168.203,170.234,0,1,1.512,,0,51,51,191,1,pseudoword,0,REAL,FALSA
,,,,,,,,,,001,2025-05-06_19h10.49.901,empathy_intonation_perc,2024.1.4,Win32,60.09615385,,,,,,,,,,,,,,100,épinas,,,,,,170.235,171.551,1,0,0.77,,0,52,52,99,1,pseudoword,0,REAL,FALSA
,,,,,,,,,,001,2025-05-06_19h10.49.901,empathy_intonation_perc,2024.1.4,Win32,60.09615385,,,,,,,,,,,,,,73,llevar,,,,,,171.551,172.749,1,0,0.654,,0,53,53,72,1,non_cognate,1,REAL,FALSA
,,,,,,,,,,001,2025-05-06_19h10.49.901,empathy_intonation_perc,2024.1.4,Win32,60.09615385,,,,,,,,,,,,,,176,gripar,,,,,,172.75,174.315,1,0,1.022,,0,54,54,175,1,pseudoword,0,REAL,FALSA
,,,,,,,,,,001,2025-05-06_19h10.49.901,empathy_intonation_perc,2024.1.4,Win32,60.09615385,,,,,,,,,,,,,,177,entodo,,,,,,174.315,175.68,1,0,0.824,,0,55,55,176,1,pseudoword,0,REAL,FALSA
,,,,,,,,,,001,2025-05-06_19h10.49.901,empathy_intonation_perc,2024.1.4,Win32,60.09615385,,,,,,,,,,,,,,98,martir,,,,,,175.68,177.179,1,0,0.985,,0,56,56,97,1,pseudoword,0,REAL,FALSA
,,,,,,,,,,001,2025-05-06_19h10.49.901,empathy_intonation_perc,2024.1.4,Win32,60.09615385,,,,,,,,,,,,,,78,rendir,,,,,,177.179,178.628,0,1,0.9,,0,57,57,77,1,non_cognate,1,REAL,FALSA
,,,,,,,,,,001,2025-05-06_19h10.49.901,empathy_intonation_perc,2024.1.4,Win32,60.09615385,,,,,,,,,,,,,,102,coyo,,,,,,178.628,179.793,0,1,0.616,,0,58,58,101,1,pseudoword,0,REAL,FALSA
,,,,,,,,,,001,2025-05-06_19h10.49.901,empathy_intonation_perc,2024.1.4,Win32,60.09615385,,,,,,,,,,,,,,29,clamor,,,,,,179.794,181.143,0,1,0.801,,0,59,59,28,1,two_way_cognate,1,REAL,FALSA
,,,,,,,,,,001,2025-05-06_19h10.49.901,empathy_intonation_perc,2024.1.4,Win32,60.09615385,,,,,,,,,,,,,,33,collar,,,,,,181.143,182.374,1,0,0.691,,0,60,60,32,1,two_way_cognate,1,REAL,FALSA
,,,,,,,,,,001,2025-05-06_19h10.49.901,empathy_intonation_perc,2024.1.4,Win32,60.09615385,,,,,,,,,,,,,,77,suave,,,,,,182.374,183.674,1,0,0.764,,0,61,61,76,1,non_cognate,1,REAL,FALSA
,,,,,,,,,,001,2025-05-06_19h10.49.901,empathy_intonation_perc,2024.1.4,Win32,60.09615385,,,,,,,,,,,,,,71,torta,,,,,,183.674,184.839,1,0,0.633,,0,62,62,70,1,non_cognate,1,REAL,FALSA
,,,,,,,,,,001,2025-05-06_19h10.49.901,empathy_intonation_perc,2024.1.4,Win32,60.09615385,,,,,,,,,,,,,,154,harvé,,,,,,184.84,186.122,0,1,0.746,,0,63,63,153,1,pseudoword,0,REAL,FALSA
,,,,,,,,,,001,2025-05-06_19h10.49.901,empathy_intonation_perc,2024.1.4,Win32,60.09615385,,,,,,,,,,,,,,23,plural,,,,,,186.122,187.337,1,0,0.68,,0,64,64,22,1,three_way_cognate,1,REAL,FALSA
,,,,,,,,,,001,2025-05-06_19h10.49.901,empathy_intonation_perc,2024.1.4,Win32,60.09615385,,,,,,,,,,,,,,32,animal,,,,,,187.338,188.536,1,0,0.656,,0,65,65,31,1,two_way_cognate,1,REAL,FALSA
,,,,,,,,,,001,2025-05-06_19h10.49.901,empathy_intonation_perc,2024.1.4,Win32,60.09615385,,,,,,,,,,,,,,189,medium,,,,,,188.537,189.719,1,0,0.632,,0,66,66,188,1,pseudoword,0,REAL,FALSA
,,,,,,,,,,001,2025-05-06_19h10.49.901,empathy_intonation_perc,2024.1.4,Win32,60.09615385,,,,,,,,,,,,,,114,dibrea,,,,,,189.719,191.184,0,1,0.921,,0,67,67,113,1,pseudoword,0,REAL,FALSA
,,,,,,,,,,001,2025-05-06_19h10.49.901,empathy_intonation_perc,2024.1.4,Win32,60.09615385,,,,,,,,,,,,,,25,vigor,,,,,,191.184,192.383,0,1,0.678,,0,68,68,24,1,two_way_cognate,1,REAL,FALSA
,,,,,,,,,,001,2025-05-06_19h10.49.901,empathy_intonation_perc,2024.1.4,Win32,60.09615385,,,,,,,,,,,,,,3,disco,,,,,,192.384,193.565,1,0,0.638,,0,69,69,2,1,three_way_cognate,1,REAL,FALSA
,,,,,,,,,,001,2025-05-06_19h10.49.901,empathy_intonation_perc,2024.1.4,Win32,60.09615385,,,,,,,,,,,,,,115,lidena,,,,,,193.566,195.114,0,1,1.018,,0,70,70,114,1,pseudoword,0,REAL,FALSA
,,,,,,,,,,001,2025-05-06_19h10.49.901,empathy_intonation_perc,2024.1.4,Win32,60.09615385,,,,,,,,,,,,,,188,amplir,,,,,,195.114,196.38,0,1,0.735,,0,71,71,187,1,pseudoword,0,REAL,FALSA
,,,,,,,,,,001,2025-05-06_19h10.49.901,empathy_intonation_perc,2024.1.4,Win32,60.09615385,,,,,,,,,,,,,,39,casual,,,,,,196.38,197.529,1,0,0.607,,0,72,72,38,1,two_way_cognate,1,REAL,FALSA
,,,,,,,,,,001,2025-05-06_19h10.49.901,empathy_intonation_perc,2024.1.4,Win32,60.09615385,,,,,,,,,,,,,,185,aljizo,,,,,,197.531,200.01,0,1,1.932,,0,73,73,184,1,pseudoword,0,REAL,FALSA
,,,,,,,,,,001,2025-05-06_19h10.49.901,empathy_intonation_perc,2024.1.4,Win32,60.09615385,,,,,,,,,,,,,,112,samón,,,,,,200.011,201.575,0,1,1.026,,0,74,74,111,1,pseudoword,0,REAL,FALSA
,,,,,,,,,,001,2025-05-06_19h10.49.901,empathy_intonation_perc,2024.1.4,Win32,60.09615385,,,,,,,,,,,,,,116,grigir,,,,,,201.576,202.792,0,1,0.675,,0,75,75,115,1,pseudoword,0,REAL,FALSA
,,,,,,,,,,001,2025-05-06_19h10.49.901,empathy_intonation_perc,2024.1.4,Win32,60.09615385,,,,,,,,,,,,,,34,actor,,,,,,202.793,204.007,1,0,0.667,,0,76,76,33,1,two_way_cognate,1,REAL,FALSA
,,,,,,,,,,001,2025-05-06_19h10.49.901,empathy_intonation_perc,2024.1.4,Win32,60.09615385,,,,,,,,,,,,,,111,monue,,,,,,204.007,205.772,0,1,1.215,,0,77,77,110,1,pseudoword,0,REAL,FALSA
,,,,,,,,,,001,2025-05-06_19h10.49.901,empathy_intonation_perc,2024.1.4,Win32,60.09615385,,,,,,,,,,,,,,164,tecia,,,,,,205.774,207.171,0,1,0.854,,0,78,78,163,1,pseudoword,0,REAL,FALSA
,,,,,,,,,,001,2025-05-06_19h10.49.901,empathy_intonation_perc,2024.1.4,Win32,60.09615385,,,,,,,,,,,,,,85,enorme,,,,,,207.171,208.303,1,0,0.58,,0,79,79,84,1,non_cognate,1,REAL,FALSA
,,,,,,,,,,001,2025-05-06_19h10.49.901,empathy_intonation_perc,2024.1.4,Win32,60.09615385,,,,,,,,,,,,,,163,llzan,,,,,,208.304,209.735,0,1,0.898,,0,80,80,162,1,pseudoword,0,REAL,FALSA
,,,,,,,,,,001,2025-05-06_19h10.49.901,empathy_intonation_perc,2024.1.4,Win32,60.09615385,,,,,,,,,,,,,,104,estulo,,,,,,209.736,211.301,0,1,1.023,,0,81,81,103,1,pseudoword,0,REAL,FALSA
,,,,,,,,,,001,2025-05-06_19h10.49.901,empathy_intonation_perc,2024.1.4,Win32,60.09615385,,,,,,,,,,,,,,131,fuar,,,,,,211.301,212.467,1,0,0.639,,0,82,82,130,1,pseudoword,0,REAL,FALSA
,,,,,,,,,,001,2025-05-06_19h10.49.901,empathy_intonation_perc,2024.1.4,Win32,60.09615385,,,,,,,,,,,,,,38,halo,,,,,,212.467,213.798,1,0,0.802,,0,83,83,37,1,two_way_cognate,1,REAL,FALSA
,,,,,,,,,,001,2025-05-06_19h10.49.901,empathy_intonation_perc,2024.1.4,Win32,60.09615385,,,,,,,,,,,,,,42,rumor,,,,,,213.799,215.248,1,0,0.91,,0,84,84,41,1,two_way_cognate,1,REAL,FALSA
,,,,,,,,,,001,2025-05-06_19h10.49.901,empathy_intonation_perc,2024.1.4,Win32,60.09615385,,,,,,,,,,,,,,89,muñeca,,,,,,215.248,217.196,1,0,1.407,,0,85,85,88,1,non_cognate,1,REAL,FALSA
,,,,,,,,,,001,2025-05-06_19h10.49.901,empathy_intonation_perc,2024.1.4,Win32,60.09615385,,,,,,,,,,,,,,86,cuenco,,,,,,217.196,218.545,0,1,0.8,,0,86,86,85,1,non_cognate,1,REAL,FALSA
,,,,,,,,,,001,2025-05-06_19h10.49.901,empathy_intonation_perc,2024.1.4,Win32,60.09615385,,,,,,,,,,,,,,157,seled,,,,,,218.545,219.86,0,1,0.766,,0,87,87,156,1,pseudoword,0,REAL,FALSA
,,,,,,,,,,001,2025-05-06_19h10.49.901,empathy_intonation_perc,2024.1.4,Win32,60.09615385,,,,,,,,,,,,,,21,hotel,,,,,,219.861,220.993,1,0,0.592,,0,88,88,20,1,three_way_cognate,1,REAL,FALSA
,,,,,,,,,,001,2025-05-06_19h10.49.901,empathy_intonation_perc,2024.1.4,Win32,60.09615385,,,,,,,,,,,,,,66,aleta,,,,,,220.993,222.741,1,0,1.227,,0,89,89,65,1,non_cognate,1,REAL,FALSA
,,,,,,,,,,001,2025-05-06_19h10.49.901,empathy_intonation_perc,2024.1.4,Win32,60.09615385,,,,,,,,,,,,,,97,nocita,,,,,,222.742,223.94,0,1,0.653,,0,90,90,96,1,pseudoword,0,REAL,FALSA
,,,,,,,,,,001,2025-05-06_19h10.49.901,empathy_intonation_perc,2024.1.4,Win32,60.09615385,,,,,,,,,,,,,,161,civas,,,,,,223.94,225.039,0,1,0.568,,0,91,91,160,1,pseudoword,0,REAL,FALSA
,,,,,,,,,,001,2025-05-06_19h10.49.901,empathy_intonation_perc,2024.1.4,Win32,60.09615385,,,,,,,,,,,,,,101,losco,,,,,,225.039,226.355,0,1,0.789,,0,92,92,100,1,pseudoword,0,REAL,FALSA
,,,,,,,,,,001,2025-05-06_19h10.49.901,empathy_intonation_perc,2024.1.4,Win32,60.09615385,,,,,,,,,,,,,,72,rostro,,,,,,226.355,227.587,0,1,0.715,,0,93,93,71,1,non_cognate,1,REAL,FALSA
,,,,,,,,,,001,2025-05-06_19h10.49.901,empathy_intonation_perc,2024.1.4,Win32,60.09615385,,,,,,,,,,,,,,70,ánimo,,,,,,227.588,228.653,1,0,0.526,,0,94,94,69,1,non_cognate,1,REAL,FALSA
,,,,,,,,,,001,2025-05-06_19h10.49.901,empathy_intonation_perc,2024.1.4,Win32,60.09615385,,,,,,,,,,,,,,76,chocar,,,,,,228.653,230.469,1,0,1.278,,0,95,95,75,1,non_cognate,1,REAL,FALSA
,,,,,,,,,,001,2025-05-06_19h10.49.901,empathy_intonation_perc,2024.1.4,Win32,60.09615385,,,,,,,,,,,,,,6,horror,,,,,,230.472,231.567,1,0,0.561,,0,96,96,5,1,three_way_cognate,1,REAL,FALSA
,,,,,,,,,,001,2025-05-06_19h10.49.901,empathy_intonation_perc,2024.1.4,Win32,60.09615385,,,,,,,,,,,,,,152,prave,,,,,,231.568,232.9,0,1,0.789,,0,97,97,151,1,pseudoword,0,REAL,FALSA
,,,,,,,,,,001,2025-05-06_19h10.49.901,empathy_intonation_perc,2024.1.4,Win32,60.09615385,,,,,,,,,,,,,,141,virios,,,,,,232.9,234.165,0,1,0.722,,0,98,98,140,1,pseudoword,0,REAL,FALSA
,,,,,,,,,,001,2025-05-06_19h10.49.901,empathy_intonation_perc,2024.1.4,Win32,60.09615385,,,,,,,,,,,,,,26,enigma,,,,,,234.166,235.247,1,0,0.55,,0,99,99,25,1,two_way_cognate,1,REAL,FALSA
,,,,,,,,,,001,2025-05-06_19h10.49.901,empathy_intonation_perc,2024.1.4,Win32,60.09615385,,,,,,,,,,,,,,45,total,,,,,,235.248,236.297,1,0,0.515,,0,100,100,44,1,two_way_cognate,1,REAL,FALSA
,,,,,,,,,,001,2025-05-06_19h10.49.901,empathy_intonation_perc,2024.1.4,Win32,60.09615385,,,,,,,,,,,,,,53,punta,,,,,,236.298,237.496,1,0,0.649,,0,101,101,52,1,non_cognate,1,REAL,FALSA
,,,,,,,,,,001,2025-05-06_19h10.49.901,empathy_intonation_perc,2024.1.4,Win32,60.09615385,,,,,,,,,,,,,,144,diroco,,,,,,237.496,239.011,0,1,0.972,,0,102,102,143,1,pseudoword,0,REAL,FALSA
,,,,,,,,,,001,2025-05-06_19h10.49.901,empathy_intonation_perc,2024.1.4,Win32,60.09615385,,,,,,,,,,,,,,99,bugor,,,,,,239.011,239.994,1,0,0.467,,0,103,103,98,1,pseudoword,0,REAL,FALSA
,,,,,,,,,,001,2025-05-06_19h10.49.901,empathy_intonation_perc,2024.1.4,Win32,60.09615385,,,,,,,,,,,,,,62,pegar,,,,,,239.994,241.209,1,0,0.677,,0,104,104,61,1,non_cognate,1,REAL,FALSA
,,,,,,,,,,001,2025-05-06_19h10.49.901,empathy_intonation_perc,2024.1.4,Win32,60.09615385,,,,,,,,,,,,,,117,morrá,,,,,,241.209,242.841,0,1,1.107,,0,105,105,116,1,pseudoword,0,REAL,FALSA
,,,,,,,,,,001,2025-05-06_19h10.49.901,empathy_intonation_perc,2024.1.4,Win32,60.09615385,,,,,,,,,,,,,,178,inichó,,,,,,242.842,244.041,0,1,0.654,,0,106,106,177,1,pseudoword,0,REAL,FALSA
,,,,,,,,,,001,2025-05-06_19h10.49.901,empathy_intonation_perc,2024.1.4,Win32,60.09615385,,,,,,,,,,,,,,49,teñir,,,,,,244.041,245.106,1,0,0.54,,0,107,107,48,1,non_cognate,1,REAL,FALSA
,,,,,,,,,,001,2025-05-06_19h10.49.901,empathy_intonation_perc,2024.1.4,Win32,60.09615385,,,,,,,,,,,,,,75,patada,,,,,,245.107,246.555,1,0,0.904,,0,108,108,74,1,non_cognate,1,REAL,FALSA
,,,,,,,,,,001,2025-05-06_19h10.49.901,empathy_intonation_perc,2024.1.4,Win32,60.09615385,,,,,,,,,,,,,,187,nomata,,,,,,246.555,247.871,0,1,0.778,,0,109,109,186,1,pseudoword,0,REAL,FALSA
,,,,,,,,,,001,2025-05-06_19h10.49.901,empathy_intonation_perc,2024.1.4,Win32,60.09615385,,,,,,,,,,,,,,88,percha,,,,,,247.871,249.087,0,1,0.677,,0,110,110,87,1,non_cognate,1,REAL,FALSA
,,,,,,,,,,001,2025-05-06_19h10.49.901,empathy_intonation_perc,2024.1.4,Win32,60.09615385,,,,,,,,,,,,,,140,chorde,,,,,,249.087,250.269,0,1,0.647,,0,111,111,139,1,pseudoword,0,REAL,FALSA
,,,,,,,,,,001,2025-05-06_19h10.49.901,empathy_intonation_perc,2024.1.4,Win32,60.09615385,,,,,,,,,,,,,,30,fiscal,,,,,,250.269,251.351,1,0,0.549,,0,112,112,29,1,two_way_cognate,1,REAL,FALSA
,,,,,,,,,,001,2025-05-06_19h10.49.901,empathy_intonation_perc,2024.1.4,Win32,60.09615385,,,,,,,,,,,,,,64,rizado,,,,,,251.352,252.884,1,0,0.994,,0,113,113,63,1,non_cognate,1,REAL,FALSA
,,,,,,,,,,001,2025-05-06_19h10.49.901,empathy_intonation_perc,2024.1.4,Win32,60.09615385,,,,,,,,,,,,,,96,caro,,,,,,252.884,254.049,1,0,0.633,,0,114,114,95,1,non_cognate,1,REAL,FALSA
,,,,,,,,,,001,2025-05-06_19h10.49.901,empathy_intonation_perc,2024.1.4,Win32,60.09615385,,,,,,,,,,,,,,8,kilo,,,,,,254.049,255.115,1,0,0.557,,0,115,115,7,1,three_way_cognate,1,REAL,FALSA
,,,,,,,,,,001,2025-05-06_19h10.49.901,empathy_intonation_perc,2024.1.4,Win32,60.09615385,,,,,,,,,,,,,,136,hueas,,,,,,255.116,256.364,1,0,0.716,,0,116,116,135,1,pseudoword,0,REAL,FALSA
,,,,,,,,,,001,2025-05-06_19h10.49.901,empathy_intonation_perc,2024.1.4,Win32,60.09615385,,,,,,,,,,,,,,113,nasce,,,,,,256.364,257.596,0,1,0.684,,0,117,117,112,1,pseudoword,0,REAL,FALSA
,,,,,,,,,,001,2025-05-06_19h10.49.901,empathy_intonation_perc,2024.1.4,Win32,60.09615385,,,,,,,,,,,,,,167,dobbo,,,,,,257.596,258.812,1,0,0.669,,0,118,118,166,1,pseudoword,0,REAL,FALSA
,,,,,,,,,,001,2025-05-06_19h10.49.901,empathy_intonation_perc,2024.1.4,Win32,60.09615385,,,,,,,,,,,,,,79,suelo,,,,,,258.812,260.36,1,0,1.006,,0,119,119,78,1,non_cognate,1,REAL,FALSA
,,,,,,,,,,001,2025-05-06_19h10.49.901,empathy_intonation_perc,2024.1.4,Win32,60.09615385,,,,,,,,,,,,,,90,venado,,,,,,260.361,261.776,1,0,0.883,,0,120,120,89,1,non_cognate,1,REAL,FALSA
,,,,,,,,,,001,2025-05-06_19h10.49.901,empathy_intonation_perc,2024.1.4,Win32,60.09615385,,,,,,,,,,,,,,22,mango,,,,,,261.776,262.925,1,0,0.622,,0,121,121,21,1,three_way_cognate,1,REAL,FALSA
,,,,,,,,,,001,2025-05-06_19h10.49.901,empathy_intonation_perc,2024.1.4,Win32,60.09615385,,,,,,,,,,,,,,146,gió,,,,,,262.925,264.091,0,1,0.645,,0,122,122,145,1,pseudoword,0,REAL,FALSA
,,,,,,,,,,001,2025-05-06_19h10.49.901,empathy_intonation_perc,2024.1.4,Win32,60.09615385,,,,,,,,,,,,,,153,golla,,,,,,264.094,265.49,0,1,0.859,,0,123,123,152,1,pseudoword,0,REAL,FALSA
,,,,,,,,,,001,2025-05-06_19h10.49.901,empathy_intonation_perc,2024.1.4,Win32,60.09615385,,,,,,,,,,,,,,17,clan,,,,,,265.49,266.972,1,0,0.948,,0,124,124,16,1,three_way_cognate,1,REAL,FALSA
,,,,,,,,,,001,2025-05-06_19h10.49.901,empathy_intonation_perc,2024.1.4,Win32,60.09615385,,,,,,,,,,,,,,158,babrá,,,,,,266.972,268.637,0,1,1.123,,0,125,125,157,1,pseudoword,0,REAL,FALSA
,,,,,,,,,,001,2025-05-06_19h10.49.901,empathy_intonation_perc,2024.1.4,Win32,60.09615385,,,,,,,,,,,,,,122,boñaz,,,,,,268.638,269.786,0,1,0.611,,0,126,126,121,1,pseudoword,0,REAL,FALSA
,,,,,,,,,,001,2025-05-06_19h10.49.901,empathy_intonation_perc,2024.1.4,Win32,60.09615385,,,,,,,,,,,,,,37,torso,,,,,,269.787,270.985,1,0,0.653,,0,127,127,36,1,two_way_cognate,1,REAL,FALSA
,,,,,,,,,,001,2025-05-06_19h10.49.901,empathy_intonation_perc,2024.1.4,Win32,60.09615385,,,,,,,,,,,,,,41,pasta,,,,,,270.985,272.068,1,0,0.572,,0,128,128,40,1,two_way_cognate,1,REAL,FALSA
,,,,,,,,,,001,2025-05-06_19h10.49.901,empathy_intonation_perc,2024.1.4,Win32,60.09615385,,,,,,,,,,,,,,137,trugo,,,,,,272.069,273.566,0,1,0.948,,0,129,129,136,1,pseudoword,0,REAL,FALSA
,,,,,,,,,,001,2025-05-06_19h10.49.901,empathy_intonation_perc,2024.1.4,Win32,60.09615385,,,,,,,,,,,,,,134,molor,,,,,,273.567,274.932,1,0,0.816,,0,130,130,133,1,pseudoword,0,REAL,FALSA
,,,,,,,,,,001,2025-05-06_19h10.49.901,empathy_intonation_perc,2024.1.4,Win32,60.09615385,,,,,,,,,,,,,,103,vueras,,,,,,274.933,276.464,0,1,0.996,,0,131,131,102,1,pseudoword,0,REAL,FALSA
,,,,,,,,,,001,2025-05-06_19h10.49.901,empathy_intonation_perc,2024.1.4,Win32,60.09615385,,,,,,,,,,,,,,94,forro,,,,,,276.464,277.68,1,0,0.671,,0,132,132,93,1,non_cognate,1,REAL,FALSA
,,,,,,,,,,001,2025-05-06_19h10.49.901,empathy_intonation_perc,2024.1.4,Win32,60.09615385,,,,,,,,,,,,,,130,dubo,,,,,,277.68,279.161,0,1,0.934,,0,133,133,129,1,pseudoword,0,REAL,FALSA
,,,,,,,,,,001,2025-05-06_19h10.49.901,empathy_intonation_perc,2024.1.4,Win32,60.09615385,,,,,,,,,,,,,,108,jauda,,,,,,279.162,280.311,0,1,0.604,,0,134,134,107,1,pseudoword,0,REAL,FALSA
,,,,,,,,,,001,2025-05-06_19h10.49.901,empathy_intonation_perc,2024.1.4,Win32,60.09615385,,,,,,,,,,,,,,159,trcia,,,,,,280.311,281.427,0,1,0.583,,0,135,135,158,1,pseudoword,0,REAL,FALSA
,,,,,,,,,,001,2025-05-06_19h10.49.901,empathy_intonation_perc,2024.1.4,Win32,60.09615385,,,,,,,,,,,,,,80,cuenco,,,,,,281.427,282.642,1,0,0.68,,0,136,136,79,1,non_cognate,1,REAL,FALSA
,,,,,,,,,,001,2025-05-06_19h10.49.901,empathy_intonation_perc,2024.1.4,Win32,60.09615385,,,,,,,,,,,,,,156,ozoso,,,,,,282.643,284.091,0,1,0.91,,0,137,137,155,1,pseudoword,0,REAL,FALSA
,,,,,,,,,,001,2025-05-06_19h10.49.901,empathy_intonation_perc,2024.1.4,Win32,60.09615385,,,,,,,,,,,,,,24,retina,,,,,,284.091,285.24,1,0,0.616,,0,138,138,23,1,three_way_cognate,1,REAL,FALSA
,,,,,,,,,,001,2025-05-06_19h10.49.901,empathy_intonation_perc,2024.1.4,Win32,60.09615385,,,,,,,,,,,,,,175,tradía,,,,,,285.24,287.238,0,1,1.447,,0,139,139,174,1,pseudoword,0,REAL,FALSA
,,,,,,,,,,001,2025-05-06_19h10.49.901,empathy_intonation_perc,2024.1.4,Win32,60.09615385,,,,,,,,,,,,,,180,pupica,,,,,,287.238,288.704,0,1,0.938,,0,140,140,179,1,pseudoword,0,REAL,FALSA
,,,,,,,,,,001,2025-05-06_19h10.49.901,empathy_intonation_perc,2024.1.4,Win32,60.09615385,,,,,,,,,,,,,,143,hurcos,,,,,,288.704,290.12,0,1,0.878,,0,141,141,142,1,pseudoword,0,REAL,FALSA
,,,,,,,,,,001,2025-05-06_19h10.49.901,empathy_intonation_perc,2024.1.4,Win32,60.09615385,,,,,,,,,,,,,,133,conso,,,,,,290.12,291.951,0,1,1.288,,0,142,142,132,1,pseudoword,0,REAL,FALSA
,,,,,,,,,,001,2025-05-06_19h10.49.901,empathy_intonation_perc,2024.1.4,Win32,60.09615385,,,,,,,,,,,,,,132,nocó,,,,,,291.951,293.134,0,1,0.661,,0,143,143,131,1,pseudoword,0,REAL,FALSA
,,,,,,,,,,001,2025-05-06_19h10.49.901,empathy_intonation_perc,2024.1.4,Win32,60.09615385,,,,,,,,,,,,,,31,civil,,,,,,293.134,294.133,1,0,0.466,,0,144,144,30,1,two_way_cognate,1,REAL,FALSA
,,,,,,,,,,001,2025-05-06_19h10.49.901,empathy_intonation_perc,2024.1.4,Win32,60.09615385,,,,,,,,,,,,,,181,gravés,,,,,,294.133,295.498,1,0,0.822,,0,145,145,180,1,pseudoword,0,REAL,FALSA
,,,,,,,,,,001,2025-05-06_19h10.49.901,empathy_intonation_perc,2024.1.4,Win32,60.09615385,,,,,,,,,,,,,,50,sierra,,,,,,295.498,296.631,1,0,0.608,,0,146,146,49,1,non_cognate,1,REAL,FALSA
,,,,,,,,,,001,2025-05-06_19h10.49.901,empathy_intonation_perc,2024.1.4,Win32,60.09615385,,,,,,,,,,,,,,147,alla,,,,,,296.634,297.646,1,0,0.481,,0,147,147,146,1,pseudoword,0,REAL,FALSA
,,,,,,,,,,001,2025-05-06_19h10.49.901,empathy_intonation_perc,2024.1.4,Win32,60.09615385,,,,,,,,,,,,,,105,peniz,,,,,,297.646,299.362,1,0,1.183,,0,148,148,104,1,pseudoword,0,REAL,FALSA
,,,,,,,,,,001,2025-05-06_19h10.49.901,empathy_intonation_perc,2024.1.4,Win32,60.09615385,,,,,,,,,,,,,,148,gino,,,,,,299.362,300.777,0,1,0.887,,0,149,149,147,1,pseudoword,0,REAL,FALSA
,,,,,,,,,,001,2025-05-06_19h10.49.901,empathy_intonation_perc,2024.1.4,Win32,60.09615385,,,,,,,,,,,,,,179,suelet,,,,,,300.778,302.276,0,1,0.956,,0,150,150,178,1,pseudoword,0,REAL,FALSA
,,,,,,,,,,001,2025-05-06_19h10.49.901,empathy_intonation_perc,2024.1.4,Win32,60.09615385,,,,,,,,,,,,,,168,cobén,,,,,,302.276,303.375,0,1,0.567,,0,151,151,167,1,pseudoword,0,REAL,FALSA
,,,,,,,,,,001,2025-05-06_19h10.49.901,empathy_intonation_perc,2024.1.4,Win32,60.09615385,,,,,,,,,,,,,,14,aura,,,,,,303.375,304.541,1,0,0.637,,0,152,152,13,1,three_way_cognate,1,REAL,FALSA
,,,,,,,,,,001,2025-05-06_19h10.49.901,empathy_intonation_perc,2024.1.4,Win32,60.09615385,,,,,,,,,,,,,,110,densó,,,,,,304.541,305.923,0,1,0.849,,0,153,153,109,1,pseudoword,0,REAL,FALSA
,,,,,,,,,,001,2025-05-06_19h10.49.901,empathy_intonation_perc,2024.1.4,Win32,60.09615385,,,,,,,,,,,,,,107,plago,,,,,,305.923,307.572,1,0,1.103,,0,154,154,106,1,pseudoword,0,REAL,FALSA
,,,,,,,,,,001,2025-05-06_19h10.49.901,empathy_intonation_perc,2024.1.4,Win32,60.09615385,,,,,,,,,,,,,,191,frasis,,,,,,307.572,308.987,0,1,0.875,,0,155,155,190,1,pseudoword,0,REAL,FALSA
,,,,,,,,,,001,2025-05-06_19h10.49.901,empathy_intonation_perc,2024.1.4,Win32,60.09615385,,,,,,,,,,,,,,162,cengo,,,,,,308.987,310.269,0,1,0.75,,0,156,156,161,1,pseudoword,0,REAL,FALSA
,,,,,,,,,,001,2025-05-06_19h10.49.901,empathy_intonation_perc,2024.1.4,Win32,60.09615385,,,,,,,,,,,,,,84,aviso,,,,,,310.27,311.602,1,0,0.79,,0,157,157,83,1,non_cognate,1,REAL,FALSA
,,,,,,,,,,001,2025-05-06_19h10.49.901,empathy_intonation_perc,2024.1.4,Win32,60.09615385,,,,,,,,,,,,,,83,hálito,,,,,,311.602,312.917,0,1,0.781,,0,158,158,82,1,non_cognate,1,REAL,FALSA
,,,,,,,,,,001,2025-05-06_19h10.49.901,empathy_intonation_perc,2024.1.4,Win32,60.09615385,,,,,,,,,,,,,,109,laras,,,,,,312.918,314.25,0,1,0.798,,0,159,159,108,1,pseudoword,0,REAL,FALSA
,,,,,,,,,,001,2025-05-06_19h10.49.901,empathy_intonation_perc,2024.1.4,Win32,60.09615385,,,,,,,,,,,,,,11,golf,,,,,,314.25,315.265,1,0,0.492,,0,160,160,10,1,three_way_cognate,1,REAL,FALSA
,,,,,,,,,,001,2025-05-06_19h10.49.901,empathy_intonation_perc,2024.1.4,Win32,60.09615385,,,,,,,,,,,,,,58,colcha,,,,,,315.266,316.864,0,1,1.057,,0,161,161,57,1,non_cognate,1,REAL,FALSA
,,,,,,,,,,001,2025-05-06_19h10.49.901,empathy_intonation_perc,2024.1.4,Win32,60.09615385,,,,,,,,,,,,,,87,muleta,,,,,,316.864,318.446,1,0,1.063,,0,162,162,86,1,non_cognate,1,REAL,FALSA
,,,,,,,,,,001,2025-05-06_19h10.49.901,empathy_intonation_perc,2024.1.4,Win32,60.09615385,,,,,,,,,,,,,,149,emén,,,,,,318.447,319.645,0,1,0.661,,0,163,163,148,1,pseudoword,0,REAL,FALSA
,,,,,,,,,,001,2025-05-06_19h10.49.901,empathy_intonation_perc,2024.1.4,Win32,60.09615385,,,,,,,,,,,,,,184,huenos,,,,,,319.646,321.044,0,1,0.872,,0,164,164,183,1,pseudoword,0,REAL,FALSA
,,,,,,,,,,001,2025-05-06_19h10.49.901,empathy_intonation_perc,2024.1.4,Win32,60.09615385,,,,,,,,,,,,,,13,plan,,,,,,321.044,322.177,1,0,0.623,,0,165,165,12,1,three_way_cognate,1,REAL,FALSA
,,,,,,,,,,001,2025-05-06_19h10.49.901,empathy_intonation_perc,2024.1.4,Win32,60.09615385,,,,,,,,,,,,,,15,test,,,,,,322.177,323.375,1,0,0.673,,0,166,166,14,1,three_way_cognate,1,REAL,FALSA
,,,,,,,,,,001,2025-05-06_19h10.49.901,empathy_intonation_perc,2024.1.4,Win32,60.09615385,,,,,,,,,,,,,,4,flora,,,,,,323.375,324.458,1,0,0.567,,0,167,167,3,1,three_way_cognate,1,REAL,FALSA
,,,,,,,,,,001,2025-05-06_19h10.49.901,empathy_intonation_perc,2024.1.4,Win32,60.09615385,,,,,,,,,,,,,,190,asumie,,,,,,324.458,326.024,0,1,1.03,,0,168,168,189,1,pseudoword,0,REAL,FALSA
,,,,,,,,,,001,2025-05-06_19h10.49.901,empathy_intonation_perc,2024.1.4,Win32,60.09615385,,,,,,,,,,,,,,55,maldad,,,,,,326.024,327.489,0,1,0.927,,0,169,169,54,1,non_cognate,1,REAL,FALSA
,,,,,,,,,,001,2025-05-06_19h10.49.901,empathy_intonation_perc,2024.1.4,Win32,60.09615385,,,,,,,,,,,,,,125,ceme,,,,,,327.489,328.671,0,1,0.634,,0,170,170,124,1,pseudoword,0,REAL,FALSA
,,,,,,,,,,001,2025-05-06_19h10.49.901,empathy_intonation_perc,2024.1.4,Win32,60.09615385,,,,,,,,,,,,,,61,aduana,,,,,,328.671,329.937,1,0,0.741,,0,171,171,60,1,non_cognate,1,REAL,FALSA
,,,,,,,,,,001,2025-05-06_19h10.49.901,empathy_intonation_perc,2024.1.4,Win32,60.09615385,,,,,,,,,,,,,,65,guerra,,,,,,329.94,331.035,1,0,0.561,,0,172,172,64,1,non_cognate,1,REAL,FALSA
,,,,,,,,,,001,2025-05-06_19h10.49.901,empathy_intonation_perc,2024.1.4,Win32,60.09615385,,,,,,,,,,,,,,138,tator,,,,,,331.036,332.568,0,1,0.998,,0,173,173,137,1,pseudoword,0,REAL,FALSA
,,,,,,,,,,001,2025-05-06_19h10.49.901,empathy_intonation_perc,2024.1.4,Win32,60.09615385,,,,,,,,,,,,,,139,sasos,,,,,,332.568,333.734,0,1,0.626,,0,174,174,138,1,pseudoword,0,REAL,FALSA
,,,,,,,,,,001,2025-05-06_19h10.49.901,empathy_intonation_perc,2024.1.4,Win32,60.09615385,,,,,,,,,,,,,,52,blando,,,,,,333.734,335.016,1,0,0.742,,0,175,175,51,1,non_cognate,1,REAL,FALSA
,,,,,,,,,,001,2025-05-06_19h10.49.901,empathy_intonation_perc,2024.1.4,Win32,60.09615385,,,,,,,,,,,,,,68,puñal,,,,,,335.018,336.531,1,0,0.978,,0,176,176,67,1,non_cognate,1,REAL,FALSA
,,,,,,,,,,001,2025-05-06_19h10.49.901,empathy_intonation_perc,2024.1.4,Win32,60.09615385,,,,,,,,,,,,,,19,mafia,,,,,,336.532,337.663,1,0,0.604,,0,177,177,18,1,three_way_cognate,1,REAL,FALSA
,,,,,,,,,,001,2025-05-06_19h10.49.901,empathy_intonation_perc,2024.1.4,Win32,60.09615385,,,,,,,,,,,,,,183,edioso,,,,,,337.664,339.046,0,1,0.839,,0,178,178,182,1,pseudoword,0,REAL,FALSA
,,,,,,,,,,001,2025-05-06_19h10.49.901,empathy_intonation_perc,2024.1.4,Win32,60.09615385,,,,,,,,,,,,,,35,aurora,,,,,,339.047,340.328,1,0,0.741,,0,179,179,34,1,two_way_cognate,1,REAL,FALSA
,,,,,,,,,,001,2025-05-06_19h10.49.901,empathy_intonation_perc,2024.1.4,Win32,60.09615385,,,,,,,,,,,,,,1,moral,,,,,,340.329,341.427,1,0,0.556,,0,180,180,0,1,three_way_cognate,1,REAL,FALSA
,,,,,,,,,,001,2025-05-06_19h10.49.901,empathy_intonation_perc,2024.1.4,Win32,60.09615385,,,,,,,,,,,,,,128,pelí,,,,,,341.428,342.926,0,1,0.97,,0,181,181,127,1,pseudoword,0,REAL,FALSA
,,,,,,,,,,001,2025-05-06_19h10.49.901,empathy_intonation_perc,2024.1.4,Win32,60.09615385,,,,,,,,,,,,,,10,drama,,,,,,342.927,344.075,1,0,0.613,,0,182,182,9,1,three_way_cognate,1,REAL,FALSA
,,,,,,,,,,001,2025-05-06_19h10.49.901,empathy_intonation_perc,2024.1.4,Win32,60.09615385,,,,,,,,,,,,,,56,pico,,,,,,344.076,345.307,0,1,0.707,,0,183,183,55,1,non_cognate,1,REAL,FALSA
,,,,,,,,,,001,2025-05-06_19h10.49.901,empathy_intonation_perc,2024.1.4,Win32,60.09615385,,,,,,,,,,,,,,27,piano,,,,,,345.308,346.506,1,0,0.666,,0,184,184,26,1,two_way_cognate,1,REAL,FALSA
,,,,,,,,,,001,2025-05-06_19h10.49.901,empathy_intonation_perc,2024.1.4,Win32,60.09615385,,,,,,,,,,,,,,91,equipo,,,,,,346.506,347.805,1,0,0.777,,0,185,185,90,1,non_cognate,1,REAL,FALSA
,,,,,,,,,,001,2025-05-06_19h10.49.901,empathy_intonation_perc,2024.1.4,Win32,60.09615385,,,,,,,,,,,,,,51,listo,,,,,,347.806,349.104,1,0,0.765,,0,186,186,50,1,non_cognate,1,REAL,FALSA
,,,,,,,,,,001,2025-05-06_19h10.49.901,empathy_intonation_perc,2024.1.4,Win32,60.09615385,,,,,,,,,,,,,,142,parre,,,,,,349.104,350.536,0,1,0.914,,0,187,187,141,1,pseudoword,0,REAL,FALSA
,,,,,,,,,,001,2025-05-06_19h10.49.901,empathy_intonation_perc,2024.1.4,Win32,60.09615385,,,,,,,,,,,,,,9,portal,,,,,,350.537,351.735,1,0,0.656,,0,188,188,8,1,three_way_cognate,1,REAL,FALSA
,,,,,,,,,,001,2025-05-06_19h10.49.901,empathy_intonation_perc,2024.1.4,Win32,60.09615385,,,,,,,,,,,,,,121,barbs,,,,,,351.735,352.968,0,1,0.708,,0,189,189,120,1,pseudoword,0,REAL,FALSA
,,,,,,,,,,001,2025-05-06_19h10.49.901,empathy_intonation_perc,2024.1.4,Win32,60.09615385,,,,,,,,,,,,,,106,diebro,,,,,,352.968,354.816,0,1,1.309,,0,190,190,105,1,pseudoword,0,REAL,FALSA
,,,,,,,,,,001,2025-05-06_19h10.49.901,empathy_intonation_perc,2024.1.4,Win32,60.09615385,,,,,,,,,,,,,,57,regalo,,,,,,354.816,355.899,1,0,0.56,,0,191,191,56,1,non_cognate,1,REAL,FALSA
