lextale_instructions.started,lextale_instructions.stopped,lextale_instructions_loop.thisRepN,lextale_instructions_loop.thisTrialN,lextale_instructions_loop.thisN,lextale_instructions_loop.thisIndex,lextale_instructions_loop.ran,instructions_text,continue_text,participant,session,date,expName,psychopyVersion,OS,frameRate,lextale_practice.started,lextale_practice.stopped,key_resp_lextale_practice.keys,key_resp_lextale_practice.corr,key_resp_lextale_practice.rt,key_resp_lextale_practice.duration,lextale_practice_feedback.started,lextale_practice_feedback.stopped,lextale_practice_trials.thisRepN,lextale_practice_trials.thisTrialN,lextale_practice_trials.thisN,lextale_practice_trials.thisIndex,lextale_practice_trials.ran,stim,word,correct_response,prac_button_real,prac_button_false,lextale_check.started,lextale_check.stopped,lextale_trial.started,lextale_trial.stopped,key_resp_lextale_trial.keys,key_resp_lextale_trial.corr,key_resp_lextale_trial.rt,key_resp_lextale_trial.duration,lextail_trials.thisRepN,lextail_trials.thisTrialN,lextail_trials.thisN,lextail_trials.thisIndex,lextail_trials.ran,type,correct_reponse,button_real,button_false
0.0052,6.3989,0,0,0,0,1,"Este es un test de vocabulario en español. 
  
  A continuación vas a ver 90 secuencias de letras que parecen 'españolas'.
  
  Solo algunas de ellas son palabras de verdad.",(presiona la barra espaciadora para continuar),,001,2025-04-30_11h51.43.384,empathy_intonation_perc,2024.1.4,Win32,5.843544928,,,,,,,,,,,,,,,,,,,,,,,,,,,,,,,,,,,
6.3993,10.9654,0,1,1,1,1,"Por favor, señala las palabras que tú conoces (aquellas que estás convencido que son palabras españolas, incluso aunque no seas capaz de dar el significado preciso).",(presiona la barra espaciadora para continuar),,001,2025-04-30_11h51.43.384,empathy_intonation_perc,2024.1.4,Win32,5.843544928,,,,,,,,,,,,,,,,,,,,,,,,,,,,,,,,,,,
10.9732,25.0087,0,2,2,2,1,Pero cuidado: los errores se penalizan. Por eso no tiene sentido tratar de incrementar tu puntuación marcando como reales palabras que nunca has visto.,(presiona la barra espaciadora para continuar),,001,2025-04-30_11h51.43.384,empathy_intonation_perc,2024.1.4,Win32,5.843544928,,,,,,,,,,,,,,,,,,,,,,,,,,,,,,,,,,,
25.0164,26.4933,0,3,3,3,1,"Presiona la tecla 1 si piensas que es una palabra real y la tecla 
  0 si piensas que es una palabra falsa. 
  
  Vamos a practicar un poco...",(presiona la barra espaciadora para continuar),,001,2025-04-30_11h51.43.384,empathy_intonation_perc,2024.1.4,Win32,5.843544928,,,,,,,,,,,,,,,,,,,,,,,,,,,,,,,,,,,
,,,,,,,,,,001,2025-04-30_11h51.43.384,empathy_intonation_perc,2024.1.4,Win32,5.843544928,26.4964,131.0217,1,0,103.8558,,131.0277,131.992,0,0,0,0,1,0,depiste,0,REAL,FALSA,,,,,,,,,,,,,,,,,
,,,,,,,,,,001,2025-04-30_11h51.43.384,empathy_intonation_perc,2024.1.4,Win32,5.843544928,131.9924,134.7117,0,0,1.9327,0,134.7117,135.6491,0,1,1,1,1,0,sí,1,REAL,FALSA,,,,,,,,,,,,,,,,,
,,,,,,,,,,001,2025-04-30_11h51.43.384,empathy_intonation_perc,2024.1.4,Win32,5.843544928,135.6563,137.827,0,1,1.3943,0.0001,137.8271,138.7403,0,2,2,2,1,0,coné,0,REAL,FALSA,,,,,,,,,,,,,,,,,
,,,,,,,,,,001,2025-04-30_11h51.43.384,empathy_intonation_perc,2024.1.4,Win32,5.843544928,138.7404,141.1551,0,1,1.6233,0.0002,141.1551,142.0899,0,3,3,3,1,0,calpar,0,REAL,FALSA,,,,,,,,,,,,,,,,,
,,,,,,,,,,001,2025-04-30_11h51.43.384,empathy_intonation_perc,2024.1.4,Win32,5.843544928,142.0968,144.0436,0,1,1.1437,9.99999E-05,144.0436,144.9842,0,4,4,4,1,0,joten,0,REAL,FALSA,,,,,,,,,,,,,,,,,
,,,,,,,,,,001,2025-04-30_11h51.43.384,empathy_intonation_perc,2024.1.4,Win32,5.843544928,144.9845,146.7538,1,1,0.9838,0.0002,146.7539,147.6965,0,5,5,5,1,0,sacapuntas,1,REAL,FALSA,,,,,,,,,,,,,,,,,
,,,,,,,,,,001,2025-04-30_11h51.43.384,empathy_intonation_perc,2024.1.4,Win32,5.843544928,147.6968,149.4307,0,1,0.9569,0,149.4308,150.3457,0,6,6,6,1,0,priba,0,REAL,FALSA,,,,,,,,,,,,,,,,,
,,,,,,,,,,001,2025-04-30_11h51.43.384,empathy_intonation_perc,2024.1.4,Win32,5.843544928,150.3459,152.2685,0,1,1.1406,0,152.2685,153.18,0,7,7,7,1,0,pelasula,0,REAL,FALSA,,,,,,,,,,,,,,,,,
,,,,,,,,,,001,2025-04-30_11h51.43.384,empathy_intonation_perc,2024.1.4,Win32,5.843544928,153.1865,155.084,1,1,1.126,9.99999E-05,155.084,156.0045,0,8,8,8,1,0,bien,1,REAL,FALSA,,,,,,,,,,,,,,,,,
,,,,,,,,,,001,2025-04-30_11h51.43.384,empathy_intonation_perc,2024.1.4,Win32,5.843544928,156.0047,157.573,1,1,0.7949,0,157.573,158.4962,0,9,9,9,1,0,casa,1,REAL,FALSA,,,,,,,,,,,,,,,,,
,,,,,,,,,,001,2025-04-30_11h51.43.384,empathy_intonation_perc,2024.1.4,Win32,5.843544928,158.4965,160.2436,0,1,0.9681,9.99999E-05,160.2437,161.2087,0,10,10,10,1,0,lejo,0,REAL,FALSA,,,,,,,,,,,,,,,,,
,,,,,,,,,,001,2025-04-30_11h51.43.384,empathy_intonation_perc,2024.1.4,Win32,5.843544928,161.209,162.8282,1,0,0.8268,0.0002,162.8282,163.7572,0,11,11,11,1,0,pretantas,0,REAL,FALSA,,,,,,,,,,,,,,,,,
,,,,,,,,,,001,2025-04-30_11h51.43.384,empathy_intonation_perc,2024.1.4,Win32,5.843544928,,,,,,,,,,,,,,,,,,,163.7574,169.8247,,,,,,,,,,,,,,,
,,,,,,,,,,001,2025-04-30_11h51.43.384,empathy_intonation_perc,2024.1.4,Win32,5.843544928,,,,,,,,,,,,,,93,tapa,,,,,,169.8409,171.7321,1,0,1.1234,0.0002,0,0,0,92,1,non_cognate,1,REAL,FALSA
,,,,,,,,,,001,2025-04-30_11h51.43.384,empathy_intonation_perc,2024.1.4,Win32,5.843544928,,,,,,,,,,,,,,91,equipo,,,,,,171.7324,174.7332,0,1,2.2267,0.0003,0,1,1,90,1,non_cognate,1,REAL,FALSA
,,,,,,,,,,001,2025-04-30_11h51.43.384,empathy_intonation_perc,2024.1.4,Win32,5.843544928,,,,,,,,,,,,,,141,virios,,,,,,174.7335,176.6122,0,1,1.116,9.99999E-05,0,2,2,140,1,pseudoword,0,REAL,FALSA
,,,,,,,,,,001,2025-04-30_11h51.43.384,empathy_intonation_perc,2024.1.4,Win32,5.843544928,,,,,,,,,,,,,,57,regalo,,,,,,176.6125,178.3262,1,0,0.9499,0.0002,0,3,3,56,1,non_cognate,1,REAL,FALSA
,,,,,,,,,,001,2025-04-30_11h51.43.384,empathy_intonation_perc,2024.1.4,Win32,5.843544928,,,,,,,,,,,,,,69,tiza,,,,,,178.3264,179.8564,1,0,0.7838,,0,4,4,68,1,non_cognate,1,REAL,FALSA
,,,,,,,,,,001,2025-04-30_11h51.43.384,empathy_intonation_perc,2024.1.4,Win32,5.843544928,,,,,,,,,,,,,,35,aurora,,,,,,179.8567,181.7368,1,0,1.1086,9.99999E-05,0,5,5,34,1,two_way_cognate,1,REAL,FALSA
,,,,,,,,,,001,2025-04-30_11h51.43.384,empathy_intonation_perc,2024.1.4,Win32,5.843544928,,,,,,,,,,,,,,169,pitis,,,,,,181.737,183.4316,0,1,0.9287,,0,6,6,168,1,pseudoword,0,REAL,FALSA
,,,,,,,,,,001,2025-04-30_11h51.43.384,empathy_intonation_perc,2024.1.4,Win32,5.843544928,,,,,,,,,,,,,,8,kilo,,,,,,183.4319,185.4306,1,0,1.2402,0,0,7,7,7,1,three_way_cognate,1,REAL,FALSA
,,,,,,,,,,001,2025-04-30_11h51.43.384,empathy_intonation_perc,2024.1.4,Win32,5.843544928,,,,,,,,,,,,,,52,blando,,,,,,185.4309,187.1603,0,1,0.9566,,0,8,8,51,1,non_cognate,1,REAL,FALSA
,,,,,,,,,,001,2025-04-30_11h51.43.384,empathy_intonation_perc,2024.1.4,Win32,5.843544928,,,,,,,,,,,,,,139,sasos,,,,,,187.1605,189.0414,1,0,1.1021,,0,9,9,138,1,pseudoword,0,REAL,FALSA
,,,,,,,,,,001,2025-04-30_11h51.43.384,empathy_intonation_perc,2024.1.4,Win32,5.843544928,,,,,,,,,,,,,,94,forro,,,,,,189.0416,190.6031,1,0,0.7926,0.0002,0,10,10,93,1,non_cognate,1,REAL,FALSA
,,,,,,,,,,001,2025-04-30_11h51.43.384,empathy_intonation_perc,2024.1.4,Win32,5.843544928,,,,,,,,,,,,,,16,chat,,,,,,190.6033,192.4836,0,1,1.1063,9.99999E-05,0,11,11,15,1,three_way_cognate,1,REAL,FALSA
,,,,,,,,,,001,2025-04-30_11h51.43.384,empathy_intonation_perc,2024.1.4,Win32,5.843544928,,,,,,,,,,,,,,4,flora,,,,,,192.4838,194.0936,1,0,0.8531,,0,12,12,3,1,three_way_cognate,1,REAL,FALSA
,,,,,,,,,,001,2025-04-30_11h51.43.384,empathy_intonation_perc,2024.1.4,Win32,5.843544928,,,,,,,,,,,,,,113,nasce,,,,,,194.0938,195.8923,0,1,0.9969,0.0002,0,13,13,112,1,pseudoword,0,REAL,FALSA
,,,,,,,,,,001,2025-04-30_11h51.43.384,empathy_intonation_perc,2024.1.4,Win32,5.843544928,,,,,,,,,,,,,,160,fomeó,,,,,,195.8926,197.6495,1,0,0.9785,0.0003,0,14,14,159,1,pseudoword,0,REAL,FALSA
,,,,,,,,,,001,2025-04-30_11h51.43.384,empathy_intonation_perc,2024.1.4,Win32,5.843544928,,,,,,,,,,,,,,162,cengo,,,,,,197.6498,199.2963,0,1,0.8251,,0,15,15,161,1,pseudoword,0,REAL,FALSA
,,,,,,,,,,001,2025-04-30_11h51.43.384,empathy_intonation_perc,2024.1.4,Win32,5.843544928,,,,,,,,,,,,,,103,vueras,,,,,,199.2965,201.4641,1,0,1.416,,0,16,16,102,1,pseudoword,0,REAL,FALSA
,,,,,,,,,,001,2025-04-30_11h51.43.384,empathy_intonation_perc,2024.1.4,Win32,5.843544928,,,,,,,,,,,,,,177,entodo,,,,,,201.4643,203.32,1,0,1.0896,9.99999E-05,0,17,17,176,1,pseudoword,0,REAL,FALSA
,,,,,,,,,,001,2025-04-30_11h51.43.384,empathy_intonation_perc,2024.1.4,Win32,5.843544928,,,,,,,,,,,,,,74,ala,,,,,,203.3202,205.3119,0,1,1.2331,0.0001,0,18,18,73,1,non_cognate,1,REAL,FALSA
,,,,,,,,,,001,2025-04-30_11h51.43.384,empathy_intonation_perc,2024.1.4,Win32,5.843544928,,,,,,,,,,,,,,138,tator,,,,,,205.3122,207.1728,0,1,1.1013,9.99999E-05,0,19,19,137,1,pseudoword,0,REAL,FALSA
,,,,,,,,,,001,2025-04-30_11h51.43.384,empathy_intonation_perc,2024.1.4,Win32,5.843544928,,,,,,,,,,,,,,9,portal,,,,,,207.1729,208.8998,1,0,0.949,,0,20,20,8,1,three_way_cognate,1,REAL,FALSA
,,,,,,,,,,001,2025-04-30_11h51.43.384,empathy_intonation_perc,2024.1.4,Win32,5.843544928,,,,,,,,,,,,,,79,suelo,,,,,,208.9,210.6049,0,1,0.9406,,0,21,21,78,1,non_cognate,1,REAL,FALSA
,,,,,,,,,,001,2025-04-30_11h51.43.384,empathy_intonation_perc,2024.1.4,Win32,5.843544928,,,,,,,,,,,,,,167,dobbo,,,,,,210.6052,212.3156,0,1,0.9528,0.0002,0,22,22,166,1,pseudoword,0,REAL,FALSA
,,,,,,,,,,001,2025-04-30_11h51.43.384,empathy_intonation_perc,2024.1.4,Win32,5.843544928,,,,,,,,,,,,,,117,morrá,,,,,,212.3159,214.0438,1,0,0.9557,0.0002,0,23,23,116,1,pseudoword,0,REAL,FALSA
,,,,,,,,,,001,2025-04-30_11h51.43.384,empathy_intonation_perc,2024.1.4,Win32,5.843544928,,,,,,,,,,,,,,86,cuenco,,,,,,214.044,215.9293,0,1,1.1161,0.0002,0,24,24,85,1,non_cognate,1,REAL,FALSA
,,,,,,,,,,001,2025-04-30_11h51.43.384,empathy_intonation_perc,2024.1.4,Win32,5.843544928,,,,,,,,,,,,,,60,siglo,,,,,,215.9295,217.8179,0,1,1.1209,0.0002,0,25,25,59,1,non_cognate,1,REAL,FALSA
,,,,,,,,,,001,2025-04-30_11h51.43.384,empathy_intonation_perc,2024.1.4,Win32,5.843544928,,,,,,,,,,,,,,114,dibrea,,,,,,217.8182,219.2118,1,0,0.6384,,0,26,26,113,1,pseudoword,0,REAL,FALSA
,,,,,,,,,,001,2025-04-30_11h51.43.384,empathy_intonation_perc,2024.1.4,Win32,5.843544928,,,,,,,,,,,,,,104,estulo,,,,,,219.2122,220.7673,1,0,0.7943,,0,27,27,103,1,pseudoword,0,REAL,FALSA
,,,,,,,,,,001,2025-04-30_11h51.43.384,empathy_intonation_perc,2024.1.4,Win32,5.843544928,,,,,,,,,,,,,,53,punta,,,,,,220.7676,223.1315,1,0,1.5956,0.0002,0,28,28,52,1,non_cognate,1,REAL,FALSA
,,,,,,,,,,001,2025-04-30_11h51.43.384,empathy_intonation_perc,2024.1.4,Win32,5.843544928,,,,,,,,,,,,,,129,vinzó,,,,,,223.1318,224.8461,1,0,0.9425,,0,29,29,128,1,pseudoword,0,REAL,FALSA
,,,,,,,,,,001,2025-04-30_11h51.43.384,empathy_intonation_perc,2024.1.4,Win32,5.843544928,,,,,,,,,,,,,,12,dogma,,,,,,224.8463,226.872,1,0,1.2638,,0,30,30,11,1,three_way_cognate,1,REAL,FALSA
,,,,,,,,,,001,2025-04-30_11h51.43.384,empathy_intonation_perc,2024.1.4,Win32,5.843544928,,,,,,,,,,,,,,100,épinas,,,,,,226.8722,228.7439,1,0,1.0971,0.0002,0,31,31,99,1,pseudoword,0,REAL,FALSA
,,,,,,,,,,001,2025-04-30_11h51.43.384,empathy_intonation_perc,2024.1.4,Win32,5.843544928,,,,,,,,,,,,,,67,llamar,,,,,,228.7441,230.4296,0,1,0.9331,0,0,32,32,66,1,non_cognate,1,REAL,FALSA
,,,,,,,,,,001,2025-04-30_11h51.43.384,empathy_intonation_perc,2024.1.4,Win32,5.843544928,,,,,,,,,,,,,,47,color,,,,,,230.4298,231.9831,1,0,0.7912,,0,33,33,46,1,two_way_cognate,1,REAL,FALSA
,,,,,,,,,,001,2025-04-30_11h51.43.384,empathy_intonation_perc,2024.1.4,Win32,5.843544928,,,,,,,,,,,,,,136,hueas,,,,,,231.9835,233.5497,1,0,0.7966,0.0002,0,34,34,135,1,pseudoword,0,REAL,FALSA
,,,,,,,,,,001,2025-04-30_11h51.43.384,empathy_intonation_perc,2024.1.4,Win32,5.843544928,,,,,,,,,,,,,,61,aduana,,,,,,233.5502,235.4297,0,1,1.1172,,0,35,35,60,1,non_cognate,1,REAL,FALSA
,,,,,,,,,,001,2025-04-30_11h51.43.384,empathy_intonation_perc,2024.1.4,Win32,5.843544928,,,,,,,,,,,,,,70,ánimo,,,,,,235.43,237.7986,1,0,1.5944,0.0003,0,36,36,69,1,non_cognate,1,REAL,FALSA
,,,,,,,,,,001,2025-04-30_11h51.43.384,empathy_intonation_perc,2024.1.4,Win32,5.843544928,,,,,,,,,,,,,,22,mango,,,,,,237.799,239.7232,0,1,1.1377,,0,37,37,21,1,three_way_cognate,1,REAL,FALSA
,,,,,,,,,,001,2025-04-30_11h51.43.384,empathy_intonation_perc,2024.1.4,Win32,5.843544928,,,,,,,,,,,,,,25,vigor,,,,,,239.7235,241.7729,0,1,1.2641,0.0002,0,38,38,24,1,two_way_cognate,1,REAL,FALSA
,,,,,,,,,,001,2025-04-30_11h51.43.384,empathy_intonation_perc,2024.1.4,Win32,5.843544928,,,,,,,,,,,,,,82,brillo,,,,,,241.7732,243.6764,0,1,1.1183,0.0002,0,39,39,81,1,non_cognate,1,REAL,FALSA
,,,,,,,,,,001,2025-04-30_11h51.43.384,empathy_intonation_perc,2024.1.4,Win32,5.843544928,,,,,,,,,,,,,,78,rendir,,,,,,243.6766,245.3941,0,1,0.9511,,0,40,40,77,1,non_cognate,1,REAL,FALSA
,,,,,,,,,,001,2025-04-30_11h51.43.384,empathy_intonation_perc,2024.1.4,Win32,5.843544928,,,,,,,,,,,,,,37,torso,,,,,,245.3944,248.3666,1,0,2.2005,9.99999E-05,0,41,41,36,1,two_way_cognate,1,REAL,FALSA
,,,,,,,,,,001,2025-04-30_11h51.43.384,empathy_intonation_perc,2024.1.4,Win32,5.843544928,,,,,,,,,,,,,,170,diabo,,,,,,248.367,250.0941,0,1,0.9556,0.0002,0,42,42,169,1,pseudoword,0,REAL,FALSA
,,,,,,,,,,001,2025-04-30_11h51.43.384,empathy_intonation_perc,2024.1.4,Win32,5.843544928,,,,,,,,,,,,,,150,cricó,,,,,,250.0944,251.8359,0,1,0.9641,0.0002,0,43,43,149,1,pseudoword,0,REAL,FALSA
,,,,,,,,,,001,2025-04-30_11h51.43.384,empathy_intonation_perc,2024.1.4,Win32,5.843544928,,,,,,,,,,,,,,116,grigir,,,,,,251.8361,253.9072,0,1,1.3,9.99999E-05,0,44,44,115,1,pseudoword,0,REAL,FALSA
,,,,,,,,,,001,2025-04-30_11h51.43.384,empathy_intonation_perc,2024.1.4,Win32,5.843544928,,,,,,,,,,,,,,44,editor,,,,,,253.9074,256.0964,0,1,1.4279,,0,45,45,43,1,two_way_cognate,1,REAL,FALSA
,,,,,,,,,,001,2025-04-30_11h51.43.384,empathy_intonation_perc,2024.1.4,Win32,5.843544928,,,,,,,,,,,,,,146,gió,,,,,,256.0967,257.6719,1,0,0.8102,,0,46,46,145,1,pseudoword,0,REAL,FALSA
,,,,,,,,,,001,2025-04-30_11h51.43.384,empathy_intonation_perc,2024.1.4,Win32,5.843544928,,,,,,,,,,,,,,96,caro,,,,,,257.6721,259.2203,1,0,0.7902,,0,47,47,95,1,non_cognate,1,REAL,FALSA
,,,,,,,,,,001,2025-04-30_11h51.43.384,empathy_intonation_perc,2024.1.4,Win32,5.843544928,,,,,,,,,,,,,,21,hotel,,,,,,259.2206,261.36,0,1,1.309,0,0,48,48,20,1,three_way_cognate,1,REAL,FALSA
,,,,,,,,,,001,2025-04-30_11h51.43.384,empathy_intonation_perc,2024.1.4,Win32,5.843544928,,,,,,,,,,,,,,71,torta,,,,,,261.3604,263.4561,0,1,1.2991,,0,49,49,70,1,non_cognate,1,REAL,FALSA
,,,,,,,,,,001,2025-04-30_11h51.43.384,empathy_intonation_perc,2024.1.4,Win32,5.843544928,,,,,,,,,,,,,,123,arane,,,,,,263.4564,265.2406,0,1,0.9442,,0,50,50,122,1,pseudoword,0,REAL,FALSA
,,,,,,,,,,001,2025-04-30_11h51.43.384,empathy_intonation_perc,2024.1.4,Win32,5.843544928,,,,,,,,,,,,,,76,chocar,,,,,,265.2409,266.6417,1,0,0.6253,,0,51,51,75,1,non_cognate,1,REAL,FALSA
,,,,,,,,,,001,2025-04-30_11h51.43.384,empathy_intonation_perc,2024.1.4,Win32,5.843544928,,,,,,,,,,,,,,133,conso,,,,,,266.6419,268.1885,0,1,0.7973,,0,52,52,132,1,pseudoword,0,REAL,FALSA
,,,,,,,,,,001,2025-04-30_11h51.43.384,empathy_intonation_perc,2024.1.4,Win32,5.843544928,,,,,,,,,,,,,,40,pelvis,,,,,,268.1887,269.7554,0,1,0.8012,0.0002,0,53,53,39,1,two_way_cognate,1,REAL,FALSA
,,,,,,,,,,001,2025-04-30_11h51.43.384,empathy_intonation_perc,2024.1.4,Win32,5.843544928,,,,,,,,,,,,,,55,maldad,,,,,,269.7557,271.6085,0,1,1.0942,,0,54,54,54,1,non_cognate,1,REAL,FALSA
,,,,,,,,,,001,2025-04-30_11h51.43.384,empathy_intonation_perc,2024.1.4,Win32,5.843544928,,,,,,,,,,,,,,175,tradía,,,,,,271.6087,273.3317,1,0,0.9636,,0,55,55,174,1,pseudoword,0,REAL,FALSA
,,,,,,,,,,001,2025-04-30_11h51.43.384,empathy_intonation_perc,2024.1.4,Win32,5.843544928,,,,,,,,,,,,,,88,percha,,,,,,273.3321,275.0665,0,1,0.9679,0.0002,0,56,56,87,1,non_cognate,1,REAL,FALSA
,,,,,,,,,,001,2025-04-30_11h51.43.384,empathy_intonation_perc,2024.1.4,Win32,5.843544928,,,,,,,,,,,,,,121,barbs,,,,,,275.0667,276.6311,0,1,0.7912,9.99999E-05,0,57,57,120,1,pseudoword,0,REAL,FALSA
,,,,,,,,,,001,2025-04-30_11h51.43.384,empathy_intonation_perc,2024.1.4,Win32,5.843544928,,,,,,,,,,,,,,148,gino,,,,,,276.6313,278.044,1,0,0.6488,,0,58,58,147,1,pseudoword,0,REAL,FALSA
,,,,,,,,,,001,2025-04-30_11h51.43.384,empathy_intonation_perc,2024.1.4,Win32,5.843544928,,,,,,,,,,,,,,156,ozoso,,,,,,278.0442,279.5894,0,1,0.7812,,0,59,59,155,1,pseudoword,0,REAL,FALSA
,,,,,,,,,,001,2025-04-30_11h51.43.384,empathy_intonation_perc,2024.1.4,Win32,5.843544928,,,,,,,,,,,,,,112,samón,,,,,,279.5895,281.1562,0,1,0.7909,0.0002,0,60,60,111,1,pseudoword,0,REAL,FALSA
,,,,,,,,,,001,2025-04-30_11h51.43.384,empathy_intonation_perc,2024.1.4,Win32,5.843544928,,,,,,,,,,,,,,58,colcha,,,,,,281.1566,282.8631,0,1,0.9491,0.0002,0,61,61,57,1,non_cognate,1,REAL,FALSA
,,,,,,,,,,001,2025-04-30_11h51.43.384,empathy_intonation_perc,2024.1.4,Win32,5.843544928,,,,,,,,,,,,,,64,rizado,,,,,,282.8633,284.4221,1,0,0.7866,0.0002,0,62,62,63,1,non_cognate,1,REAL,FALSA
,,,,,,,,,,001,2025-04-30_11h51.43.384,empathy_intonation_perc,2024.1.4,Win32,5.843544928,,,,,,,,,,,,,,77,suave,,,,,,284.4223,285.9669,1,0,0.7798,0.0002,0,63,63,76,1,non_cognate,1,REAL,FALSA
,,,,,,,,,,001,2025-04-30_11h51.43.384,empathy_intonation_perc,2024.1.4,Win32,5.843544928,,,,,,,,,,,,,,164,tecia,,,,,,285.9672,287.6756,1,0,0.9492,9.99999E-05,0,64,64,163,1,pseudoword,0,REAL,FALSA
,,,,,,,,,,001,2025-04-30_11h51.43.384,empathy_intonation_perc,2024.1.4,Win32,5.843544928,,,,,,,,,,,,,,158,babrá,,,,,,287.6759,289.363,1,0,0.9386,0.0002,0,65,65,157,1,pseudoword,0,REAL,FALSA
,,,,,,,,,,001,2025-04-30_11h51.43.384,empathy_intonation_perc,2024.1.4,Win32,5.843544928,,,,,,,,,,,,,,173,mibro,,,,,,289.3633,290.9373,1,0,0.8088,,0,66,66,172,1,pseudoword,0,REAL,FALSA
,,,,,,,,,,001,2025-04-30_11h51.43.384,empathy_intonation_perc,2024.1.4,Win32,5.843544928,,,,,,,,,,,,,,43,honor,,,,,,290.9376,292.6674,0,1,0.9573,0.0002,0,67,67,42,1,two_way_cognate,1,REAL,FALSA
,,,,,,,,,,001,2025-04-30_11h51.43.384,empathy_intonation_perc,2024.1.4,Win32,5.843544928,,,,,,,,,,,,,,128,pelí,,,,,,292.6676,294.3793,1,0,0.9413,0.0004,0,68,68,127,1,pseudoword,0,REAL,FALSA
,,,,,,,,,,001,2025-04-30_11h51.43.384,empathy_intonation_perc,2024.1.4,Win32,5.843544928,,,,,,,,,,,,,,101,losco,,,,,,294.3795,296.1282,1,0,0.9725,0.0002,0,69,69,100,1,pseudoword,0,REAL,FALSA
,,,,,,,,,,001,2025-04-30_11h51.43.384,empathy_intonation_perc,2024.1.4,Win32,5.843544928,,,,,,,,,,,,,,191,frasis,,,,,,296.1284,297.8521,0,1,0.9566,0.0002,0,70,70,190,1,pseudoword,0,REAL,FALSA
,,,,,,,,,,001,2025-04-30_11h51.43.384,empathy_intonation_perc,2024.1.4,Win32,5.843544928,,,,,,,,,,,,,,99,bugor,,,,,,297.8523,299.5538,1,0,0.9416,0.0002,0,71,71,98,1,pseudoword,0,REAL,FALSA
,,,,,,,,,,001,2025-04-30_11h51.43.384,empathy_intonation_perc,2024.1.4,Win32,5.843544928,,,,,,,,,,,,,,41,pasta,,,,,,299.5543,301.1219,0,1,0.805,,0,72,72,40,1,two_way_cognate,1,REAL,FALSA
,,,,,,,,,,001,2025-04-30_11h51.43.384,empathy_intonation_perc,2024.1.4,Win32,5.843544928,,,,,,,,,,,,,,145,rúo,,,,,,301.1221,302.6745,1,0,0.7879,,0,73,73,144,1,pseudoword,0,REAL,FALSA
,,,,,,,,,,001,2025-04-30_11h51.43.384,empathy_intonation_perc,2024.1.4,Win32,5.843544928,,,,,,,,,,,,,,11,golf,,,,,,302.6748,304.1989,1,0,0.7779,,0,74,74,10,1,three_way_cognate,1,REAL,FALSA
,,,,,,,,,,001,2025-04-30_11h51.43.384,empathy_intonation_perc,2024.1.4,Win32,5.843544928,,,,,,,,,,,,,,165,chote,,,,,,304.1991,305.9224,0,1,0.971,9.99999E-05,0,75,75,164,1,pseudoword,0,REAL,FALSA
,,,,,,,,,,001,2025-04-30_11h51.43.384,empathy_intonation_perc,2024.1.4,Win32,5.843544928,,,,,,,,,,,,,,87,muleta,,,,,,305.9226,307.6216,1,0,0.942,9.99999E-05,0,76,76,86,1,non_cognate,1,REAL,FALSA
,,,,,,,,,,001,2025-04-30_11h51.43.384,empathy_intonation_perc,2024.1.4,Win32,5.843544928,,,,,,,,,,,,,,102,coyo,,,,,,307.622,309.2969,0,1,0.9238,,0,77,77,101,1,pseudoword,0,REAL,FALSA
,,,,,,,,,,001,2025-04-30_11h51.43.384,empathy_intonation_perc,2024.1.4,Win32,5.843544928,,,,,,,,,,,,,,186,rizate,,,,,,309.2972,311.1596,1,0,1.0972,,0,78,78,185,1,pseudoword,0,REAL,FALSA
,,,,,,,,,,001,2025-04-30_11h51.43.384,empathy_intonation_perc,2024.1.4,Win32,5.843544928,,,,,,,,,,,,,,45,total,,,,,,311.1599,312.8792,0,1,0.9483,9.99999E-05,0,79,79,44,1,two_way_cognate,1,REAL,FALSA
,,,,,,,,,,001,2025-04-30_11h51.43.384,empathy_intonation_perc,2024.1.4,Win32,5.843544928,,,,,,,,,,,,,,92,flecha,,,,,,312.8795,314.6073,0,1,0.9527,0.0001,0,80,80,91,1,non_cognate,1,REAL,FALSA
,,,,,,,,,,001,2025-04-30_11h51.43.384,empathy_intonation_perc,2024.1.4,Win32,5.843544928,,,,,,,,,,,,,,176,gripar,,,,,,314.6075,316.3323,0,1,0.9596,0.0002,0,81,81,175,1,pseudoword,0,REAL,FALSA
,,,,,,,,,,001,2025-04-30_11h51.43.384,empathy_intonation_perc,2024.1.4,Win32,5.843544928,,,,,,,,,,,,,,1,moral,,,,,,316.3325,317.9143,1,0,0.8062,0.0002,0,82,82,0,1,three_way_cognate,1,REAL,FALSA
,,,,,,,,,,001,2025-04-30_11h51.43.384,empathy_intonation_perc,2024.1.4,Win32,5.843544928,,,,,,,,,,,,,,131,fuar,,,,,,317.9145,319.4657,0,1,0.7899,,0,83,83,130,1,pseudoword,0,REAL,FALSA
,,,,,,,,,,001,2025-04-30_11h51.43.384,empathy_intonation_perc,2024.1.4,Win32,5.843544928,,,,,,,,,,,,,,181,gravés,,,,,,319.466,321.3466,0,1,1.1169,0.0003,0,84,84,180,1,pseudoword,0,REAL,FALSA
,,,,,,,,,,001,2025-04-30_11h51.43.384,empathy_intonation_perc,2024.1.4,Win32,5.843544928,,,,,,,,,,,,,,17,clan,,,,,,321.3469,322.909,0,1,0.7889,,0,85,85,16,1,three_way_cognate,1,REAL,FALSA
,,,,,,,,,,001,2025-04-30_11h51.43.384,empathy_intonation_perc,2024.1.4,Win32,5.843544928,,,,,,,,,,,,,,190,asumie,,,,,,322.9093,324.7467,1,0,1.0879,0.0002,0,86,86,189,1,pseudoword,0,REAL,FALSA
,,,,,,,,,,001,2025-04-30_11h51.43.384,empathy_intonation_perc,2024.1.4,Win32,5.843544928,,,,,,,,,,,,,,155,kugis,,,,,,324.7471,326.3817,0,1,0.8446,,0,87,87,154,1,pseudoword,0,REAL,FALSA
,,,,,,,,,,001,2025-04-30_11h51.43.384,empathy_intonation_perc,2024.1.4,Win32,5.843544928,,,,,,,,,,,,,,107,plago,,,,,,326.382,328.6722,1,0,1.5087,0.0001,0,88,88,106,1,pseudoword,0,REAL,FALSA
,,,,,,,,,,001,2025-04-30_11h51.43.384,empathy_intonation_perc,2024.1.4,Win32,5.843544928,,,,,,,,,,,,,,143,hurcos,,,,,,328.6724,330.7644,1,0,1.267,0.0002,0,89,89,142,1,pseudoword,0,REAL,FALSA
,,,,,,,,,,001,2025-04-30_11h51.43.384,empathy_intonation_perc,2024.1.4,Win32,5.843544928,,,,,,,,,,,,,,111,monue,,,,,,330.7646,332.4603,0,1,0.9495,0.0001,0,90,90,110,1,pseudoword,0,REAL,FALSA
,,,,,,,,,,001,2025-04-30_11h51.43.384,empathy_intonation_perc,2024.1.4,Win32,5.843544928,,,,,,,,,,,,,,42,rumor,,,,,,332.4605,334.1583,0,1,0.9406,,0,91,91,41,1,two_way_cognate,1,REAL,FALSA
,,,,,,,,,,001,2025-04-30_11h51.43.384,empathy_intonation_perc,2024.1.4,Win32,5.843544928,,,,,,,,,,,,,,36,viable,,,,,,334.1587,336.0303,1,0,1.1071,0.0003,0,92,92,35,1,two_way_cognate,1,REAL,FALSA
,,,,,,,,,,001,2025-04-30_11h51.43.384,empathy_intonation_perc,2024.1.4,Win32,5.843544928,,,,,,,,,,,,,,14,aura,,,,,,336.0306,337.6091,0,1,0.806,0.0002,0,93,93,13,1,three_way_cognate,1,REAL,FALSA
,,,,,,,,,,001,2025-04-30_11h51.43.384,empathy_intonation_perc,2024.1.4,Win32,5.843544928,,,,,,,,,,,,,,15,test,,,,,,337.6094,339.1797,0,1,0.7957,0.0002,0,94,94,14,1,three_way_cognate,1,REAL,FALSA
,,,,,,,,,,001,2025-04-30_11h51.43.384,empathy_intonation_perc,2024.1.4,Win32,5.843544928,,,,,,,,,,,,,,125,ceme,,,,,,339.1799,340.5931,1,0,0.6496,,0,95,95,124,1,pseudoword,0,REAL,FALSA
,,,,,,,,,,001,2025-04-30_11h51.43.384,empathy_intonation_perc,2024.1.4,Win32,5.843544928,,,,,,,,,,,,,,13,plan,,,,,,340.5934,342.1563,0,1,0.7898,,0,96,96,12,1,three_way_cognate,1,REAL,FALSA
,,,,,,,,,,001,2025-04-30_11h51.43.384,empathy_intonation_perc,2024.1.4,Win32,5.843544928,,,,,,,,,,,,,,18,altar,,,,,,342.1565,343.7076,0,1,0.7749,,0,97,97,17,1,three_way_cognate,1,REAL,FALSA
,,,,,,,,,,001,2025-04-30_11h51.43.384,empathy_intonation_perc,2024.1.4,Win32,5.843544928,,,,,,,,,,,,,,130,dubo,,,,,,343.7078,345.098,0,1,0.6333,,0,98,98,129,1,pseudoword,0,REAL,FALSA
,,,,,,,,,,001,2025-04-30_11h51.43.384,empathy_intonation_perc,2024.1.4,Win32,5.843544928,,,,,,,,,,,,,,49,teñir,,,,,,345.0983,346.6254,1,0,0.771,9.99999E-05,0,99,99,48,1,non_cognate,1,REAL,FALSA
,,,,,,,,,,001,2025-04-30_11h51.43.384,empathy_intonation_perc,2024.1.4,Win32,5.843544928,,,,,,,,,,,,,,184,huenos,,,,,,346.6256,348.2268,1,0,0.8455,0,0,100,100,183,1,pseudoword,0,REAL,FALSA
,,,,,,,,,,001,2025-04-30_11h51.43.384,empathy_intonation_perc,2024.1.4,Win32,5.843544928,,,,,,,,,,,,,,5,extra,,,,,,348.2271,349.8059,1,0,0.8083,0.0002,0,101,101,4,1,three_way_cognate,1,REAL,FALSA
,,,,,,,,,,001,2025-04-30_11h51.43.384,empathy_intonation_perc,2024.1.4,Win32,5.843544928,,,,,,,,,,,,,,27,piano,,,,,,349.8061,351.3638,0,1,0.7997,,0,102,102,26,1,two_way_cognate,1,REAL,FALSA
,,,,,,,,,,001,2025-04-30_11h51.43.384,empathy_intonation_perc,2024.1.4,Win32,5.843544928,,,,,,,,,,,,,,187,nomata,,,,,,351.3641,352.9521,0,1,0.8214,,0,103,103,186,1,pseudoword,0,REAL,FALSA
,,,,,,,,,,001,2025-04-30_11h51.43.384,empathy_intonation_perc,2024.1.4,Win32,5.843544928,,,,,,,,,,,,,,24,retina,,,,,,352.9522,354.491,1,0,0.784,,0,104,104,23,1,three_way_cognate,1,REAL,FALSA
,,,,,,,,,,001,2025-04-30_11h51.43.384,empathy_intonation_perc,2024.1.4,Win32,5.843544928,,,,,,,,,,,,,,126,tobre,,,,,,354.4913,356.3586,1,0,1.107,9.99999E-05,0,105,105,125,1,pseudoword,0,REAL,FALSA
,,,,,,,,,,001,2025-04-30_11h51.43.384,empathy_intonation_perc,2024.1.4,Win32,5.843544928,,,,,,,,,,,,,,68,puñal,,,,,,356.3589,357.7626,1,0,0.6423,0.0002,0,106,106,67,1,non_cognate,1,REAL,FALSA
,,,,,,,,,,001,2025-04-30_11h51.43.384,empathy_intonation_perc,2024.1.4,Win32,5.843544928,,,,,,,,,,,,,,83,hálito,,,,,,357.7628,359.3262,1,0,0.7929,0.0003,0,107,107,82,1,non_cognate,1,REAL,FALSA
,,,,,,,,,,001,2025-04-30_11h51.43.384,empathy_intonation_perc,2024.1.4,Win32,5.843544928,,,,,,,,,,,,,,75,patada,,,,,,359.3264,360.9204,0,1,0.8181,9.99999E-05,0,108,108,74,1,non_cognate,1,REAL,FALSA
,,,,,,,,,,001,2025-04-30_11h51.43.384,empathy_intonation_perc,2024.1.4,Win32,5.843544928,,,,,,,,,,,,,,159,trcia,,,,,,360.9206,362.4932,0,1,0.7962,0.001,0,109,109,158,1,pseudoword,0,REAL,FALSA
,,,,,,,,,,001,2025-04-30_11h51.43.384,empathy_intonation_perc,2024.1.4,Win32,5.843544928,,,,,,,,,,,,,,38,halo,,,,,,362.494,364.2237,1,0,0.9573,,0,110,110,37,1,two_way_cognate,1,REAL,FALSA
,,,,,,,,,,001,2025-04-30_11h51.43.384,empathy_intonation_perc,2024.1.4,Win32,5.843544928,,,,,,,,,,,,,,34,actor,,,,,,364.2239,365.9453,0,1,0.9429,,0,111,111,33,1,two_way_cognate,1,REAL,FALSA
,,,,,,,,,,001,2025-04-30_11h51.43.384,empathy_intonation_perc,2024.1.4,Win32,5.843544928,,,,,,,,,,,,,,19,mafia,,,,,,365.9455,367.5126,1,0,0.7972,,0,112,112,18,1,three_way_cognate,1,REAL,FALSA
,,,,,,,,,,001,2025-04-30_11h51.43.384,empathy_intonation_perc,2024.1.4,Win32,5.843544928,,,,,,,,,,,,,,85,enorme,,,,,,367.5128,369.2425,1,0,0.9455,,0,113,113,84,1,non_cognate,1,REAL,FALSA
,,,,,,,,,,001,2025-04-30_11h51.43.384,empathy_intonation_perc,2024.1.4,Win32,5.843544928,,,,,,,,,,,,,,174,pabea,,,,,,369.2427,370.7997,1,0,0.7977,,0,114,114,173,1,pseudoword,0,REAL,FALSA
,,,,,,,,,,001,2025-04-30_11h51.43.384,empathy_intonation_perc,2024.1.4,Win32,5.843544928,,,,,,,,,,,,,,65,guerra,,,,,,370.8,372.5415,1,0,0.9572,0.0001,0,115,115,64,1,non_cognate,1,REAL,FALSA
,,,,,,,,,,001,2025-04-30_11h51.43.384,empathy_intonation_perc,2024.1.4,Win32,5.843544928,,,,,,,,,,,,,,90,venado,,,,,,372.5417,374.1193,1,0,0.8064,0.0002,0,116,116,89,1,non_cognate,1,REAL,FALSA
,,,,,,,,,,001,2025-04-30_11h51.43.384,empathy_intonation_perc,2024.1.4,Win32,5.843544928,,,,,,,,,,,,,,135,panté,,,,,,374.1194,375.8277,1,0,0.9448,,0,117,117,134,1,pseudoword,0,REAL,FALSA
,,,,,,,,,,001,2025-04-30_11h51.43.384,empathy_intonation_perc,2024.1.4,Win32,5.843544928,,,,,,,,,,,,,,171,gotro,,,,,,375.8279,377.5563,0,1,0.9576,0.0001,0,118,118,170,1,pseudoword,0,REAL,FALSA
,,,,,,,,,,001,2025-04-30_11h51.43.384,empathy_intonation_perc,2024.1.4,Win32,5.843544928,,,,,,,,,,,,,,137,trugo,,,,,,377.5565,379.5721,0,1,1.2523,,0,119,119,136,1,pseudoword,0,REAL,FALSA
,,,,,,,,,,001,2025-04-30_11h51.43.384,empathy_intonation_perc,2024.1.4,Win32,5.843544928,,,,,,,,,,,,,,81,sacar,,,,,,379.5724,381.1037,1,0,0.7807,0.0003,0,120,120,80,1,non_cognate,1,REAL,FALSA
,,,,,,,,,,001,2025-04-30_11h51.43.384,empathy_intonation_perc,2024.1.4,Win32,5.843544928,,,,,,,,,,,,,,39,casual,,,,,,381.1041,382.6969,1,0,0.8061,,0,121,121,38,1,two_way_cognate,1,REAL,FALSA
,,,,,,,,,,001,2025-04-30_11h51.43.384,empathy_intonation_perc,2024.1.4,Win32,5.843544928,,,,,,,,,,,,,,62,pegar,,,,,,382.6972,384.4419,0,1,0.9683,0.0002,0,122,122,61,1,non_cognate,1,REAL,FALSA
,,,,,,,,,,001,2025-04-30_11h51.43.384,empathy_intonation_perc,2024.1.4,Win32,5.843544928,,,,,,,,,,,,,,56,pico,,,,,,384.4421,385.8382,0,1,0.6353,9.99999E-05,0,123,123,55,1,non_cognate,1,REAL,FALSA
,,,,,,,,,,001,2025-04-30_11h51.43.384,empathy_intonation_perc,2024.1.4,Win32,5.843544928,,,,,,,,,,,,,,80,cuenco,,,,,,385.8384,387.6943,0,1,1.093,0.0002,0,124,124,79,1,non_cognate,1,REAL,FALSA
,,,,,,,,,,001,2025-04-30_11h51.43.384,empathy_intonation_perc,2024.1.4,Win32,5.843544928,,,,,,,,,,,,,,73,llevar,,,,,,387.6945,389.3908,0,1,0.9457,0.0001,0,125,125,72,1,non_cognate,1,REAL,FALSA
,,,,,,,,,,001,2025-04-30_11h51.43.384,empathy_intonation_perc,2024.1.4,Win32,5.843544928,,,,,,,,,,,,,,178,inichó,,,,,,389.391,390.9744,1,0,0.8177,0.0002,0,126,126,177,1,pseudoword,0,REAL,FALSA
,,,,,,,,,,001,2025-04-30_11h51.43.384,empathy_intonation_perc,2024.1.4,Win32,5.843544928,,,,,,,,,,,,,,168,cobén,,,,,,390.9747,392.9504,1,0,1.1801,0.0003,0,127,127,167,1,pseudoword,0,REAL,FALSA
,,,,,,,,,,001,2025-04-30_11h51.43.384,empathy_intonation_perc,2024.1.4,Win32,5.843544928,,,,,,,,,,,,,,7,albino,,,,,,392.9508,394.6248,0,1,0.839,,0,128,128,6,1,three_way_cognate,1,REAL,FALSA
,,,,,,,,,,001,2025-04-30_11h51.43.384,empathy_intonation_perc,2024.1.4,Win32,5.843544928,,,,,,,,,,,,,,10,drama,,,,,,394.625,396.2571,1,0,0.832,0.0002,0,129,129,9,1,three_way_cognate,1,REAL,FALSA
,,,,,,,,,,001,2025-04-30_11h51.43.384,empathy_intonation_perc,2024.1.4,Win32,5.843544928,,,,,,,,,,,,,,72,rostro,,,,,,396.2573,397.8271,1,0,0.7997,,0,130,130,71,1,non_cognate,1,REAL,FALSA
,,,,,,,,,,001,2025-04-30_11h51.43.384,empathy_intonation_perc,2024.1.4,Win32,5.843544928,,,,,,,,,,,,,,28,ardor,,,,,,397.8273,399.5562,0,1,0.9438,9.99999E-05,0,131,131,27,1,two_way_cognate,1,REAL,FALSA
,,,,,,,,,,001,2025-04-30_11h51.43.384,empathy_intonation_perc,2024.1.4,Win32,5.843544928,,,,,,,,,,,,,,109,laras,,,,,,399.5565,401.4464,0,1,1.1131,0.0001,0,132,132,108,1,pseudoword,0,REAL,FALSA
,,,,,,,,,,001,2025-04-30_11h51.43.384,empathy_intonation_perc,2024.1.4,Win32,5.843544928,,,,,,,,,,,,,,106,diebro,,,,,,401.4466,402.9999,1,0,0.7904,0.0002,0,133,133,105,1,pseudoword,0,REAL,FALSA
,,,,,,,,,,001,2025-04-30_11h51.43.384,empathy_intonation_perc,2024.1.4,Win32,5.843544928,,,,,,,,,,,,,,98,martir,,,,,,403.0001,404.5586,0,1,0.7958,,0,134,134,97,1,pseudoword,0,REAL,FALSA
,,,,,,,,,,001,2025-04-30_11h51.43.384,empathy_intonation_perc,2024.1.4,Win32,5.843544928,,,,,,,,,,,,,,166,anfia,,,,,,404.5588,405.9592,0,1,0.6366,,0,135,135,165,1,pseudoword,0,REAL,FALSA
,,,,,,,,,,001,2025-04-30_11h51.43.384,empathy_intonation_perc,2024.1.4,Win32,5.843544928,,,,,,,,,,,,,,140,chorde,,,,,,405.9595,407.5207,1,0,0.8037,0.0002,0,136,136,139,1,pseudoword,0,REAL,FALSA
,,,,,,,,,,001,2025-04-30_11h51.43.384,empathy_intonation_perc,2024.1.4,Win32,5.843544928,,,,,,,,,,,,,,189,medium,,,,,,407.521,408.7414,0,1,0.4686,,0,137,137,188,1,pseudoword,0,REAL,FALSA
,,,,,,,,,,001,2025-04-30_11h51.43.384,empathy_intonation_perc,2024.1.4,Win32,5.843544928,,,,,,,,,,,,,,32,animal,,,,,,408.7417,410.2785,0,1,0.7884,,0,138,138,31,1,two_way_cognate,1,REAL,FALSA
,,,,,,,,,,001,2025-04-30_11h51.43.384,empathy_intonation_perc,2024.1.4,Win32,5.843544928,,,,,,,,,,,,,,59,feo,,,,,,410.2788,411.689,1,0,0.6419,0.0002,0,139,139,58,1,non_cognate,1,REAL,FALSA
,,,,,,,,,,001,2025-04-30_11h51.43.384,empathy_intonation_perc,2024.1.4,Win32,5.843544928,,,,,,,,,,,,,,188,amplir,,,,,,411.6892,414.0043,0,1,1.5578,0.0001,0,140,140,187,1,pseudoword,0,REAL,FALSA
,,,,,,,,,,001,2025-04-30_11h51.43.384,empathy_intonation_perc,2024.1.4,Win32,5.843544928,,,,,,,,,,,,,,119,esís,,,,,,414.0045,415.7124,1,0,0.9591,0.0002,0,141,141,118,1,pseudoword,0,REAL,FALSA
,,,,,,,,,,001,2025-04-30_11h51.43.384,empathy_intonation_perc,2024.1.4,Win32,5.843544928,,,,,,,,,,,,,,115,lidena,,,,,,415.7127,417.7627,1,0,1.2848,0.0002,0,142,142,114,1,pseudoword,0,REAL,FALSA
,,,,,,,,,,001,2025-04-30_11h51.43.384,empathy_intonation_perc,2024.1.4,Win32,5.843544928,,,,,,,,,,,,,,180,pupica,,,,,,417.763,419.4754,0,1,0.9512,,0,143,143,179,1,pseudoword,0,REAL,FALSA
,,,,,,,,,,001,2025-04-30_11h51.43.384,empathy_intonation_perc,2024.1.4,Win32,5.843544928,,,,,,,,,,,,,,182,desaro,,,,,,419.4756,421.0418,1,0,0.7968,0.0002,0,144,144,181,1,pseudoword,0,REAL,FALSA
,,,,,,,,,,001,2025-04-30_11h51.43.384,empathy_intonation_perc,2024.1.4,Win32,5.843544928,,,,,,,,,,,,,,144,diroco,,,,,,421.042,422.7912,0,1,0.9842,0.0002,0,145,145,143,1,pseudoword,0,REAL,FALSA
,,,,,,,,,,001,2025-04-30_11h51.43.384,empathy_intonation_perc,2024.1.4,Win32,5.843544928,,,,,,,,,,,,,,108,jauda,,,,,,422.7914,424.5385,1,0,0.97,9.99999E-05,0,146,146,107,1,pseudoword,0,REAL,FALSA
,,,,,,,,,,001,2025-04-30_11h51.43.384,empathy_intonation_perc,2024.1.4,Win32,5.843544928,,,,,,,,,,,,,,51,listo,,,,,,424.5388,426.1039,1,0,0.8644,0.0002,0,147,147,50,1,non_cognate,1,REAL,FALSA
,,,,,,,,,,001,2025-04-30_11h51.43.384,empathy_intonation_perc,2024.1.4,Win32,5.843544928,,,,,,,,,,,,,,54,tapón,,,,,,426.1041,427.8914,1,0,1.0038,0.0001,0,148,148,53,1,non_cognate,1,REAL,FALSA
,,,,,,,,,,001,2025-04-30_11h51.43.384,empathy_intonation_perc,2024.1.4,Win32,5.843544928,,,,,,,,,,,,,,147,alla,,,,,,427.8916,429.4895,0,1,0.8105,9.99999E-05,0,149,149,146,1,pseudoword,0,REAL,FALSA
,,,,,,,,,,001,2025-04-30_11h51.43.384,empathy_intonation_perc,2024.1.4,Win32,5.843544928,,,,,,,,,,,,,,29,clamor,,,,,,429.4897,431.1439,1,0,0.8479,0.0002,0,150,150,28,1,two_way_cognate,1,REAL,FALSA
,,,,,,,,,,001,2025-04-30_11h51.43.384,empathy_intonation_perc,2024.1.4,Win32,5.843544928,,,,,,,,,,,,,,122,boñaz,,,,,,431.1442,432.7952,1,0,0.8454,0.0002,0,151,151,121,1,pseudoword,0,REAL,FALSA
,,,,,,,,,,001,2025-04-30_11h51.43.384,empathy_intonation_perc,2024.1.4,Win32,5.843544928,,,,,,,,,,,,,,3,disco,,,,,,432.7955,434.5587,0,1,0.9786,0.0002,0,152,152,2,1,three_way_cognate,1,REAL,FALSA
,,,,,,,,,,001,2025-04-30_11h51.43.384,empathy_intonation_perc,2024.1.4,Win32,5.843544928,,,,,,,,,,,,,,33,collar,,,,,,434.559,436.1752,1,0,0.8233,9.99999E-05,0,153,153,32,1,two_way_cognate,1,REAL,FALSA
,,,,,,,,,,001,2025-04-30_11h51.43.384,empathy_intonation_perc,2024.1.4,Win32,5.843544928,,,,,,,,,,,,,,26,enigma,,,,,,436.1754,437.9057,0,1,0.9749,0.0001,0,154,154,25,1,two_way_cognate,1,REAL,FALSA
,,,,,,,,,,001,2025-04-30_11h51.43.384,empathy_intonation_perc,2024.1.4,Win32,5.843544928,,,,,,,,,,,,,,142,parre,,,,,,437.9061,439.3207,1,0,0.6539,0.0002,0,155,155,141,1,pseudoword,0,REAL,FALSA
,,,,,,,,,,001,2025-04-30_11h51.43.384,empathy_intonation_perc,2024.1.4,Win32,5.843544928,,,,,,,,,,,,,,31,civil,,,,,,439.3211,441.2875,1,0,1.1535,0.0001,0,156,156,30,1,two_way_cognate,1,REAL,FALSA
,,,,,,,,,,001,2025-04-30_11h51.43.384,empathy_intonation_perc,2024.1.4,Win32,5.843544928,,,,,,,,,,,,,,183,edioso,,,,,,441.2878,442.9596,0,1,0.8375,9.99999E-05,0,157,157,182,1,pseudoword,0,REAL,FALSA
,,,,,,,,,,001,2025-04-30_11h51.43.384,empathy_intonation_perc,2024.1.4,Win32,5.843544928,,,,,,,,,,,,,,163,llzan,,,,,,442.9599,444.5047,1,0,0.7272,,0,158,158,162,1,pseudoword,0,REAL,FALSA
,,,,,,,,,,001,2025-04-30_11h51.43.384,empathy_intonation_perc,2024.1.4,Win32,5.843544928,,,,,,,,,,,,,,30,fiscal,,,,,,444.505,446.1761,0,1,0.875,0.0001,0,159,159,29,1,two_way_cognate,1,REAL,FALSA
,,,,,,,,,,001,2025-04-30_11h51.43.384,empathy_intonation_perc,2024.1.4,Win32,5.843544928,,,,,,,,,,,,,,134,molor,,,,,,446.1764,447.8313,1,0,0.8335,0.0002,0,160,160,133,1,pseudoword,0,REAL,FALSA
,,,,,,,,,,001,2025-04-30_11h51.43.384,empathy_intonation_perc,2024.1.4,Win32,5.843544928,,,,,,,,,,,,,,151,prías,,,,,,447.8315,450.2992,1,0,1.7332,0.0001,0,161,161,150,1,pseudoword,0,REAL,FALSA
,,,,,,,,,,001,2025-04-30_11h51.43.384,empathy_intonation_perc,2024.1.4,Win32,5.843544928,,,,,,,,,,,,,,118,bará,,,,,,450.2995,452.462,1,0,1.4066,0.0002,0,162,162,117,1,pseudoword,0,REAL,FALSA
,,,,,,,,,,001,2025-04-30_11h51.43.384,empathy_intonation_perc,2024.1.4,Win32,5.843544928,,,,,,,,,,,,,,161,civas,,,,,,452.4624,454.3178,1,0,1.0886,,0,163,163,160,1,pseudoword,0,REAL,FALSA
,,,,,,,,,,001,2025-04-30_11h51.43.384,empathy_intonation_perc,2024.1.4,Win32,5.843544928,,,,,,,,,,,,,,124,lobe,,,,,,454.3181,455.9467,0,1,0.822,,0,164,164,123,1,pseudoword,0,REAL,FALSA
,,,,,,,,,,001,2025-04-30_11h51.43.384,empathy_intonation_perc,2024.1.4,Win32,5.843544928,,,,,,,,,,,,,,50,sierra,,,,,,455.9469,457.5827,1,0,0.8314,,0,165,165,49,1,non_cognate,1,REAL,FALSA
,,,,,,,,,,001,2025-04-30_11h51.43.384,empathy_intonation_perc,2024.1.4,Win32,5.843544928,,,,,,,,,,,,,,6,horror,,,,,,457.5831,459.3744,0,1,0.9795,0.0002,0,166,166,5,1,three_way_cognate,1,REAL,FALSA
,,,,,,,,,,001,2025-04-30_11h51.43.384,empathy_intonation_perc,2024.1.4,Win32,5.843544928,,,,,,,,,,,,,,84,aviso,,,,,,459.3747,462.029,1,0,1.8456,9.99999E-05,0,167,167,83,1,non_cognate,1,REAL,FALSA
,,,,,,,,,,001,2025-04-30_11h51.43.384,empathy_intonation_perc,2024.1.4,Win32,5.843544928,,,,,,,,,,,,,,120,mauja,,,,,,462.0293,463.958,0,1,1.1217,,0,168,168,119,1,pseudoword,0,REAL,FALSA
,,,,,,,,,,001,2025-04-30_11h51.43.384,empathy_intonation_perc,2024.1.4,Win32,5.843544928,,,,,,,,,,,,,,179,suelet,,,,,,463.9583,465.521,1,0,0.7896,,0,169,169,178,1,pseudoword,0,REAL,FALSA
,,,,,,,,,,001,2025-04-30_11h51.43.384,empathy_intonation_perc,2024.1.4,Win32,5.843544928,,,,,,,,,,,,,,153,golla,,,,,,465.5212,467.2795,0,1,0.9897,9.99999E-05,0,170,170,152,1,pseudoword,0,REAL,FALSA
,,,,,,,,,,001,2025-04-30_11h51.43.384,empathy_intonation_perc,2024.1.4,Win32,5.843544928,,,,,,,,,,,,,,192,próces,,,,,,467.2799,469.0657,0,1,1.0259,,0,171,171,191,1,pseudoword,0,REAL,FALSA
,,,,,,,,,,001,2025-04-30_11h51.43.384,empathy_intonation_perc,2024.1.4,Win32,5.843544928,,,,,,,,,,,,,,149,emén,,,,,,469.0661,470.6162,1,0,0.7938,,0,172,172,148,1,pseudoword,0,REAL,FALSA
,,,,,,,,,,001,2025-04-30_11h51.43.384,empathy_intonation_perc,2024.1.4,Win32,5.843544928,,,,,,,,,,,,,,110,densó,,,,,,470.6164,472.1681,0,1,0.7882,0.0002,0,173,173,109,1,pseudoword,0,REAL,FALSA
,,,,,,,,,,001,2025-04-30_11h51.43.384,empathy_intonation_perc,2024.1.4,Win32,5.843544928,,,,,,,,,,,,,,127,vien,,,,,,472.1684,473.7458,0,1,0.7962,,0,174,174,126,1,pseudoword,0,REAL,FALSA
,,,,,,,,,,001,2025-04-30_11h51.43.384,empathy_intonation_perc,2024.1.4,Win32,5.843544928,,,,,,,,,,,,,,172,dogue,,,,,,473.7461,475.785,0,1,1.277,,0,175,175,171,1,pseudoword,0,REAL,FALSA
,,,,,,,,,,001,2025-04-30_11h51.43.384,empathy_intonation_perc,2024.1.4,Win32,5.843544928,,,,,,,,,,,,,,66,aleta,,,,,,475.7853,477.4434,0,1,0.8834,0.0001,0,176,176,65,1,non_cognate,1,REAL,FALSA
,,,,,,,,,,001,2025-04-30_11h51.43.384,empathy_intonation_perc,2024.1.4,Win32,5.843544928,,,,,,,,,,,,,,97,nocita,,,,,,477.4437,479.0681,1,0,0.9308,0.0001,0,177,177,96,1,pseudoword,0,REAL,FALSA
,,,,,,,,,,001,2025-04-30_11h51.43.384,empathy_intonation_perc,2024.1.4,Win32,5.843544928,,,,,,,,,,,,,,20,trauma,,,,,,479.0683,481.1075,0,1,1.3448,0.0002,0,178,178,19,1,three_way_cognate,1,REAL,FALSA
,,,,,,,,,,001,2025-04-30_11h51.43.384,empathy_intonation_perc,2024.1.4,Win32,5.843544928,,,,,,,,,,,,,,46,mortal,,,,,,481.1078,483.0457,0,1,1.1871,9.99999E-05,0,179,179,45,1,two_way_cognate,1,REAL,FALSA
,,,,,,,,,,001,2025-04-30_11h51.43.384,empathy_intonation_perc,2024.1.4,Win32,5.843544928,,,,,,,,,,,,,,89,muñeca,,,,,,483.0461,484.3436,1,0,0.569,0,0,180,180,88,1,non_cognate,1,REAL,FALSA
,,,,,,,,,,001,2025-04-30_11h51.43.384,empathy_intonation_perc,2024.1.4,Win32,5.843544928,,,,,,,,,,,,,,63,hilo,,,,,,484.3438,485.9133,1,0,0.804,0.0002,0,181,181,62,1,non_cognate,1,REAL,FALSA
,,,,,,,,,,001,2025-04-30_11h51.43.384,empathy_intonation_perc,2024.1.4,Win32,5.843544928,,,,,,,,,,,,,,2,tumor,,,,,,485.9136,488.0309,0,1,1.3592,0.0001,0,182,182,1,1,three_way_cognate,1,REAL,FALSA
,,,,,,,,,,001,2025-04-30_11h51.43.384,empathy_intonation_perc,2024.1.4,Win32,5.843544928,,,,,,,,,,,,,,157,seled,,,,,,488.0312,489.7306,1,0,0.9475,,0,183,183,156,1,pseudoword,0,REAL,FALSA
,,,,,,,,,,001,2025-04-30_11h51.43.384,empathy_intonation_perc,2024.1.4,Win32,5.843544928,,,,,,,,,,,,,,152,prave,,,,,,489.7309,491.7861,1,0,1.2859,,0,184,184,151,1,pseudoword,0,REAL,FALSA
,,,,,,,,,,001,2025-04-30_11h51.43.384,empathy_intonation_perc,2024.1.4,Win32,5.843544928,,,,,,,,,,,,,,23,plural,,,,,,491.7864,493.5326,1,0,0.9716,9.99999E-05,0,185,185,22,1,three_way_cognate,1,REAL,FALSA
,,,,,,,,,,001,2025-04-30_11h51.43.384,empathy_intonation_perc,2024.1.4,Win32,5.843544928,,,,,,,,,,,,,,95,listo,,,,,,493.5329,495.254,1,0,0.9433,,0,186,186,94,1,non_cognate,1,REAL,FALSA
,,,,,,,,,,001,2025-04-30_11h51.43.384,empathy_intonation_perc,2024.1.4,Win32,5.843544928,,,,,,,,,,,,,,132,nocó,,,,,,495.2542,496.8815,1,0,0.8561,0.0001,0,187,187,131,1,pseudoword,0,REAL,FALSA
,,,,,,,,,,001,2025-04-30_11h51.43.384,empathy_intonation_perc,2024.1.4,Win32,5.843544928,,,,,,,,,,,,,,185,aljizo,,,,,,496.8817,498.6739,1,0,0.9895,9.99999E-05,0,188,188,184,1,pseudoword,0,REAL,FALSA
,,,,,,,,,,001,2025-04-30_11h51.43.384,empathy_intonation_perc,2024.1.4,Win32,5.843544928,,,,,,,,,,,,,,105,peniz,,,,,,498.6742,500.3775,0,1,0.9535,0.0001,0,189,189,104,1,pseudoword,0,REAL,FALSA
,,,,,,,,,,001,2025-04-30_11h51.43.384,empathy_intonation_perc,2024.1.4,Win32,5.843544928,,,,,,,,,,,,,,48,pelvis,,,,,,500.3777,502.3034,1,0,1.1535,,0,190,190,47,1,two_way_cognate,1,REAL,FALSA
,,,,,,,,,,001,2025-04-30_11h51.43.384,empathy_intonation_perc,2024.1.4,Win32,5.843544928,,,,,,,,,,,,,,154,harvé,,,,,,502.3037,503.6559,0,1,0.6171,,0,191,191,153,1,pseudoword,0,REAL,FALSA
