lextale_instructions.started,lextale_instructions.stopped,lextale_instructions_loop.thisRepN,lextale_instructions_loop.thisTrialN,lextale_instructions_loop.thisN,lextale_instructions_loop.thisIndex,lextale_instructions_loop.ran,instructions_text,continue_text,participant,session,date,expName,psychopyVersion,OS,frameRate,lextale_practice.started,lextale_practice.stopped,key_resp_lextale_practice.keys,key_resp_lextale_practice.corr,key_resp_lextale_practice.rt,key_resp_lextale_practice.duration,lextale_practice_feedback.started,lextale_practice_feedback.stopped,lextale_practice_trials.thisRepN,lextale_practice_trials.thisTrialN,lextale_practice_trials.thisN,lextale_practice_trials.thisIndex,lextale_practice_trials.ran,stim,word,correct_response,prac_button_real,prac_button_false,lextale_check.started,lextale_check.stopped,lextale_trial.started,lextale_trial.stopped,key_resp_lextale_trial.keys,key_resp_lextale_trial.corr,key_resp_lextale_trial.rt,key_resp_lextale_trial.duration,lextail_trials.thisRepN,lextail_trials.thisTrialN,lextail_trials.thisN,lextail_trials.thisIndex,lextail_trials.ran,type,correct_reponse,button_real,button_false
0.0042,611.6695,0,0,0,0,1,"Este es un test de vocabulario en español. 
  
  A continuación vas a ver 90 secuencias de letras que parecen 'españolas'.
  
  Solo algunas de ellas son palabras de verdad.",(presiona la barra espaciadora para continuar),Malik,001,2024-06-30_07h27.03.834,empathy_intonation_perc,2024.1.4,Win32,59.88023952,,,,,,,,,,,,,,,,,,,,,,,,,,,,,,,,,,,
611.6703,612.0003,0,1,1,1,1,"Por favor, señala las palabras que tú conoces (aquellas que estás convencido que son palabras españolas, incluso aunque no seas capaz de dar el significado preciso).",(presiona la barra espaciadora para continuar),Malik,001,2024-06-30_07h27.03.834,empathy_intonation_perc,2024.1.4,Win32,59.88023952,,,,,,,,,,,,,,,,,,,,,,,,,,,,,,,,,,,
612.001,612.4007,0,2,2,2,1,Pero cuidado: los errores se penalizan. Por eso no tiene sentido tratar de incrementar tu puntuación marcando como reales palabras que nunca has visto.,(presiona la barra espaciadora para continuar),Malik,001,2024-06-30_07h27.03.834,empathy_intonation_perc,2024.1.4,Win32,59.88023952,,,,,,,,,,,,,,,,,,,,,,,,,,,,,,,,,,,
612.4012,612.9667,0,3,3,3,1,"Presiona la tecla 1 si piensas que es una palabra real y la tecla 
  0 si piensas que es una palabra falsa. 
  
  Vamos a practicar un poco...",(presiona la barra espaciadora para continuar),Malik,001,2024-06-30_07h27.03.834,empathy_intonation_perc,2024.1.4,Win32,59.88023952,,,,,,,,,,,,,,,,,,,,,,,,,,,,,,,,,,,
,,,,,,,,,Malik,001,2024-06-30_07h27.03.834,empathy_intonation_perc,2024.1.4,Win32,59.88023952,612.9735,616.0831,1,0,2.5689,,616.0928,617.0828,0,0,0,0,1,0,depiste,0,REAL,FALSA,,,,,,,,,,,,,,,,,
,,,,,,,,,Malik,001,2024-06-30_07h27.03.834,empathy_intonation_perc,2024.1.4,Win32,59.88023952,617.0834,618.6989,1,1,1.0792,,618.6989,619.6994,0,1,1,1,1,0,sí,1,REAL,FALSA,,,,,,,,,,,,,,,,,
,,,,,,,,,Malik,001,2024-06-30_07h27.03.834,empathy_intonation_perc,2024.1.4,Win32,59.88023952,619.7187,621.4658,1,0,1.2112,,621.4659,622.4657,0,2,2,2,1,0,coné,0,REAL,FALSA,,,,,,,,,,,,,,,,,
,,,,,,,,,Malik,001,2024-06-30_07h27.03.834,empathy_intonation_perc,2024.1.4,Win32,59.88023952,622.4665,624.4315,0,1,1.4257,,624.4315,625.4318,0,3,3,3,1,0,calpar,0,REAL,FALSA,,,,,,,,,,,,,,,,,
,,,,,,,,,Malik,001,2024-06-30_07h27.03.834,empathy_intonation_perc,2024.1.4,Win32,59.88023952,625.4322,626.9144,0,1,0.9477,,626.9144,627.9146,0,4,4,4,1,0,joten,0,REAL,FALSA,,,,,,,,,,,,,,,,,
,,,,,,,,,Malik,001,2024-06-30_07h27.03.834,empathy_intonation_perc,2024.1.4,Win32,59.88023952,627.9335,630.6813,1,1,2.2067,,630.6817,631.6706,0,5,5,5,1,0,sacapuntas,1,REAL,FALSA,,,,,,,,,,,,,,,,,
,,,,,,,,,Malik,001,2024-06-30_07h27.03.834,empathy_intonation_perc,2024.1.4,Win32,59.88023952,631.6715,633.2158,0,1,1.0115,,633.2159,634.2193,0,6,6,6,1,0,priba,0,REAL,FALSA,,,,,,,,,,,,,,,,,
,,,,,,,,,Malik,001,2024-06-30_07h27.03.834,empathy_intonation_perc,2024.1.4,Win32,59.88023952,634.2466,636.1301,1,0,1.3623,,636.1301,637.1301,0,7,7,7,1,0,pelasula,0,REAL,FALSA,,,,,,,,,,,,,,,,,
,,,,,,,,,Malik,001,2024-06-30_07h27.03.834,empathy_intonation_perc,2024.1.4,Win32,59.88023952,637.1305,638.3965,1,1,0.7367,,638.3965,639.3967,0,8,8,8,1,0,bien,1,REAL,FALSA,,,,,,,,,,,,,,,,,
,,,,,,,,,Malik,001,2024-06-30_07h27.03.834,empathy_intonation_perc,2024.1.4,Win32,59.88023952,639.3973,640.613,1,1,0.6836,,640.613,641.6133,0,9,9,9,1,0,casa,1,REAL,FALSA,,,,,,,,,,,,,,,,,
,,,,,,,,,Malik,001,2024-06-30_07h27.03.834,empathy_intonation_perc,2024.1.4,Win32,59.88023952,641.6141,642.9461,0,1,0.8042,,642.9462,643.946,0,10,10,10,1,0,lejo,0,REAL,FALSA,,,,,,,,,,,,,,,,,
,,,,,,,,,Malik,001,2024-06-30_07h27.03.834,empathy_intonation_perc,2024.1.4,Win32,59.88023952,643.9661,646.9457,1,0,2.4409,,646.9459,647.9452,0,11,11,11,1,0,pretantas,0,REAL,FALSA,,,,,,,,,,,,,,,,,
,,,,,,,,,Malik,001,2024-06-30_07h27.03.834,empathy_intonation_perc,2024.1.4,Win32,59.88023952,,,,,,,,,,,,,,,,,,,647.9461,653.297,,,,,,,,,,,,,,,
,,,,,,,,,Malik,001,2024-06-30_07h27.03.834,empathy_intonation_perc,2024.1.4,Win32,59.88023952,,,,,,,,,,,,,,18,altar,,,,,,653.3388,655.2325,1,0,1.3636,,0,0,0,17,1,three_way_cognate,1,REAL,FALSA
,,,,,,,,,Malik,001,2024-06-30_07h27.03.834,empathy_intonation_perc,2024.1.4,Win32,59.88023952,,,,,,,,,,,,,,53,punta,,,,,,655.2333,657.5616,1,0,1.7868,,0,1,1,52,1,non_cognate,1,REAL,FALSA
,,,,,,,,,Malik,001,2024-06-30_07h27.03.834,empathy_intonation_perc,2024.1.4,Win32,59.88023952,,,,,,,,,,,,,,35,aurora,,,,,,657.5627,658.6775,1,0,0.5938,,0,2,2,34,1,two_way_cognate,1,REAL,FALSA
,,,,,,,,,Malik,001,2024-06-30_07h27.03.834,empathy_intonation_perc,2024.1.4,Win32,59.88023952,,,,,,,,,,,,,,145,rúo,,,,,,658.6789,660.3604,0,1,1.1393,,0,3,3,144,1,pseudoword,0,REAL,FALSA
,,,,,,,,,Malik,001,2024-06-30_07h27.03.834,empathy_intonation_perc,2024.1.4,Win32,59.88023952,,,,,,,,,,,,,,41,pasta,,,,,,660.3613,661.4767,1,0,0.5914,,0,4,4,40,1,two_way_cognate,1,REAL,FALSA
,,,,,,,,,Malik,001,2024-06-30_07h27.03.834,empathy_intonation_perc,2024.1.4,Win32,59.88023952,,,,,,,,,,,,,,96,caro,,,,,,661.4772,662.5936,1,0,0.566,,0,5,5,95,1,non_cognate,1,REAL,FALSA
,,,,,,,,,Malik,001,2024-06-30_07h27.03.834,empathy_intonation_perc,2024.1.4,Win32,59.88023952,,,,,,,,,,,,,,158,babrá,,,,,,662.5949,664.3762,1,0,1.2421,,0,6,6,157,1,pseudoword,0,REAL,FALSA
,,,,,,,,,Malik,001,2024-06-30_07h27.03.834,empathy_intonation_perc,2024.1.4,Win32,59.88023952,,,,,,,,,,,,,,132,nocó,,,,,,664.3765,665.9599,1,0,1.0358,,0,7,7,131,1,pseudoword,0,REAL,FALSA
,,,,,,,,,Malik,001,2024-06-30_07h27.03.834,empathy_intonation_perc,2024.1.4,Win32,59.88023952,,,,,,,,,,,,,,101,losco,,,,,,665.961,667.0759,1,0,0.5701,,0,8,8,100,1,pseudoword,0,REAL,FALSA
,,,,,,,,,Malik,001,2024-06-30_07h27.03.834,empathy_intonation_perc,2024.1.4,Win32,59.88023952,,,,,,,,,,,,,,166,anfia,,,,,,667.0764,668.2835,1,0,0.6672,,0,9,9,165,1,pseudoword,0,REAL,FALSA
,,,,,,,,,Malik,001,2024-06-30_07h27.03.834,empathy_intonation_perc,2024.1.4,Win32,59.88023952,,,,,,,,,,,,,,51,listo,,,,,,668.2841,669.4766,1,0,0.6563,,0,10,10,50,1,non_cognate,1,REAL,FALSA
,,,,,,,,,Malik,001,2024-06-30_07h27.03.834,empathy_intonation_perc,2024.1.4,Win32,59.88023952,,,,,,,,,,,,,,80,cuenco,,,,,,669.4782,671.2261,0,1,1.2091,,0,11,11,79,1,non_cognate,1,REAL,FALSA
,,,,,,,,,Malik,001,2024-06-30_07h27.03.834,empathy_intonation_perc,2024.1.4,Win32,59.88023952,,,,,,,,,,,,,,27,piano,,,,,,671.2275,672.4469,1,0,0.6818,,0,12,12,26,1,two_way_cognate,1,REAL,FALSA
,,,,,,,,,Malik,001,2024-06-30_07h27.03.834,empathy_intonation_perc,2024.1.4,Win32,59.88023952,,,,,,,,,,,,,,171,gotro,,,,,,672.4477,677.9587,1,0,4.9722,,0,13,13,170,1,pseudoword,0,REAL,FALSA
,,,,,,,,,Malik,001,2024-06-30_07h27.03.834,empathy_intonation_perc,2024.1.4,Win32,59.88023952,,,,,,,,,,,,,,71,torta,,,,,,677.986,703.5877,1,0,25.0844,,0,14,14,70,1,non_cognate,1,REAL,FALSA
,,,,,,,,,Malik,001,2024-06-30_07h27.03.834,empathy_intonation_perc,2024.1.4,Win32,59.88023952,,,,,,,,,,,,,,87,muleta,,,,,,703.5953,713.8866,0,1,2.2885,,0,15,15,86,1,non_cognate,1,REAL,FALSA
,,,,,,,,,Malik,001,2024-06-30_07h27.03.834,empathy_intonation_perc,2024.1.4,Win32,59.88023952,,,,,,,,,,,,,,32,animal,,,,,,713.8977,716.3037,1,0,1.8776,,0,16,16,31,1,two_way_cognate,1,REAL,FALSA
,,,,,,,,,Malik,001,2024-06-30_07h27.03.834,empathy_intonation_perc,2024.1.4,Win32,59.88023952,,,,,,,,,,,,,,183,edioso,,,,,,716.3045,721.503,1,0,4.6648,,0,17,17,182,1,pseudoword,0,REAL,FALSA
,,,,,,,,,Malik,001,2024-06-30_07h27.03.834,empathy_intonation_perc,2024.1.4,Win32,59.88023952,,,,,,,,,,,,,,182,desaro,,,,,,721.5293,723.252,0,1,1.1954,,0,18,18,181,1,pseudoword,0,REAL,FALSA
,,,,,,,,,Malik,001,2024-06-30_07h27.03.834,empathy_intonation_perc,2024.1.4,Win32,59.88023952,,,,,,,,,,,,,,68,puñal,,,,,,723.2523,725.1525,0,1,1.383,,0,19,19,67,1,non_cognate,1,REAL,FALSA
,,,,,,,,,Malik,001,2024-06-30_07h27.03.834,empathy_intonation_perc,2024.1.4,Win32,59.88023952,,,,,,,,,,,,,,72,rostro,,,,,,725.1531,726.3688,1,0,0.6805,,0,20,20,71,1,non_cognate,1,REAL,FALSA
,,,,,,,,,Malik,001,2024-06-30_07h27.03.834,empathy_intonation_perc,2024.1.4,Win32,59.88023952,,,,,,,,,,,,,,116,grigir,,,,,,726.3695,727.9854,0,1,1.0807,,0,21,21,115,1,pseudoword,0,REAL,FALSA
,,,,,,,,,Malik,001,2024-06-30_07h27.03.834,empathy_intonation_perc,2024.1.4,Win32,59.88023952,,,,,,,,,,,,,,54,tapón,,,,,,727.9862,729.5516,1,0,1.03,,0,22,22,53,1,non_cognate,1,REAL,FALSA
,,,,,,,,,Malik,001,2024-06-30_07h27.03.834,empathy_intonation_perc,2024.1.4,Win32,59.88023952,,,,,,,,,,,,,,179,suelet,,,,,,729.5521,731.0013,1,0,0.9141,,0,23,23,178,1,pseudoword,0,REAL,FALSA
,,,,,,,,,Malik,001,2024-06-30_07h27.03.834,empathy_intonation_perc,2024.1.4,Win32,59.88023952,,,,,,,,,,,,,,124,lobe,,,,,,731.0016,732.1507,1,0,0.6162,,0,24,24,123,1,pseudoword,0,REAL,FALSA
,,,,,,,,,Malik,001,2024-06-30_07h27.03.834,empathy_intonation_perc,2024.1.4,Win32,59.88023952,,,,,,,,,,,,,,40,pelvis,,,,,,732.1511,733.2509,1,0,0.5674,,0,25,25,39,1,two_way_cognate,1,REAL,FALSA
,,,,,,,,,Malik,001,2024-06-30_07h27.03.834,empathy_intonation_perc,2024.1.4,Win32,59.88023952,,,,,,,,,,,,,,49,teñir,,,,,,733.2514,734.5509,0,1,0.7665,,0,26,26,48,1,non_cognate,1,REAL,FALSA
,,,,,,,,,Malik,001,2024-06-30_07h27.03.834,empathy_intonation_perc,2024.1.4,Win32,59.88023952,,,,,,,,,,,,,,78,rendir,,,,,,734.5514,735.8675,1,0,0.7808,,0,27,27,77,1,non_cognate,1,REAL,FALSA
,,,,,,,,,Malik,001,2024-06-30_07h27.03.834,empathy_intonation_perc,2024.1.4,Win32,59.88023952,,,,,,,,,,,,,,188,amplir,,,,,,735.8681,738.2343,0,1,1.8347,,0,28,28,187,1,pseudoword,0,REAL,FALSA
,,,,,,,,,Malik,001,2024-06-30_07h27.03.834,empathy_intonation_perc,2024.1.4,Win32,59.88023952,,,,,,,,,,,,,,161,civas,,,,,,738.2601,740.1165,1,0,1.3317,,0,29,29,160,1,pseudoword,0,REAL,FALSA
,,,,,,,,,Malik,001,2024-06-30_07h27.03.834,empathy_intonation_perc,2024.1.4,Win32,59.88023952,,,,,,,,,,,,,,7,albino,,,,,,740.1169,741.4338,1,0,0.7787,,0,30,30,6,1,three_way_cognate,1,REAL,FALSA
,,,,,,,,,Malik,001,2024-06-30_07h27.03.834,empathy_intonation_perc,2024.1.4,Win32,59.88023952,,,,,,,,,,,,,,86,cuenco,,,,,,741.4345,743.0333,1,0,1.0605,,0,31,31,85,1,non_cognate,1,REAL,FALSA
,,,,,,,,,Malik,001,2024-06-30_07h27.03.834,empathy_intonation_perc,2024.1.4,Win32,59.88023952,,,,,,,,,,,,,,33,collar,,,,,,743.0341,744.2659,1,0,0.7079,,0,32,32,32,1,two_way_cognate,1,REAL,FALSA
,,,,,,,,,Malik,001,2024-06-30_07h27.03.834,empathy_intonation_perc,2024.1.4,Win32,59.88023952,,,,,,,,,,,,,,136,hueas,,,,,,744.2662,746.0659,1,0,1.28,,0,33,33,135,1,pseudoword,0,REAL,FALSA
,,,,,,,,,Malik,001,2024-06-30_07h27.03.834,empathy_intonation_perc,2024.1.4,Win32,59.88023952,,,,,,,,,,,,,,16,chat,,,,,,746.0664,747.1487,1,0,0.5467,,0,34,34,15,1,three_way_cognate,1,REAL,FALSA
,,,,,,,,,Malik,001,2024-06-30_07h27.03.834,empathy_intonation_perc,2024.1.4,Win32,59.88023952,,,,,,,,,,,,,,125,ceme,,,,,,747.1491,748.2653,1,0,0.5912,,0,35,35,124,1,pseudoword,0,REAL,FALSA
,,,,,,,,,Malik,001,2024-06-30_07h27.03.834,empathy_intonation_perc,2024.1.4,Win32,59.88023952,,,,,,,,,,,,,,155,kugis,,,,,,748.2656,749.5154,0,1,0.7151,,0,36,36,154,1,pseudoword,0,REAL,FALSA
,,,,,,,,,Malik,001,2024-06-30_07h27.03.834,empathy_intonation_perc,2024.1.4,Win32,59.88023952,,,,,,,,,,,,,,157,seled,,,,,,749.5157,751.0322,0,1,0.9863,,0,37,37,156,1,pseudoword,0,REAL,FALSA
,,,,,,,,,Malik,001,2024-06-30_07h27.03.834,empathy_intonation_perc,2024.1.4,Win32,59.88023952,,,,,,,,,,,,,,93,tapa,,,,,,751.0329,752.116,1,0,0.5486,,0,38,38,92,1,non_cognate,1,REAL,FALSA
,,,,,,,,,Malik,001,2024-06-30_07h27.03.834,empathy_intonation_perc,2024.1.4,Win32,59.88023952,,,,,,,,,,,,,,29,clamor,,,,,,752.117,753.3489,0,1,0.6958,,0,39,39,28,1,two_way_cognate,1,REAL,FALSA
,,,,,,,,,Malik,001,2024-06-30_07h27.03.834,empathy_intonation_perc,2024.1.4,Win32,59.88023952,,,,,,,,,,,,,,50,sierra,,,,,,753.3496,754.4653,1,0,0.5788,,0,40,40,49,1,non_cognate,1,REAL,FALSA
,,,,,,,,,Malik,001,2024-06-30_07h27.03.834,empathy_intonation_perc,2024.1.4,Win32,59.88023952,,,,,,,,,,,,,,37,torso,,,,,,754.4663,755.8478,1,0,0.8496,,0,41,41,36,1,two_way_cognate,1,REAL,FALSA
,,,,,,,,,Malik,001,2024-06-30_07h27.03.834,empathy_intonation_perc,2024.1.4,Win32,59.88023952,,,,,,,,,,,,,,95,listo,,,,,,755.8481,756.9644,1,0,0.5961,,0,42,42,94,1,non_cognate,1,REAL,FALSA
,,,,,,,,,Malik,001,2024-06-30_07h27.03.834,empathy_intonation_perc,2024.1.4,Win32,59.88023952,,,,,,,,,,,,,,24,retina,,,,,,756.9649,758.1307,1,0,0.636,,0,43,43,23,1,three_way_cognate,1,REAL,FALSA
,,,,,,,,,Malik,001,2024-06-30_07h27.03.834,empathy_intonation_perc,2024.1.4,Win32,59.88023952,,,,,,,,,,,,,,192,próces,,,,,,758.1309,759.4646,1,0,0.8162,,0,44,44,191,1,pseudoword,0,REAL,FALSA
,,,,,,,,,Malik,001,2024-06-30_07h27.03.834,empathy_intonation_perc,2024.1.4,Win32,59.88023952,,,,,,,,,,,,,,113,nasce,,,,,,759.4655,760.7811,0,1,0.7807,,0,45,45,112,1,pseudoword,0,REAL,FALSA
,,,,,,,,,Malik,001,2024-06-30_07h27.03.834,empathy_intonation_perc,2024.1.4,Win32,59.88023952,,,,,,,,,,,,,,66,aleta,,,,,,760.7822,762.114,0,1,0.8035,,0,46,46,65,1,non_cognate,1,REAL,FALSA
,,,,,,,,,Malik,001,2024-06-30_07h27.03.834,empathy_intonation_perc,2024.1.4,Win32,59.88023952,,,,,,,,,,,,,,60,siglo,,,,,,762.1148,763.3133,0,1,0.6709,,0,47,47,59,1,non_cognate,1,REAL,FALSA
,,,,,,,,,Malik,001,2024-06-30_07h27.03.834,empathy_intonation_perc,2024.1.4,Win32,59.88023952,,,,,,,,,,,,,,103,vueras,,,,,,763.3135,764.4973,1,0,0.6663,,0,48,48,102,1,pseudoword,0,REAL,FALSA
,,,,,,,,,Malik,001,2024-06-30_07h27.03.834,empathy_intonation_perc,2024.1.4,Win32,59.88023952,,,,,,,,,,,,,,142,parre,,,,,,764.4979,765.6469,0,1,0.6158,,0,49,49,141,1,pseudoword,0,REAL,FALSA
,,,,,,,,,Malik,001,2024-06-30_07h27.03.834,empathy_intonation_perc,2024.1.4,Win32,59.88023952,,,,,,,,,,,,,,139,sasos,,,,,,765.6475,766.8136,0,1,0.6353,,0,50,50,138,1,pseudoword,0,REAL,FALSA
,,,,,,,,,Malik,001,2024-06-30_07h27.03.834,empathy_intonation_perc,2024.1.4,Win32,59.88023952,,,,,,,,,,,,,,1,moral,,,,,,766.8144,767.8637,1,0,0.5133,,0,51,51,0,1,three_way_cognate,1,REAL,FALSA
,,,,,,,,,Malik,001,2024-06-30_07h27.03.834,empathy_intonation_perc,2024.1.4,Win32,59.88023952,,,,,,,,,,,,,,59,feo,,,,,,767.8644,769.0633,0,1,0.6685,,0,52,52,58,1,non_cognate,1,REAL,FALSA
,,,,,,,,,Malik,001,2024-06-30_07h27.03.834,empathy_intonation_perc,2024.1.4,Win32,59.88023952,,,,,,,,,,,,,,123,arane,,,,,,769.064,770.4134,0,1,0.8152,,0,53,53,122,1,pseudoword,0,REAL,FALSA
,,,,,,,,,Malik,001,2024-06-30_07h27.03.834,empathy_intonation_perc,2024.1.4,Win32,59.88023952,,,,,,,,,,,,,,64,rizado,,,,,,770.414,771.9129,0,1,0.9617,,0,54,54,63,1,non_cognate,1,REAL,FALSA
,,,,,,,,,Malik,001,2024-06-30_07h27.03.834,empathy_intonation_perc,2024.1.4,Win32,59.88023952,,,,,,,,,,,,,,52,blando,,,,,,771.9135,773.0299,1,0,0.5829,,0,55,55,51,1,non_cognate,1,REAL,FALSA
,,,,,,,,,Malik,001,2024-06-30_07h27.03.834,empathy_intonation_perc,2024.1.4,Win32,59.88023952,,,,,,,,,,,,,,187,nomata,,,,,,773.0305,774.5961,1,0,1.0339,,0,56,56,186,1,pseudoword,0,REAL,FALSA
,,,,,,,,,Malik,001,2024-06-30_07h27.03.834,empathy_intonation_perc,2024.1.4,Win32,59.88023952,,,,,,,,,,,,,,127,vien,,,,,,774.5968,775.7789,1,0,0.6483,,0,57,57,126,1,pseudoword,0,REAL,FALSA
,,,,,,,,,Malik,001,2024-06-30_07h27.03.834,empathy_intonation_perc,2024.1.4,Win32,59.88023952,,,,,,,,,,,,,,79,suelo,,,,,,775.7792,777.1792,1,0,0.8706,,0,58,58,78,1,non_cognate,1,REAL,FALSA
,,,,,,,,,Malik,001,2024-06-30_07h27.03.834,empathy_intonation_perc,2024.1.4,Win32,59.88023952,,,,,,,,,,,,,,118,bará,,,,,,777.18,778.9123,1,0,1.1972,,0,59,59,117,1,pseudoword,0,REAL,FALSA
,,,,,,,,,Malik,001,2024-06-30_07h27.03.834,empathy_intonation_perc,2024.1.4,Win32,59.88023952,,,,,,,,,,,,,,130,dubo,,,,,,778.9129,779.9456,1,0,0.4962,,0,60,60,129,1,pseudoword,0,REAL,FALSA
,,,,,,,,,Malik,001,2024-06-30_07h27.03.834,empathy_intonation_perc,2024.1.4,Win32,59.88023952,,,,,,,,,,,,,,70,ánimo,,,,,,779.9465,781.1785,1,0,0.7019,,0,61,61,69,1,non_cognate,1,REAL,FALSA
,,,,,,,,,Malik,001,2024-06-30_07h27.03.834,empathy_intonation_perc,2024.1.4,Win32,59.88023952,,,,,,,,,,,,,,98,martir,,,,,,781.1794,782.5452,1,0,0.8335,,0,62,62,97,1,pseudoword,0,REAL,FALSA
,,,,,,,,,Malik,001,2024-06-30_07h27.03.834,empathy_intonation_perc,2024.1.4,Win32,59.88023952,,,,,,,,,,,,,,141,virios,,,,,,782.5461,784.3448,1,0,1.2668,,0,63,63,140,1,pseudoword,0,REAL,FALSA
,,,,,,,,,Malik,001,2024-06-30_07h27.03.834,empathy_intonation_perc,2024.1.4,Win32,59.88023952,,,,,,,,,,,,,,137,trugo,,,,,,784.3456,786.1276,0,1,1.2511,,0,64,64,136,1,pseudoword,0,REAL,FALSA
,,,,,,,,,Malik,001,2024-06-30_07h27.03.834,empathy_intonation_perc,2024.1.4,Win32,59.88023952,,,,,,,,,,,,,,148,gino,,,,,,786.1285,787.4943,1,0,0.828,,0,65,65,147,1,pseudoword,0,REAL,FALSA
,,,,,,,,,Malik,001,2024-06-30_07h27.03.834,empathy_intonation_perc,2024.1.4,Win32,59.88023952,,,,,,,,,,,,,,178,inichó,,,,,,787.4955,788.6771,1,0,0.6423,,0,66,66,177,1,pseudoword,0,REAL,FALSA
,,,,,,,,,Malik,001,2024-06-30_07h27.03.834,empathy_intonation_perc,2024.1.4,Win32,59.88023952,,,,,,,,,,,,,,91,equipo,,,,,,788.6775,790.2271,1,0,1.0176,,0,67,67,90,1,non_cognate,1,REAL,FALSA
,,,,,,,,,Malik,001,2024-06-30_07h27.03.834,empathy_intonation_perc,2024.1.4,Win32,59.88023952,,,,,,,,,,,,,,21,hotel,,,,,,790.2281,791.227,1,0,0.461,,0,68,68,20,1,three_way_cognate,1,REAL,FALSA
,,,,,,,,,Malik,001,2024-06-30_07h27.03.834,empathy_intonation_perc,2024.1.4,Win32,59.88023952,,,,,,,,,,,,,,11,golf,,,,,,791.2278,792.277,1,0,0.5148,,0,69,69,10,1,three_way_cognate,1,REAL,FALSA
,,,,,,,,,Malik,001,2024-06-30_07h27.03.834,empathy_intonation_perc,2024.1.4,Win32,59.88023952,,,,,,,,,,,,,,143,hurcos,,,,,,792.2777,793.3437,1,0,0.5289,,0,70,70,142,1,pseudoword,0,REAL,FALSA
,,,,,,,,,Malik,001,2024-06-30_07h27.03.834,empathy_intonation_perc,2024.1.4,Win32,59.88023952,,,,,,,,,,,,,,85,enorme,,,,,,793.3443,794.3761,0,1,0.4991,,0,71,71,84,1,non_cognate,1,REAL,FALSA
,,,,,,,,,Malik,001,2024-06-30_07h27.03.834,empathy_intonation_perc,2024.1.4,Win32,59.88023952,,,,,,,,,,,,,,106,diebro,,,,,,794.3764,796.3599,1,0,1.4633,,0,72,72,105,1,pseudoword,0,REAL,FALSA
,,,,,,,,,Malik,001,2024-06-30_07h27.03.834,empathy_intonation_perc,2024.1.4,Win32,59.88023952,,,,,,,,,,,,,,144,diroco,,,,,,796.3606,797.8089,0,1,0.9157,,0,73,73,143,1,pseudoword,0,REAL,FALSA
,,,,,,,,,Malik,001,2024-06-30_07h27.03.834,empathy_intonation_perc,2024.1.4,Win32,59.88023952,,,,,,,,,,,,,,73,llevar,,,,,,797.8094,799.0254,0,1,0.6773,,0,74,74,72,1,non_cognate,1,REAL,FALSA
,,,,,,,,,Malik,001,2024-06-30_07h27.03.834,empathy_intonation_perc,2024.1.4,Win32,59.88023952,,,,,,,,,,,,,,104,estulo,,,,,,799.0257,801.726,1,0,2.1783,,0,75,75,103,1,pseudoword,0,REAL,FALSA
,,,,,,,,,Malik,001,2024-06-30_07h27.03.834,empathy_intonation_perc,2024.1.4,Win32,59.88023952,,,,,,,,,,,,,,169,pitis,,,,,,801.7269,802.8759,1,0,0.6102,,0,76,76,168,1,pseudoword,0,REAL,FALSA
,,,,,,,,,Malik,001,2024-06-30_07h27.03.834,empathy_intonation_perc,2024.1.4,Win32,59.88023952,,,,,,,,,,,,,,63,hilo,,,,,,802.8767,803.9251,1,0,0.5126,,0,77,77,62,1,non_cognate,1,REAL,FALSA
,,,,,,,,,Malik,001,2024-06-30_07h27.03.834,empathy_intonation_perc,2024.1.4,Win32,59.88023952,,,,,,,,,,,,,,58,colcha,,,,,,803.9256,805.2754,0,1,0.8124,,0,78,78,57,1,non_cognate,1,REAL,FALSA
,,,,,,,,,Malik,001,2024-06-30_07h27.03.834,empathy_intonation_perc,2024.1.4,Win32,59.88023952,,,,,,,,,,,,,,67,llamar,,,,,,805.2762,806.4417,0,1,0.6326,,0,79,79,66,1,non_cognate,1,REAL,FALSA
,,,,,,,,,Malik,001,2024-06-30_07h27.03.834,empathy_intonation_perc,2024.1.4,Win32,59.88023952,,,,,,,,,,,,,,160,fomeó,,,,,,806.4423,812.4574,0,1,5.485,,0,80,80,159,1,pseudoword,0,REAL,FALSA
,,,,,,,,,Malik,001,2024-06-30_07h27.03.834,empathy_intonation_perc,2024.1.4,Win32,59.88023952,,,,,,,,,,,,,,81,sacar,,,,,,812.4681,814.2406,0,1,1.2525,,0,81,81,80,1,non_cognate,1,REAL,FALSA
,,,,,,,,,Malik,001,2024-06-30_07h27.03.834,empathy_intonation_perc,2024.1.4,Win32,59.88023952,,,,,,,,,,,,,,25,vigor,,,,,,814.2413,815.3247,1,0,0.551,,0,82,82,24,1,two_way_cognate,1,REAL,FALSA
,,,,,,,,,Malik,001,2024-06-30_07h27.03.834,empathy_intonation_perc,2024.1.4,Win32,59.88023952,,,,,,,,,,,,,,140,chorde,,,,,,815.3255,818.107,1,0,2.2475,,0,83,83,139,1,pseudoword,0,REAL,FALSA
,,,,,,,,,Malik,001,2024-06-30_07h27.03.834,empathy_intonation_perc,2024.1.4,Win32,59.88023952,,,,,,,,,,,,,,83,hálito,,,,,,818.1313,820.3402,0,1,1.6767,,0,84,84,82,1,non_cognate,1,REAL,FALSA
,,,,,,,,,Malik,001,2024-06-30_07h27.03.834,empathy_intonation_perc,2024.1.4,Win32,59.88023952,,,,,,,,,,,,,,114,dibrea,,,,,,820.3409,824.6228,0,1,3.7461,,0,85,85,113,1,pseudoword,0,REAL,FALSA
,,,,,,,,,Malik,001,2024-06-30_07h27.03.834,empathy_intonation_perc,2024.1.4,Win32,59.88023952,,,,,,,,,,,,,,149,emén,,,,,,824.6497,845.8865,0,1,20.7143,,0,86,86,148,1,pseudoword,0,REAL,FALSA
,,,,,,,,,Malik,001,2024-06-30_07h27.03.834,empathy_intonation_perc,2024.1.4,Win32,59.88023952,,,,,,,,,,,,,,190,asumie,,,,,,845.9123,847.2527,1,0,0.8105,,0,87,87,189,1,pseudoword,0,REAL,FALSA
,,,,,,,,,Malik,001,2024-06-30_07h27.03.834,empathy_intonation_perc,2024.1.4,Win32,59.88023952,,,,,,,,,,,,,,74,ala,,,,,,847.2531,848.7033,0,1,0.9205,,0,88,88,73,1,non_cognate,1,REAL,FALSA
,,,,,,,,,Malik,001,2024-06-30_07h27.03.834,empathy_intonation_perc,2024.1.4,Win32,59.88023952,,,,,,,,,,,,,,168,cobén,,,,,,848.7039,850.2696,1,0,1.028,,0,89,89,167,1,pseudoword,0,REAL,FALSA
,,,,,,,,,Malik,001,2024-06-30_07h27.03.834,empathy_intonation_perc,2024.1.4,Win32,59.88023952,,,,,,,,,,,,,,150,cricó,,,,,,850.2704,851.5028,1,0,0.7003,,0,90,90,149,1,pseudoword,0,REAL,FALSA
,,,,,,,,,Malik,001,2024-06-30_07h27.03.834,empathy_intonation_perc,2024.1.4,Win32,59.88023952,,,,,,,,,,,,,,13,plan,,,,,,851.5035,852.587,1,0,0.5572,,0,91,91,12,1,three_way_cognate,1,REAL,FALSA
,,,,,,,,,Malik,001,2024-06-30_07h27.03.834,empathy_intonation_perc,2024.1.4,Win32,59.88023952,,,,,,,,,,,,,,48,pelvis,,,,,,852.5881,853.6523,1,0,0.5309,,0,92,92,47,1,two_way_cognate,1,REAL,FALSA
,,,,,,,,,Malik,001,2024-06-30_07h27.03.834,empathy_intonation_perc,2024.1.4,Win32,59.88023952,,,,,,,,,,,,,,14,aura,,,,,,853.6529,854.685,1,0,0.5034,,0,93,93,13,1,three_way_cognate,1,REAL,FALSA
,,,,,,,,,Malik,001,2024-06-30_07h27.03.834,empathy_intonation_perc,2024.1.4,Win32,59.88023952,,,,,,,,,,,,,,55,maldad,,,,,,854.6854,855.935,0,1,0.7166,,0,94,94,54,1,non_cognate,1,REAL,FALSA
,,,,,,,,,Malik,001,2024-06-30_07h27.03.834,empathy_intonation_perc,2024.1.4,Win32,59.88023952,,,,,,,,,,,,,,9,portal,,,,,,855.9355,857.0019,1,0,0.5285,,0,95,95,8,1,three_way_cognate,1,REAL,FALSA
,,,,,,,,,Malik,001,2024-06-30_07h27.03.834,empathy_intonation_perc,2024.1.4,Win32,59.88023952,,,,,,,,,,,,,,184,huenos,,,,,,857.0027,858.2179,0,1,0.6804,,0,96,96,183,1,pseudoword,0,REAL,FALSA
,,,,,,,,,Malik,001,2024-06-30_07h27.03.834,empathy_intonation_perc,2024.1.4,Win32,59.88023952,,,,,,,,,,,,,,167,dobbo,,,,,,858.2182,861.2175,0,1,2.4602,,0,97,97,166,1,pseudoword,0,REAL,FALSA
,,,,,,,,,Malik,001,2024-06-30_07h27.03.834,empathy_intonation_perc,2024.1.4,Win32,59.88023952,,,,,,,,,,,,,,15,test,,,,,,861.2178,862.2672,1,0,0.5213,,0,98,98,14,1,three_way_cognate,1,REAL,FALSA
,,,,,,,,,Malik,001,2024-06-30_07h27.03.834,empathy_intonation_perc,2024.1.4,Win32,59.88023952,,,,,,,,,,,,,,189,medium,,,,,,862.2675,863.3175,1,0,0.5138,,0,99,99,188,1,pseudoword,0,REAL,FALSA
,,,,,,,,,Malik,001,2024-06-30_07h27.03.834,empathy_intonation_perc,2024.1.4,Win32,59.88023952,,,,,,,,,,,,,,126,tobre,,,,,,863.3179,864.5837,0,1,0.727,,0,100,100,125,1,pseudoword,0,REAL,FALSA
,,,,,,,,,Malik,001,2024-06-30_07h27.03.834,empathy_intonation_perc,2024.1.4,Win32,59.88023952,,,,,,,,,,,,,,186,rizate,,,,,,864.5843,865.7506,1,0,0.6283,,0,101,101,185,1,pseudoword,0,REAL,FALSA
,,,,,,,,,Malik,001,2024-06-30_07h27.03.834,empathy_intonation_perc,2024.1.4,Win32,59.88023952,,,,,,,,,,,,,,108,jauda,,,,,,865.7508,866.9002,0,1,0.6131,,0,102,102,107,1,pseudoword,0,REAL,FALSA
,,,,,,,,,Malik,001,2024-06-30_07h27.03.834,empathy_intonation_perc,2024.1.4,Win32,59.88023952,,,,,,,,,,,,,,156,ozoso,,,,,,866.9005,867.9006,0,1,0.4626,,0,103,103,155,1,pseudoword,0,REAL,FALSA
,,,,,,,,,Malik,001,2024-06-30_07h27.03.834,empathy_intonation_perc,2024.1.4,Win32,59.88023952,,,,,,,,,,,,,,45,total,,,,,,867.9011,869.0009,1,0,0.5656,,0,104,104,44,1,two_way_cognate,1,REAL,FALSA
,,,,,,,,,Malik,001,2024-06-30_07h27.03.834,empathy_intonation_perc,2024.1.4,Win32,59.88023952,,,,,,,,,,,,,,82,brillo,,,,,,869.0018,870.2832,0,1,0.7447,,0,105,105,81,1,non_cognate,1,REAL,FALSA
,,,,,,,,,Malik,001,2024-06-30_07h27.03.834,empathy_intonation_perc,2024.1.4,Win32,59.88023952,,,,,,,,,,,,,,65,guerra,,,,,,870.2837,871.4667,1,0,0.6465,,0,106,106,64,1,non_cognate,1,REAL,FALSA
,,,,,,,,,Malik,001,2024-06-30_07h27.03.834,empathy_intonation_perc,2024.1.4,Win32,59.88023952,,,,,,,,,,,,,,131,fuar,,,,,,871.4673,872.6663,0,1,0.6673,,0,107,107,130,1,pseudoword,0,REAL,FALSA
,,,,,,,,,Malik,001,2024-06-30_07h27.03.834,empathy_intonation_perc,2024.1.4,Win32,59.88023952,,,,,,,,,,,,,,134,molor,,,,,,872.6667,873.9999,0,1,0.7969,,0,108,108,133,1,pseudoword,0,REAL,FALSA
,,,,,,,,,Malik,001,2024-06-30_07h27.03.834,empathy_intonation_perc,2024.1.4,Win32,59.88023952,,,,,,,,,,,,,,146,gió,,,,,,874.0005,875.1162,0,1,0.5842,,0,109,109,145,1,pseudoword,0,REAL,FALSA
,,,,,,,,,Malik,001,2024-06-30_07h27.03.834,empathy_intonation_perc,2024.1.4,Win32,59.88023952,,,,,,,,,,,,,,42,rumor,,,,,,875.1168,876.1664,1,0,0.5118,,0,110,110,41,1,two_way_cognate,1,REAL,FALSA
,,,,,,,,,Malik,001,2024-06-30_07h27.03.834,empathy_intonation_perc,2024.1.4,Win32,59.88023952,,,,,,,,,,,,,,135,panté,,,,,,876.1672,877.5659,1,0,0.8643,,0,111,111,134,1,pseudoword,0,REAL,FALSA
,,,,,,,,,Malik,001,2024-06-30_07h27.03.834,empathy_intonation_perc,2024.1.4,Win32,59.88023952,,,,,,,,,,,,,,115,lidena,,,,,,877.5668,878.916,0,1,0.8109,,0,112,112,114,1,pseudoword,0,REAL,FALSA
,,,,,,,,,Malik,001,2024-06-30_07h27.03.834,empathy_intonation_perc,2024.1.4,Win32,59.88023952,,,,,,,,,,,,,,133,conso,,,,,,878.9167,880.3656,0,1,0.9121,,0,113,113,132,1,pseudoword,0,REAL,FALSA
,,,,,,,,,Malik,001,2024-06-30_07h27.03.834,empathy_intonation_perc,2024.1.4,Win32,59.88023952,,,,,,,,,,,,,,107,plago,,,,,,880.3667,882.0815,0,1,1.1849,,0,114,114,106,1,pseudoword,0,REAL,FALSA
,,,,,,,,,Malik,001,2024-06-30_07h27.03.834,empathy_intonation_perc,2024.1.4,Win32,59.88023952,,,,,,,,,,,,,,69,tiza,,,,,,882.0819,884.3986,0,1,1.7942,,0,115,115,68,1,non_cognate,1,REAL,FALSA
,,,,,,,,,Malik,001,2024-06-30_07h27.03.834,empathy_intonation_perc,2024.1.4,Win32,59.88023952,,,,,,,,,,,,,,3,disco,,,,,,884.3992,885.565,1,0,0.6345,,0,116,116,2,1,three_way_cognate,1,REAL,FALSA
,,,,,,,,,Malik,001,2024-06-30_07h27.03.834,empathy_intonation_perc,2024.1.4,Win32,59.88023952,,,,,,,,,,,,,,153,golla,,,,,,885.5659,886.6813,1,0,0.5869,,0,117,117,152,1,pseudoword,0,REAL,FALSA
,,,,,,,,,Malik,001,2024-06-30_07h27.03.834,empathy_intonation_perc,2024.1.4,Win32,59.88023952,,,,,,,,,,,,,,151,prías,,,,,,886.6818,887.898,0,1,0.6784,,0,118,118,150,1,pseudoword,0,REAL,FALSA
,,,,,,,,,Malik,001,2024-06-30_07h27.03.834,empathy_intonation_perc,2024.1.4,Win32,59.88023952,,,,,,,,,,,,,,38,halo,,,,,,887.8986,888.998,1,0,0.5672,,0,119,119,37,1,two_way_cognate,1,REAL,FALSA
,,,,,,,,,Malik,001,2024-06-30_07h27.03.834,empathy_intonation_perc,2024.1.4,Win32,59.88023952,,,,,,,,,,,,,,117,morrá,,,,,,888.9988,890.3148,1,0,0.7804,,0,120,120,116,1,pseudoword,0,REAL,FALSA
,,,,,,,,,Malik,001,2024-06-30_07h27.03.834,empathy_intonation_perc,2024.1.4,Win32,59.88023952,,,,,,,,,,,,,,39,casual,,,,,,890.3156,891.3308,1,0,0.4873,,0,121,121,38,1,two_way_cognate,1,REAL,FALSA
,,,,,,,,,Malik,001,2024-06-30_07h27.03.834,empathy_intonation_perc,2024.1.4,Win32,59.88023952,,,,,,,,,,,,,,185,aljizo,,,,,,891.3315,893.3641,0,1,1.4997,,0,122,122,184,1,pseudoword,0,REAL,FALSA
,,,,,,,,,Malik,001,2024-06-30_07h27.03.834,empathy_intonation_perc,2024.1.4,Win32,59.88023952,,,,,,,,,,,,,,75,patada,,,,,,893.3647,894.23,1,0,0.3341,,0,123,123,74,1,non_cognate,1,REAL,FALSA
,,,,,,,,,Malik,001,2024-06-30_07h27.03.834,empathy_intonation_perc,2024.1.4,Win32,59.88023952,,,,,,,,,,,,,,30,fiscal,,,,,,894.2305,895.363,1,0,0.5936,,0,124,124,29,1,two_way_cognate,1,REAL,FALSA
,,,,,,,,,Malik,001,2024-06-30_07h27.03.834,empathy_intonation_perc,2024.1.4,Win32,59.88023952,,,,,,,,,,,,,,165,chote,,,,,,895.3633,896.4963,1,0,0.6129,,0,125,125,164,1,pseudoword,0,REAL,FALSA
,,,,,,,,,Malik,001,2024-06-30_07h27.03.834,empathy_intonation_perc,2024.1.4,Win32,59.88023952,,,,,,,,,,,,,,159,trcia,,,,,,896.4966,897.8135,0,1,0.794,,0,126,126,158,1,pseudoword,0,REAL,FALSA
,,,,,,,,,Malik,001,2024-06-30_07h27.03.834,empathy_intonation_perc,2024.1.4,Win32,59.88023952,,,,,,,,,,,,,,164,tecia,,,,,,897.8143,899.63,1,0,1.2843,,0,127,127,163,1,pseudoword,0,REAL,FALSA
,,,,,,,,,Malik,001,2024-06-30_07h27.03.834,empathy_intonation_perc,2024.1.4,Win32,59.88023952,,,,,,,,,,,,,,34,actor,,,,,,899.6307,900.7295,1,0,0.5703,,0,128,128,33,1,two_way_cognate,1,REAL,FALSA
,,,,,,,,,Malik,001,2024-06-30_07h27.03.834,empathy_intonation_perc,2024.1.4,Win32,59.88023952,,,,,,,,,,,,,,163,olzan,,,,,,900.7302,902.2789,1,0,1.015,,0,129,129,162,1,pseudoword,0,REAL,FALSA
,,,,,,,,,Malik,001,2024-06-30_07h27.03.834,empathy_intonation_perc,2024.1.4,Win32,59.88023952,,,,,,,,,,,,,,111,monue,,,,,,902.2794,903.546,0,1,0.7288,,0,130,130,110,1,pseudoword,0,REAL,FALSA
,,,,,,,,,Malik,001,2024-06-30_07h27.03.834,empathy_intonation_perc,2024.1.4,Win32,59.88023952,,,,,,,,,,,,,,119,esís,,,,,,903.5465,904.6626,0,1,0.5786,,0,131,131,118,1,pseudoword,0,REAL,FALSA
,,,,,,,,,Malik,001,2024-06-30_07h27.03.834,empathy_intonation_perc,2024.1.4,Win32,59.88023952,,,,,,,,,,,,,,97,nocita,,,,,,904.6632,905.8624,0,1,0.6627,,0,132,132,96,1,pseudoword,0,REAL,FALSA
,,,,,,,,,Malik,001,2024-06-30_07h27.03.834,empathy_intonation_perc,2024.1.4,Win32,59.88023952,,,,,,,,,,,,,,44,editor,,,,,,905.8631,906.9954,1,0,0.5954,,0,133,133,43,1,two_way_cognate,1,REAL,FALSA
,,,,,,,,,Malik,001,2024-06-30_07h27.03.834,empathy_intonation_perc,2024.1.4,Win32,59.88023952,,,,,,,,,,,,,,12,dogma,,,,,,906.9962,923.3102,1,0,15.7821,,0,134,134,11,1,three_way_cognate,1,REAL,FALSA
,,,,,,,,,Malik,001,2024-06-30_07h27.03.834,empathy_intonation_perc,2024.1.4,Win32,59.88023952,,,,,,,,,,,,,,17,clan,,,,,,923.3353,924.5764,1,0,0.7169,,0,135,135,16,1,three_way_cognate,1,REAL,FALSA
,,,,,,,,,Malik,001,2024-06-30_07h27.03.834,empathy_intonation_perc,2024.1.4,Win32,59.88023952,,,,,,,,,,,,,,170,diabo,,,,,,924.577,926.1095,1,0,1.0015,,0,136,136,169,1,pseudoword,0,REAL,FALSA
,,,,,,,,,Malik,001,2024-06-30_07h27.03.834,empathy_intonation_perc,2024.1.4,Win32,59.88023952,,,,,,,,,,,,,,20,trauma,,,,,,926.1104,927.3926,1,0,0.744,,0,137,137,19,1,three_way_cognate,1,REAL,FALSA
,,,,,,,,,Malik,001,2024-06-30_07h27.03.834,empathy_intonation_perc,2024.1.4,Win32,59.88023952,,,,,,,,,,,,,,176,gripar,,,,,,927.3932,934.5088,1,0,6.5795,,0,138,138,175,1,pseudoword,0,REAL,FALSA
,,,,,,,,,Malik,001,2024-06-30_07h27.03.834,empathy_intonation_perc,2024.1.4,Win32,59.88023952,,,,,,,,,,,,,,46,mortal,,,,,,934.5322,935.5753,1,0,0.5089,,0,139,139,45,1,two_way_cognate,1,REAL,FALSA
,,,,,,,,,Malik,001,2024-06-30_07h27.03.834,empathy_intonation_perc,2024.1.4,Win32,59.88023952,,,,,,,,,,,,,,31,civil,,,,,,935.5763,936.541,1,0,0.4339,,0,140,140,30,1,two_way_cognate,1,REAL,FALSA
,,,,,,,,,Malik,001,2024-06-30_07h27.03.834,empathy_intonation_perc,2024.1.4,Win32,59.88023952,,,,,,,,,,,,,,5,extra,,,,,,936.5413,937.5577,1,0,0.4986,,0,141,141,4,1,three_way_cognate,1,REAL,FALSA
,,,,,,,,,Malik,001,2024-06-30_07h27.03.834,empathy_intonation_perc,2024.1.4,Win32,59.88023952,,,,,,,,,,,,,,129,vinzó,,,,,,937.558,954.5724,1,0,16.4775,,0,142,142,128,1,pseudoword,0,REAL,FALSA
,,,,,,,,,Malik,001,2024-06-30_07h27.03.834,empathy_intonation_perc,2024.1.4,Win32,59.88023952,,,,,,,,,,,,,,19,mafia,,,,,,954.5831,955.7388,1,0,0.6356,,0,143,143,18,1,three_way_cognate,1,REAL,FALSA
,,,,,,,,,Malik,001,2024-06-30_07h27.03.834,empathy_intonation_perc,2024.1.4,Win32,59.88023952,,,,,,,,,,,,,,152,prave,,,,,,955.7392,956.7717,1,0,0.4968,,0,144,144,151,1,pseudoword,0,REAL,FALSA
,,,,,,,,,Malik,001,2024-06-30_07h27.03.834,empathy_intonation_perc,2024.1.4,Win32,59.88023952,,,,,,,,,,,,,,61,aduana,,,,,,956.772,959.6885,1,0,2.3988,,0,145,145,60,1,non_cognate,1,REAL,FALSA
,,,,,,,,,Malik,001,2024-06-30_07h27.03.834,empathy_intonation_perc,2024.1.4,Win32,59.88023952,,,,,,,,,,,,,,36,viable,,,,,,959.6892,960.8719,1,0,0.6542,,0,146,146,35,1,two_way_cognate,1,REAL,FALSA
,,,,,,,,,Malik,001,2024-06-30_07h27.03.834,empathy_intonation_perc,2024.1.4,Win32,59.88023952,,,,,,,,,,,,,,120,mauja,,,,,,960.8727,962.9052,0,1,1.4997,,0,147,147,119,1,pseudoword,0,REAL,FALSA
,,,,,,,,,Malik,001,2024-06-30_07h27.03.834,empathy_intonation_perc,2024.1.4,Win32,59.88023952,,,,,,,,,,,,,,8,kilo,,,,,,962.9062,964.0375,1,0,0.5912,,0,148,148,7,1,three_way_cognate,1,REAL,FALSA
,,,,,,,,,Malik,001,2024-06-30_07h27.03.834,empathy_intonation_perc,2024.1.4,Win32,59.88023952,,,,,,,,,,,,,,181,gravés,,,,,,964.0378,965.3873,1,0,0.8153,,0,149,149,180,1,pseudoword,0,REAL,FALSA
,,,,,,,,,Malik,001,2024-06-30_07h27.03.834,empathy_intonation_perc,2024.1.4,Win32,59.88023952,,,,,,,,,,,,,,102,coyo,,,,,,965.3875,968.187,0,1,2.2653,,0,150,150,101,1,pseudoword,0,REAL,FALSA
,,,,,,,,,Malik,001,2024-06-30_07h27.03.834,empathy_intonation_perc,2024.1.4,Win32,59.88023952,,,,,,,,,,,,,,4,flora,,,,,,968.1874,969.371,1,0,0.6493,,0,151,151,3,1,three_way_cognate,1,REAL,FALSA
,,,,,,,,,Malik,001,2024-06-30_07h27.03.834,empathy_intonation_perc,2024.1.4,Win32,59.88023952,,,,,,,,,,,,,,28,ardor,,,,,,969.3717,970.7042,0,1,0.7963,,0,152,152,27,1,two_way_cognate,1,REAL,FALSA
,,,,,,,,,Malik,001,2024-06-30_07h27.03.834,empathy_intonation_perc,2024.1.4,Win32,59.88023952,,,,,,,,,,,,,,23,plural,,,,,,970.7049,971.7707,1,0,0.5324,,0,153,153,22,1,three_way_cognate,1,REAL,FALSA
,,,,,,,,,Malik,001,2024-06-30_07h27.03.834,empathy_intonation_perc,2024.1.4,Win32,59.88023952,,,,,,,,,,,,,,76,chocar,,,,,,971.7714,974.6535,0,1,2.3493,,0,154,154,75,1,non_cognate,1,REAL,FALSA
,,,,,,,,,Malik,001,2024-06-30_07h27.03.834,empathy_intonation_perc,2024.1.4,Win32,59.88023952,,,,,,,,,,,,,,26,enigma,,,,,,974.689,976.0697,1,0,0.8482,,0,155,155,25,1,two_way_cognate,1,REAL,FALSA
,,,,,,,,,Malik,001,2024-06-30_07h27.03.834,empathy_intonation_perc,2024.1.4,Win32,59.88023952,,,,,,,,,,,,,,177,entodo,,,,,,976.0703,979.8361,0,1,3.2331,,0,156,156,176,1,pseudoword,0,REAL,FALSA
,,,,,,,,,Malik,001,2024-06-30_07h27.03.834,empathy_intonation_perc,2024.1.4,Win32,59.88023952,,,,,,,,,,,,,,122,boñaz,,,,,,979.8599,981.0859,1,0,0.6934,,0,157,157,121,1,pseudoword,0,REAL,FALSA
,,,,,,,,,Malik,001,2024-06-30_07h27.03.834,empathy_intonation_perc,2024.1.4,Win32,59.88023952,,,,,,,,,,,,,,100,épinas,,,,,,981.0866,982.1528,1,0,0.536,,0,158,158,99,1,pseudoword,0,REAL,FALSA
,,,,,,,,,Malik,001,2024-06-30_07h27.03.834,empathy_intonation_perc,2024.1.4,Win32,59.88023952,,,,,,,,,,,,,,110,densó,,,,,,982.1536,983.2517,1,0,0.5683,,0,159,159,109,1,pseudoword,0,REAL,FALSA
,,,,,,,,,Malik,001,2024-06-30_07h27.03.834,empathy_intonation_perc,2024.1.4,Win32,59.88023952,,,,,,,,,,,,,,22,mango,,,,,,983.252,984.3687,1,0,0.5851,,0,160,160,21,1,three_way_cognate,1,REAL,FALSA
,,,,,,,,,Malik,001,2024-06-30_07h27.03.834,empathy_intonation_perc,2024.1.4,Win32,59.88023952,,,,,,,,,,,,,,174,pabea,,,,,,984.3693,985.6688,0,1,0.7713,,0,161,161,173,1,pseudoword,0,REAL,FALSA
,,,,,,,,,Malik,001,2024-06-30_07h27.03.834,empathy_intonation_perc,2024.1.4,Win32,59.88023952,,,,,,,,,,,,,,138,tator,,,,,,985.6695,986.9185,0,1,0.7183,,0,162,162,137,1,pseudoword,0,REAL,FALSA
,,,,,,,,,Malik,001,2024-06-30_07h27.03.834,empathy_intonation_perc,2024.1.4,Win32,59.88023952,,,,,,,,,,,,,,180,pupica,,,,,,986.9192,988.585,1,0,1.1316,,0,163,163,179,1,pseudoword,0,REAL,FALSA
,,,,,,,,,Malik,001,2024-06-30_07h27.03.834,empathy_intonation_perc,2024.1.4,Win32,59.88023952,,,,,,,,,,,,,,175,tradía,,,,,,988.5858,994.3675,1,0,5.2507,,0,164,164,174,1,pseudoword,0,REAL,FALSA
,,,,,,,,,Malik,001,2024-06-30_07h27.03.834,empathy_intonation_perc,2024.1.4,Win32,59.88023952,,,,,,,,,,,,,,105,leniz,,,,,,994.3955,997.2834,1,0,2.364,,0,165,165,104,1,pseudoword,0,REAL,FALSA
,,,,,,,,,Malik,001,2024-06-30_07h27.03.834,empathy_intonation_perc,2024.1.4,Win32,59.88023952,,,,,,,,,,,,,,99,bugor,,,,,,997.2928,998.617,0,1,0.7967,,0,166,166,98,1,pseudoword,0,REAL,FALSA
,,,,,,,,,Malik,001,2024-06-30_07h27.03.834,empathy_intonation_perc,2024.1.4,Win32,59.88023952,,,,,,,,,,,,,,162,cengo,,,,,,998.6178,1001.5827,1,0,2.4356,,0,167,167,161,1,pseudoword,0,REAL,FALSA
,,,,,,,,,Malik,001,2024-06-30_07h27.03.834,empathy_intonation_perc,2024.1.4,Win32,59.88023952,,,,,,,,,,,,,,92,flecha,,,,,,1001.5946,1003.4829,1,0,1.3654,,0,168,168,91,1,non_cognate,1,REAL,FALSA
,,,,,,,,,Malik,001,2024-06-30_07h27.03.834,empathy_intonation_perc,2024.1.4,Win32,59.88023952,,,,,,,,,,,,,,2,tumor,,,,,,1003.4835,1004.8489,1,0,0.8265,,0,169,169,1,1,three_way_cognate,1,REAL,FALSA
,,,,,,,,,Malik,001,2024-06-30_07h27.03.834,empathy_intonation_perc,2024.1.4,Win32,59.88023952,,,,,,,,,,,,,,154,harvé,,,,,,1004.8491,1007.6326,1,0,2.2524,,0,170,170,153,1,pseudoword,0,REAL,FALSA
,,,,,,,,,Malik,001,2024-06-30_07h27.03.834,empathy_intonation_perc,2024.1.4,Win32,59.88023952,,,,,,,,,,,,,,6,horror,,,,,,1007.6335,1008.8991,1,0,0.7358,,0,171,171,5,1,three_way_cognate,1,REAL,FALSA
,,,,,,,,,Malik,001,2024-06-30_07h27.03.834,empathy_intonation_perc,2024.1.4,Win32,59.88023952,,,,,,,,,,,,,,173,mibro,,,,,,1008.8998,1010.9652,0,1,1.5283,,0,172,172,172,1,pseudoword,0,REAL,FALSA
,,,,,,,,,Malik,001,2024-06-30_07h27.03.834,empathy_intonation_perc,2024.1.4,Win32,59.88023952,,,,,,,,,,,,,,62,pegar,,,,,,1010.9659,1015.4314,1,0,3.9329,,0,173,173,61,1,non_cognate,1,REAL,FALSA
,,,,,,,,,Malik,001,2024-06-30_07h27.03.834,empathy_intonation_perc,2024.1.4,Win32,59.88023952,,,,,,,,,,,,,,89,muñeca,,,,,,1015.4529,1017.3639,0,1,1.3791,,0,174,174,88,1,non_cognate,1,REAL,FALSA
,,,,,,,,,Malik,001,2024-06-30_07h27.03.834,empathy_intonation_perc,2024.1.4,Win32,59.88023952,,,,,,,,,,,,,,90,venado,,,,,,1017.3642,1018.698,1,0,0.8026,,0,175,175,89,1,non_cognate,1,REAL,FALSA
,,,,,,,,,Malik,001,2024-06-30_07h27.03.834,empathy_intonation_perc,2024.1.4,Win32,59.88023952,,,,,,,,,,,,,,112,samón,,,,,,1018.6987,1020.1811,1,0,0.9444,,0,176,176,111,1,pseudoword,0,REAL,FALSA
,,,,,,,,,Malik,001,2024-06-30_07h27.03.834,empathy_intonation_perc,2024.1.4,Win32,59.88023952,,,,,,,,,,,,,,57,regalo,,,,,,1020.1821,1021.58,1,0,0.8614,,0,177,177,56,1,non_cognate,1,REAL,FALSA
,,,,,,,,,Malik,001,2024-06-30_07h27.03.834,empathy_intonation_perc,2024.1.4,Win32,59.88023952,,,,,,,,,,,,,,94,forro,,,,,,1021.5803,1023.8129,0,1,1.701,,0,178,178,93,1,non_cognate,1,REAL,FALSA
,,,,,,,,,Malik,001,2024-06-30_07h27.03.834,empathy_intonation_perc,2024.1.4,Win32,59.88023952,,,,,,,,,,,,,,56,pico,,,,,,1023.8134,1025.3967,1,0,1.053,,0,179,179,55,1,non_cognate,1,REAL,FALSA
,,,,,,,,,Malik,001,2024-06-30_07h27.03.834,empathy_intonation_perc,2024.1.4,Win32,59.88023952,,,,,,,,,,,,,,128,pelí,,,,,,1025.3973,1026.6302,0,1,0.6967,,0,180,180,127,1,pseudoword,0,REAL,FALSA
,,,,,,,,,Malik,001,2024-06-30_07h27.03.834,empathy_intonation_perc,2024.1.4,Win32,59.88023952,,,,,,,,,,,,,,88,percha,,,,,,1026.6309,1027.9132,1,0,0.7485,,0,181,181,87,1,non_cognate,1,REAL,FALSA
,,,,,,,,,Malik,001,2024-06-30_07h27.03.834,empathy_intonation_perc,2024.1.4,Win32,59.88023952,,,,,,,,,,,,,,47,color,,,,,,1027.9139,1029.063,1,0,0.618,,0,182,182,46,1,two_way_cognate,1,REAL,FALSA
,,,,,,,,,Malik,001,2024-06-30_07h27.03.834,empathy_intonation_perc,2024.1.4,Win32,59.88023952,,,,,,,,,,,,,,77,suave,,,,,,1029.0641,1030.3457,1,0,0.7431,,0,183,183,76,1,non_cognate,1,REAL,FALSA
,,,,,,,,,Malik,001,2024-06-30_07h27.03.834,empathy_intonation_perc,2024.1.4,Win32,59.88023952,,,,,,,,,,,,,,84,aviso,,,,,,1030.3462,1031.9127,1,0,1.0352,,0,184,184,83,1,non_cognate,1,REAL,FALSA
,,,,,,,,,Malik,001,2024-06-30_07h27.03.834,empathy_intonation_perc,2024.1.4,Win32,59.88023952,,,,,,,,,,,,,,10,drama,,,,,,1031.9135,1033.095,1,0,0.6466,,0,185,185,9,1,three_way_cognate,1,REAL,FALSA
,,,,,,,,,Malik,001,2024-06-30_07h27.03.834,empathy_intonation_perc,2024.1.4,Win32,59.88023952,,,,,,,,,,,,,,147,alla,,,,,,1033.0953,1039.145,0,1,5.5321,,0,186,186,146,1,pseudoword,0,REAL,FALSA
,,,,,,,,,Malik,001,2024-06-30_07h27.03.834,empathy_intonation_perc,2024.1.4,Win32,59.88023952,,,,,,,,,,,,,,121,barbs,,,,,,1039.1695,1040.9107,1,0,1.2107,,0,187,187,120,1,pseudoword,0,REAL,FALSA
,,,,,,,,,Malik,001,2024-06-30_07h27.03.834,empathy_intonation_perc,2024.1.4,Win32,59.88023952,,,,,,,,,,,,,,191,frasis,,,,,,1040.911,1043.7778,1,0,2.3462,,0,188,188,190,1,pseudoword,0,REAL,FALSA
,,,,,,,,,Malik,001,2024-06-30_07h27.03.834,empathy_intonation_perc,2024.1.4,Win32,59.88023952,,,,,,,,,,,,,,172,dogue,,,,,,1043.7786,1045.5606,1,0,1.2447,,0,189,189,171,1,pseudoword,0,REAL,FALSA
,,,,,,,,,Malik,001,2024-06-30_07h27.03.834,empathy_intonation_perc,2024.1.4,Win32,59.88023952,,,,,,,,,,,,,,43,honor,,,,,,1045.5609,1047.2599,1,0,1.1683,,0,190,190,42,1,two_way_cognate,1,REAL,FALSA
,,,,,,,,,Malik,001,2024-06-30_07h27.03.834,empathy_intonation_perc,2024.1.4,Win32,59.88023952,,,,,,,,,,,,,,109,laras,,,,,,1047.2601,1049.5768,0,1,1.7824,,0,191,191,108,1,pseudoword,0,REAL,FALSA
