lextale_instructions.started,lextale_instructions.stopped,lextale_instructions_loop.thisRepN,lextale_instructions_loop.thisTrialN,lextale_instructions_loop.thisN,lextale_instructions_loop.thisIndex,lextale_instructions_loop.ran,instructions_text,continue_text,participant,session,date,expName,psychopyVersion,OS,frameRate,lextale_practice.started,lextale_practice.stopped,key_resp_lextale_practice.keys,key_resp_lextale_practice.corr,key_resp_lextale_practice.rt,key_resp_lextale_practice.duration,lextale_practice_feedback.started,lextale_practice_feedback.stopped,lextale_practice_trials.thisRepN,lextale_practice_trials.thisTrialN,lextale_practice_trials.thisN,lextale_practice_trials.thisIndex,lextale_practice_trials.ran,stim,word,correct_response,prac_button_real,prac_button_false,lextale_check.started,lextale_check.stopped,lextale_trial.started,lextale_trial.stopped,key_resp_lextale_trial.keys,key_resp_lextale_trial.corr,key_resp_lextale_trial.rt,key_resp_lextale_trial.duration,lextail_trials.thisRepN,lextail_trials.thisTrialN,lextail_trials.thisN,lextail_trials.thisIndex,lextail_trials.ran,type,correct_reponse,button_real,button_false
0.006,59.46,0,0,0,0,1,"Este es un test de vocabulario en español. 
  
  A continuación vas a ver 90 secuencias de letras que parecen 'españolas'.
  
  Solo algunas de ellas son palabras de verdad.",(presiona la barra espaciadora para continuar),WS.10,001,2025-01-22_12h51.48.637,empathy_intonation_perc,2024.1.4,MacIntel,58.82352941,,,,,,,,,,,,,,,,,,,,,,,,,,,,,,,,,,,
59.461,65.578,0,1,1,1,1,"Por favor, señala las palabras que tú conoces (aquellas que estás convencido que son palabras españolas, incluso aunque no seas capaz de dar el significado preciso).",(presiona la barra espaciadora para continuar),WS.10,001,2025-01-22_12h51.48.637,empathy_intonation_perc,2024.1.4,MacIntel,58.82352941,,,,,,,,,,,,,,,,,,,,,,,,,,,,,,,,,,,
65.579,72.247,0,2,2,2,1,Pero cuidado: los errores se penalizan. Por eso no tiene sentido tratar de incrementar tu puntuación marcando como reales palabras que nunca has visto.,(presiona la barra espaciadora para continuar),WS.10,001,2025-01-22_12h51.48.637,empathy_intonation_perc,2024.1.4,MacIntel,58.82352941,,,,,,,,,,,,,,,,,,,,,,,,,,,,,,,,,,,
72.247,75.946,0,3,3,3,1,"Presiona la tecla 1 si piensas que es una palabra real y la tecla 
  0 si piensas que es una palabra falsa. 
  
  Vamos a practicar un poco...",(presiona la barra espaciadora para continuar),WS.10,001,2025-01-22_12h51.48.637,empathy_intonation_perc,2024.1.4,MacIntel,58.82352941,,,,,,,,,,,,,,,,,,,,,,,,,,,,,,,,,,,
,,,,,,,,,WS.10,001,2025-01-22_12h51.48.637,empathy_intonation_perc,2024.1.4,MacIntel,58.82352941,75.952,78.51,1,0,2.032,,78.51,79.511,0,0,0,0,1,0,depiste,0,REAL,FALSA,,,,,,,,,,,,,,,,,
,,,,,,,,,WS.10,001,2025-01-22_12h51.48.637,empathy_intonation_perc,2024.1.4,MacIntel,58.82352941,79.511,82.276,1,1,2.229,,82.276,83.28,0,1,1,1,1,0,sí,1,REAL,FALSA,,,,,,,,,,,,,,,,,
,,,,,,,,,WS.10,001,2025-01-22_12h51.48.637,empathy_intonation_perc,2024.1.4,MacIntel,58.82352941,83.28,85.11,0,1,1.29,,85.111,86.11,0,2,2,2,1,0,coné,0,REAL,FALSA,,,,,,,,,,,,,,,,,
,,,,,,,,,WS.10,001,2025-01-22_12h51.48.637,empathy_intonation_perc,2024.1.4,MacIntel,58.82352941,86.11,88.18,1,0,1.535,,88.18,89.179,0,3,3,3,1,0,calpar,0,REAL,FALSA,,,,,,,,,,,,,,,,,
,,,,,,,,,WS.10,001,2025-01-22_12h51.48.637,empathy_intonation_perc,2024.1.4,MacIntel,58.82352941,89.179,90.86,0,1,1.162,,90.86,91.859,0,4,4,4,1,0,joten,0,REAL,FALSA,,,,,,,,,,,,,,,,,
,,,,,,,,,WS.10,001,2025-01-22_12h51.48.637,empathy_intonation_perc,2024.1.4,MacIntel,58.82352941,91.859,93.613,1,1,1.227,,93.613,94.612,0,5,5,5,1,0,sacapuntas,1,REAL,FALSA,,,,,,,,,,,,,,,,,
,,,,,,,,,WS.10,001,2025-01-22_12h51.48.637,empathy_intonation_perc,2024.1.4,MacIntel,58.82352941,94.613,96.009,0,1,0.88,,96.009,97.01,0,6,6,6,1,0,priba,0,REAL,FALSA,,,,,,,,,,,,,,,,,
,,,,,,,,,WS.10,001,2025-01-22_12h51.48.637,empathy_intonation_perc,2024.1.4,MacIntel,58.82352941,97.01,98.96,0,1,1.421,,98.96,99.959,0,7,7,7,1,0,pelasula,0,REAL,FALSA,,,,,,,,,,,,,,,,,
,,,,,,,,,WS.10,001,2025-01-22_12h51.48.637,empathy_intonation_perc,2024.1.4,MacIntel,58.82352941,99.96,101.261,1,1,0.779,,101.261,102.261,0,8,8,8,1,0,bien,1,REAL,FALSA,,,,,,,,,,,,,,,,,
,,,,,,,,,WS.10,001,2025-01-22_12h51.48.637,empathy_intonation_perc,2024.1.4,MacIntel,58.82352941,102.261,103.309,1,1,0.533,,103.309,104.309,0,9,9,9,1,0,casa,1,REAL,FALSA,,,,,,,,,,,,,,,,,
,,,,,,,,,WS.10,001,2025-01-22_12h51.48.637,empathy_intonation_perc,2024.1.4,MacIntel,58.82352941,104.309,105.426,1,0,0.589,,105.426,106.426,0,10,10,10,1,0,lejo,0,REAL,FALSA,,,,,,,,,,,,,,,,,
,,,,,,,,,WS.10,001,2025-01-22_12h51.48.637,empathy_intonation_perc,2024.1.4,MacIntel,58.82352941,106.426,109.729,0,1,2.778,,109.73,110.726,0,11,11,11,1,0,pretantas,0,REAL,FALSA,,,,,,,,,,,,,,,,,
,,,,,,,,,WS.10,001,2025-01-22_12h51.48.637,empathy_intonation_perc,2024.1.4,MacIntel,58.82352941,,,,,,,,,,,,,,,,,,,110.727,112.461,,,,,,,,,,,,,,,
,,,,,,,,,WS.10,001,2025-01-22_12h51.48.637,empathy_intonation_perc,2024.1.4,MacIntel,58.82352941,,,,,,,,,,,,,,112,samón,,,,,,112.471,114.396,0,1,1.398,,0,0,0,111,1,pseudoword,0,REAL,FALSA
,,,,,,,,,WS.10,001,2025-01-22_12h51.48.637,empathy_intonation_perc,2024.1.4,MacIntel,58.82352941,,,,,,,,,,,,,,12,dogma,,,,,,114.397,116.176,0,1,1.239,,0,1,1,11,1,three_way_cognate,1,REAL,FALSA
,,,,,,,,,WS.10,001,2025-01-22_12h51.48.637,empathy_intonation_perc,2024.1.4,MacIntel,58.82352941,,,,,,,,,,,,,,50,sierra,,,,,,116.176,117.327,1,0,0.628,,0,2,2,49,1,non_cognate,1,REAL,FALSA
,,,,,,,,,WS.10,001,2025-01-22_12h51.48.637,empathy_intonation_perc,2024.1.4,MacIntel,58.82352941,,,,,,,,,,,,,,47,color,,,,,,117.328,118.376,1,0,0.53,,0,3,3,46,1,two_way_cognate,1,REAL,FALSA
,,,,,,,,,WS.10,001,2025-01-22_12h51.48.637,empathy_intonation_perc,2024.1.4,MacIntel,58.82352941,,,,,,,,,,,,,,40,pelvis,,,,,,118.376,119.593,1,0,0.691,,0,4,4,39,1,two_way_cognate,1,REAL,FALSA
,,,,,,,,,WS.10,001,2025-01-22_12h51.48.637,empathy_intonation_perc,2024.1.4,MacIntel,58.82352941,,,,,,,,,,,,,,135,panté,,,,,,119.593,121.279,0,1,1.153,,0,5,5,134,1,pseudoword,0,REAL,FALSA
,,,,,,,,,WS.10,001,2025-01-22_12h51.48.637,empathy_intonation_perc,2024.1.4,MacIntel,58.82352941,,,,,,,,,,,,,,156,ozoso,,,,,,121.279,122.742,0,1,0.946,,0,6,6,155,1,pseudoword,0,REAL,FALSA
,,,,,,,,,WS.10,001,2025-01-22_12h51.48.637,empathy_intonation_perc,2024.1.4,MacIntel,58.82352941,,,,,,,,,,,,,,35,aurora,,,,,,122.743,123.927,1,0,0.652,,0,7,7,34,1,two_way_cognate,1,REAL,FALSA
,,,,,,,,,WS.10,001,2025-01-22_12h51.48.637,empathy_intonation_perc,2024.1.4,MacIntel,58.82352941,,,,,,,,,,,,,,127,vien,,,,,,123.928,125.276,0,1,0.828,,0,8,8,126,1,pseudoword,0,REAL,FALSA
,,,,,,,,,WS.10,001,2025-01-22_12h51.48.637,empathy_intonation_perc,2024.1.4,MacIntel,58.82352941,,,,,,,,,,,,,,136,hueas,,,,,,125.276,126.896,0,1,1.097,,0,9,9,135,1,pseudoword,0,REAL,FALSA
,,,,,,,,,WS.10,001,2025-01-22_12h51.48.637,empathy_intonation_perc,2024.1.4,MacIntel,58.82352941,,,,,,,,,,,,,,17,clan,,,,,,126.896,128.963,0,1,1.556,,0,10,10,16,1,three_way_cognate,1,REAL,FALSA
,,,,,,,,,WS.10,001,2025-01-22_12h51.48.637,empathy_intonation_perc,2024.1.4,MacIntel,58.82352941,,,,,,,,,,,,,,62,pegar,,,,,,128.963,130.143,1,0,0.637,,0,11,11,61,1,non_cognate,1,REAL,FALSA
,,,,,,,,,WS.10,001,2025-01-22_12h51.48.637,empathy_intonation_perc,2024.1.4,MacIntel,58.82352941,,,,,,,,,,,,,,57,regalo,,,,,,130.143,131.359,1,0,0.681,,0,12,12,56,1,non_cognate,1,REAL,FALSA
,,,,,,,,,WS.10,001,2025-01-22_12h51.48.637,empathy_intonation_perc,2024.1.4,MacIntel,58.82352941,,,,,,,,,,,,,,5,extra,,,,,,131.359,132.726,1,0,0.84,,0,13,13,4,1,three_way_cognate,1,REAL,FALSA
,,,,,,,,,WS.10,001,2025-01-22_12h51.48.637,empathy_intonation_perc,2024.1.4,MacIntel,58.82352941,,,,,,,,,,,,,,31,civil,,,,,,132.727,133.896,1,0,0.638,,0,14,14,30,1,two_way_cognate,1,REAL,FALSA
,,,,,,,,,WS.10,001,2025-01-22_12h51.48.637,empathy_intonation_perc,2024.1.4,MacIntel,58.82352941,,,,,,,,,,,,,,168,cobén,,,,,,133.896,135.429,0,1,1.021,,0,15,15,167,1,pseudoword,0,REAL,FALSA
,,,,,,,,,WS.10,001,2025-01-22_12h51.48.637,empathy_intonation_perc,2024.1.4,MacIntel,58.82352941,,,,,,,,,,,,,,119,esís,,,,,,135.429,136.776,0,1,0.83,,0,16,16,118,1,pseudoword,0,REAL,FALSA
,,,,,,,,,WS.10,001,2025-01-22_12h51.48.637,empathy_intonation_perc,2024.1.4,MacIntel,58.82352941,,,,,,,,,,,,,,192,próces,,,,,,136.776,138.727,1,0,1.428,,0,17,17,191,1,pseudoword,0,REAL,FALSA
,,,,,,,,,WS.10,001,2025-01-22_12h51.48.637,empathy_intonation_perc,2024.1.4,MacIntel,58.82352941,,,,,,,,,,,,,,32,animal,,,,,,138.727,139.842,1,0,0.597,,0,18,18,31,1,two_way_cognate,1,REAL,FALSA
,,,,,,,,,WS.10,001,2025-01-22_12h51.48.637,empathy_intonation_perc,2024.1.4,MacIntel,58.82352941,,,,,,,,,,,,,,180,pupica,,,,,,139.842,142.062,0,1,1.696,,0,19,19,179,1,pseudoword,0,REAL,FALSA
,,,,,,,,,WS.10,001,2025-01-22_12h51.48.637,empathy_intonation_perc,2024.1.4,MacIntel,58.82352941,,,,,,,,,,,,,,15,test,,,,,,142.062,143.193,1,0,0.613,,0,20,20,14,1,three_way_cognate,1,REAL,FALSA
,,,,,,,,,WS.10,001,2025-01-22_12h51.48.637,empathy_intonation_perc,2024.1.4,MacIntel,58.82352941,,,,,,,,,,,,,,45,total,,,,,,143.193,144.243,1,0,0.529,,0,21,21,44,1,two_way_cognate,1,REAL,FALSA
,,,,,,,,,WS.10,001,2025-01-22_12h51.48.637,empathy_intonation_perc,2024.1.4,MacIntel,58.82352941,,,,,,,,,,,,,,164,tecia,,,,,,144.244,145.492,0,1,0.708,,0,22,22,163,1,pseudoword,0,REAL,FALSA
,,,,,,,,,WS.10,001,2025-01-22_12h51.48.637,empathy_intonation_perc,2024.1.4,MacIntel,58.82352941,,,,,,,,,,,,,,52,blando,,,,,,145.492,149.242,1,0,3.226,,0,23,23,51,1,non_cognate,1,REAL,FALSA
,,,,,,,,,WS.10,001,2025-01-22_12h51.48.637,empathy_intonation_perc,2024.1.4,MacIntel,58.82352941,,,,,,,,,,,,,,158,babrá,,,,,,149.243,150.862,0,1,1.087,,0,24,24,157,1,pseudoword,0,REAL,FALSA
,,,,,,,,,WS.10,001,2025-01-22_12h51.48.637,empathy_intonation_perc,2024.1.4,MacIntel,58.82352941,,,,,,,,,,,,,,150,cricó,,,,,,150.862,152.329,0,1,0.93,,0,25,25,149,1,pseudoword,0,REAL,FALSA
,,,,,,,,,WS.10,001,2025-01-22_12h51.48.637,empathy_intonation_perc,2024.1.4,MacIntel,58.82352941,,,,,,,,,,,,,,68,puñal,,,,,,152.329,153.742,1,0,0.896,,0,26,26,67,1,non_cognate,1,REAL,FALSA
,,,,,,,,,WS.10,001,2025-01-22_12h51.48.637,empathy_intonation_perc,2024.1.4,MacIntel,58.82352941,,,,,,,,,,,,,,184,huenos,,,,,,153.742,155.176,0,1,0.908,,0,27,27,183,1,pseudoword,0,REAL,FALSA
,,,,,,,,,WS.10,001,2025-01-22_12h51.48.637,empathy_intonation_perc,2024.1.4,MacIntel,58.82352941,,,,,,,,,,,,,,185,aljizo,,,,,,155.176,156.564,0,1,0.856,,0,28,28,184,1,pseudoword,0,REAL,FALSA
,,,,,,,,,WS.10,001,2025-01-22_12h51.48.637,empathy_intonation_perc,2024.1.4,MacIntel,58.82352941,,,,,,,,,,,,,,133,conso,,,,,,156.564,157.825,0,1,0.731,,0,29,29,132,1,pseudoword,0,REAL,FALSA
,,,,,,,,,WS.10,001,2025-01-22_12h51.48.637,empathy_intonation_perc,2024.1.4,MacIntel,58.82352941,,,,,,,,,,,,,,39,casual,,,,,,157.825,158.959,1,0,0.61,,0,30,30,38,1,two_way_cognate,1,REAL,FALSA
,,,,,,,,,WS.10,001,2025-01-22_12h51.48.637,empathy_intonation_perc,2024.1.4,MacIntel,58.82352941,,,,,,,,,,,,,,36,viable,,,,,,158.959,160.461,1,0,0.979,,0,31,31,35,1,two_way_cognate,1,REAL,FALSA
,,,,,,,,,WS.10,001,2025-01-22_12h51.48.637,empathy_intonation_perc,2024.1.4,MacIntel,58.82352941,,,,,,,,,,,,,,181,gravés,,,,,,160.462,162.262,1,0,1.288,,0,32,32,180,1,pseudoword,0,REAL,FALSA
,,,,,,,,,WS.10,001,2025-01-22_12h51.48.637,empathy_intonation_perc,2024.1.4,MacIntel,58.82352941,,,,,,,,,,,,,,28,ardor,,,,,,162.262,163.528,0,1,0.754,,0,33,33,27,1,two_way_cognate,1,REAL,FALSA
,,,,,,,,,WS.10,001,2025-01-22_12h51.48.637,empathy_intonation_perc,2024.1.4,MacIntel,58.82352941,,,,,,,,,,,,,,70,ánimo,,,,,,163.529,164.695,1,0,0.631,,0,34,34,69,1,non_cognate,1,REAL,FALSA
,,,,,,,,,WS.10,001,2025-01-22_12h51.48.637,empathy_intonation_perc,2024.1.4,MacIntel,58.82352941,,,,,,,,,,,,,,42,rumor,,,,,,164.696,165.896,1,0,0.665,,0,35,35,41,1,two_way_cognate,1,REAL,FALSA
,,,,,,,,,WS.10,001,2025-01-22_12h51.48.637,empathy_intonation_perc,2024.1.4,MacIntel,58.82352941,,,,,,,,,,,,,,121,barbs,,,,,,165.896,167.242,0,1,0.808,,0,36,36,120,1,pseudoword,0,REAL,FALSA
,,,,,,,,,WS.10,001,2025-01-22_12h51.48.637,empathy_intonation_perc,2024.1.4,MacIntel,58.82352941,,,,,,,,,,,,,,159,trcia,,,,,,167.242,168.343,0,1,0.577,,0,37,37,158,1,pseudoword,0,REAL,FALSA
,,,,,,,,,WS.10,001,2025-01-22_12h51.48.637,empathy_intonation_perc,2024.1.4,MacIntel,58.82352941,,,,,,,,,,,,,,64,rizado,,,,,,168.343,169.708,1,0,0.828,,0,38,38,63,1,non_cognate,1,REAL,FALSA
,,,,,,,,,WS.10,001,2025-01-22_12h51.48.637,empathy_intonation_perc,2024.1.4,MacIntel,58.82352941,,,,,,,,,,,,,,16,chat,,,,,,169.709,171.542,1,0,1.304,,0,39,39,15,1,three_way_cognate,1,REAL,FALSA
,,,,,,,,,WS.10,001,2025-01-22_12h51.48.637,empathy_intonation_perc,2024.1.4,MacIntel,58.82352941,,,,,,,,,,,,,,91,equipo,,,,,,171.543,172.696,1,0,0.622,,0,40,40,90,1,non_cognate,1,REAL,FALSA
,,,,,,,,,WS.10,001,2025-01-22_12h51.48.637,empathy_intonation_perc,2024.1.4,MacIntel,58.82352941,,,,,,,,,,,,,,29,clamor,,,,,,172.696,176.093,0,1,2.86,,0,41,41,28,1,two_way_cognate,1,REAL,FALSA
,,,,,,,,,WS.10,001,2025-01-22_12h51.48.637,empathy_intonation_perc,2024.1.4,MacIntel,58.82352941,,,,,,,,,,,,,,81,sacar,,,,,,176.094,177.476,1,0,0.863,,0,42,42,80,1,non_cognate,1,REAL,FALSA
,,,,,,,,,WS.10,001,2025-01-22_12h51.48.637,empathy_intonation_perc,2024.1.4,MacIntel,58.82352941,,,,,,,,,,,,,,123,arane,,,,,,177.476,178.708,1,0,0.695,,0,43,43,122,1,pseudoword,0,REAL,FALSA
,,,,,,,,,WS.10,001,2025-01-22_12h51.48.637,empathy_intonation_perc,2024.1.4,MacIntel,58.82352941,,,,,,,,,,,,,,105,peniz,,,,,,178.708,185.23,0,1,5.997,,0,44,44,104,1,pseudoword,0,REAL,FALSA
,,,,,,,,,WS.10,001,2025-01-22_12h51.48.637,empathy_intonation_perc,2024.1.4,MacIntel,58.82352941,,,,,,,,,,,,,,148,gino,,,,,,185.23,186.475,0,1,0.704,,0,45,45,147,1,pseudoword,0,REAL,FALSA
,,,,,,,,,WS.10,001,2025-01-22_12h51.48.637,empathy_intonation_perc,2024.1.4,MacIntel,58.82352941,,,,,,,,,,,,,,8,kilo,,,,,,186.475,188.025,1,0,1.022,,0,46,46,7,1,three_way_cognate,1,REAL,FALSA
,,,,,,,,,WS.10,001,2025-01-22_12h51.48.637,empathy_intonation_perc,2024.1.4,MacIntel,58.82352941,,,,,,,,,,,,,,41,pasta,,,,,,188.025,189.445,1,0,0.896,,0,47,47,40,1,two_way_cognate,1,REAL,FALSA
,,,,,,,,,WS.10,001,2025-01-22_12h51.48.637,empathy_intonation_perc,2024.1.4,MacIntel,58.82352941,,,,,,,,,,,,,,155,kugis,,,,,,189.445,190.645,0,1,0.689,,0,48,48,154,1,pseudoword,0,REAL,FALSA
,,,,,,,,,WS.10,001,2025-01-22_12h51.48.637,empathy_intonation_perc,2024.1.4,MacIntel,58.82352941,,,,,,,,,,,,,,85,enorme,,,,,,190.646,192.326,1,0,1.144,,0,49,49,84,1,non_cognate,1,REAL,FALSA
,,,,,,,,,WS.10,001,2025-01-22_12h51.48.637,empathy_intonation_perc,2024.1.4,MacIntel,58.82352941,,,,,,,,,,,,,,114,dibrea,,,,,,192.326,193.861,0,1,1.021,,0,50,50,113,1,pseudoword,0,REAL,FALSA
,,,,,,,,,WS.10,001,2025-01-22_12h51.48.637,empathy_intonation_perc,2024.1.4,MacIntel,58.82352941,,,,,,,,,,,,,,106,diebro,,,,,,193.861,195.061,0,1,0.689,,0,51,51,105,1,pseudoword,0,REAL,FALSA
,,,,,,,,,WS.10,001,2025-01-22_12h51.48.637,empathy_intonation_perc,2024.1.4,MacIntel,58.82352941,,,,,,,,,,,,,,72,rostro,,,,,,195.062,196.542,1,0,0.944,,0,52,52,71,1,non_cognate,1,REAL,FALSA
,,,,,,,,,WS.10,001,2025-01-22_12h51.48.637,empathy_intonation_perc,2024.1.4,MacIntel,58.82352941,,,,,,,,,,,,,,30,fiscal,,,,,,196.542,197.762,1,0,0.697,,0,53,53,29,1,two_way_cognate,1,REAL,FALSA
,,,,,,,,,WS.10,001,2025-01-22_12h51.48.637,empathy_intonation_perc,2024.1.4,MacIntel,58.82352941,,,,,,,,,,,,,,183,edioso,,,,,,197.762,199.028,0,1,0.73,,0,54,54,182,1,pseudoword,0,REAL,FALSA
,,,,,,,,,WS.10,001,2025-01-22_12h51.48.637,empathy_intonation_perc,2024.1.4,MacIntel,58.82352941,,,,,,,,,,,,,,169,pitis,,,,,,199.028,200.294,0,1,0.73,,0,55,55,168,1,pseudoword,0,REAL,FALSA
,,,,,,,,,WS.10,001,2025-01-22_12h51.48.637,empathy_intonation_perc,2024.1.4,MacIntel,58.82352941,,,,,,,,,,,,,,126,tobre,,,,,,200.295,201.574,0,1,0.739,,0,56,56,125,1,pseudoword,0,REAL,FALSA
,,,,,,,,,WS.10,001,2025-01-22_12h51.48.637,empathy_intonation_perc,2024.1.4,MacIntel,58.82352941,,,,,,,,,,,,,,79,suelo,,,,,,201.575,202.844,1,0,0.746,,0,57,57,78,1,non_cognate,1,REAL,FALSA
,,,,,,,,,WS.10,001,2025-01-22_12h51.48.637,empathy_intonation_perc,2024.1.4,MacIntel,58.82352941,,,,,,,,,,,,,,2,tumor,,,,,,202.844,204.244,1,0,0.863,,0,58,58,1,1,three_way_cognate,1,REAL,FALSA
,,,,,,,,,WS.10,001,2025-01-22_12h51.48.637,empathy_intonation_perc,2024.1.4,MacIntel,58.82352941,,,,,,,,,,,,,,116,grigir,,,,,,204.244,205.558,0,1,0.797,,0,59,59,115,1,pseudoword,0,REAL,FALSA
,,,,,,,,,WS.10,001,2025-01-22_12h51.48.637,empathy_intonation_perc,2024.1.4,MacIntel,58.82352941,,,,,,,,,,,,,,9,portal,,,,,,205.558,206.894,1,0,0.812,,0,60,60,8,1,three_way_cognate,1,REAL,FALSA
,,,,,,,,,WS.10,001,2025-01-22_12h51.48.637,empathy_intonation_perc,2024.1.4,MacIntel,58.82352941,,,,,,,,,,,,,,109,laras,,,,,,206.894,208.891,1,0,1.482,,0,61,61,108,1,pseudoword,0,REAL,FALSA
,,,,,,,,,WS.10,001,2025-01-22_12h51.48.637,empathy_intonation_perc,2024.1.4,MacIntel,58.82352941,,,,,,,,,,,,,,60,siglo,,,,,,208.892,209.958,1,0,0.547,,0,62,62,59,1,non_cognate,1,REAL,FALSA
,,,,,,,,,WS.10,001,2025-01-22_12h51.48.637,empathy_intonation_perc,2024.1.4,MacIntel,58.82352941,,,,,,,,,,,,,,162,cengo,,,,,,209.959,211.241,0,1,0.746,,0,63,63,161,1,pseudoword,0,REAL,FALSA
,,,,,,,,,WS.10,001,2025-01-22_12h51.48.637,empathy_intonation_perc,2024.1.4,MacIntel,58.82352941,,,,,,,,,,,,,,65,guerra,,,,,,211.241,212.641,1,0,0.871,,0,64,64,64,1,non_cognate,1,REAL,FALSA
,,,,,,,,,WS.10,001,2025-01-22_12h51.48.637,empathy_intonation_perc,2024.1.4,MacIntel,58.82352941,,,,,,,,,,,,,,113,nasce,,,,,,212.641,214.261,0,1,1.098,,0,65,65,112,1,pseudoword,0,REAL,FALSA
,,,,,,,,,WS.10,001,2025-01-22_12h51.48.637,empathy_intonation_perc,2024.1.4,MacIntel,58.82352941,,,,,,,,,,,,,,103,vueras,,,,,,214.261,215.694,0,1,0.897,,0,66,66,102,1,pseudoword,0,REAL,FALSA
,,,,,,,,,WS.10,001,2025-01-22_12h51.48.637,empathy_intonation_perc,2024.1.4,MacIntel,58.82352941,,,,,,,,,,,,,,132,nocó,,,,,,215.694,217.208,0,1,0.997,,0,67,67,131,1,pseudoword,0,REAL,FALSA
,,,,,,,,,WS.10,001,2025-01-22_12h51.48.637,empathy_intonation_perc,2024.1.4,MacIntel,58.82352941,,,,,,,,,,,,,,142,parre,,,,,,217.209,218.374,0,1,0.63,,0,68,68,141,1,pseudoword,0,REAL,FALSA
,,,,,,,,,WS.10,001,2025-01-22_12h51.48.637,empathy_intonation_perc,2024.1.4,MacIntel,58.82352941,,,,,,,,,,,,,,189,medium,,,,,,218.375,220.794,0,1,1.886,,0,69,69,188,1,pseudoword,0,REAL,FALSA
,,,,,,,,,WS.10,001,2025-01-22_12h51.48.637,empathy_intonation_perc,2024.1.4,MacIntel,58.82352941,,,,,,,,,,,,,,118,bará,,,,,,220.794,221.974,0,1,0.642,,0,70,70,117,1,pseudoword,0,REAL,FALSA
,,,,,,,,,WS.10,001,2025-01-22_12h51.48.637,empathy_intonation_perc,2024.1.4,MacIntel,58.82352941,,,,,,,,,,,,,,25,vigor,,,,,,221.974,223.461,0,1,0.964,,0,71,71,24,1,two_way_cognate,1,REAL,FALSA
,,,,,,,,,WS.10,001,2025-01-22_12h51.48.637,empathy_intonation_perc,2024.1.4,MacIntel,58.82352941,,,,,,,,,,,,,,122,boñaz,,,,,,223.461,224.561,0,1,0.588,,0,72,72,121,1,pseudoword,0,REAL,FALSA
,,,,,,,,,WS.10,001,2025-01-22_12h51.48.637,empathy_intonation_perc,2024.1.4,MacIntel,58.82352941,,,,,,,,,,,,,,33,collar,,,,,,224.561,225.808,1,0,0.73,,0,73,73,32,1,two_way_cognate,1,REAL,FALSA
,,,,,,,,,WS.10,001,2025-01-22_12h51.48.637,empathy_intonation_perc,2024.1.4,MacIntel,58.82352941,,,,,,,,,,,,,,21,hotel,,,,,,225.808,226.841,1,0,0.508,,0,74,74,20,1,three_way_cognate,1,REAL,FALSA
,,,,,,,,,WS.10,001,2025-01-22_12h51.48.637,empathy_intonation_perc,2024.1.4,MacIntel,58.82352941,,,,,,,,,,,,,,26,enigma,,,,,,226.841,232.443,1,0,5.078,,0,75,75,25,1,two_way_cognate,1,REAL,FALSA
,,,,,,,,,WS.10,001,2025-01-22_12h51.48.637,empathy_intonation_perc,2024.1.4,MacIntel,58.82352941,,,,,,,,,,,,,,37,torso,,,,,,232.443,233.92,1,0,0.944,,0,76,76,36,1,two_way_cognate,1,REAL,FALSA
,,,,,,,,,WS.10,001,2025-01-22_12h51.48.637,empathy_intonation_perc,2024.1.4,MacIntel,58.82352941,,,,,,,,,,,,,,97,nocita,,,,,,233.92,235.491,0,1,1.038,,0,77,77,96,1,pseudoword,0,REAL,FALSA
,,,,,,,,,WS.10,001,2025-01-22_12h51.48.637,empathy_intonation_perc,2024.1.4,MacIntel,58.82352941,,,,,,,,,,,,,,49,teñir,,,,,,235.491,236.811,1,0,0.799,,0,78,78,48,1,non_cognate,1,REAL,FALSA
,,,,,,,,,WS.10,001,2025-01-22_12h51.48.637,empathy_intonation_perc,2024.1.4,MacIntel,58.82352941,,,,,,,,,,,,,,55,maldad,,,,,,236.811,238.142,1,0,0.795,,0,79,79,54,1,non_cognate,1,REAL,FALSA
,,,,,,,,,WS.10,001,2025-01-22_12h51.48.637,empathy_intonation_perc,2024.1.4,MacIntel,58.82352941,,,,,,,,,,,,,,157,seled,,,,,,238.142,239.709,0,1,1.054,,0,80,80,156,1,pseudoword,0,REAL,FALSA
,,,,,,,,,WS.10,001,2025-01-22_12h51.48.637,empathy_intonation_perc,2024.1.4,MacIntel,58.82352941,,,,,,,,,,,,,,141,virios,,,,,,239.709,240.991,0,1,0.766,,0,81,81,140,1,pseudoword,0,REAL,FALSA
,,,,,,,,,WS.10,001,2025-01-22_12h51.48.637,empathy_intonation_perc,2024.1.4,MacIntel,58.82352941,,,,,,,,,,,,,,161,civas,,,,,,240.991,242.057,0,1,0.541,,0,82,82,160,1,pseudoword,0,REAL,FALSA
,,,,,,,,,WS.10,001,2025-01-22_12h51.48.637,empathy_intonation_perc,2024.1.4,MacIntel,58.82352941,,,,,,,,,,,,,,24,retina,,,,,,242.057,243.257,0,1,0.672,,0,83,83,23,1,three_way_cognate,1,REAL,FALSA
,,,,,,,,,WS.10,001,2025-01-22_12h51.48.637,empathy_intonation_perc,2024.1.4,MacIntel,58.82352941,,,,,,,,,,,,,,98,martir,,,,,,243.257,244.577,0,1,0.798,,0,84,84,97,1,pseudoword,0,REAL,FALSA
,,,,,,,,,WS.10,001,2025-01-22_12h51.48.637,empathy_intonation_perc,2024.1.4,MacIntel,58.82352941,,,,,,,,,,,,,,88,percha,,,,,,244.578,245.977,1,0,0.864,,0,85,85,87,1,non_cognate,1,REAL,FALSA
,,,,,,,,,WS.10,001,2025-01-22_12h51.48.637,empathy_intonation_perc,2024.1.4,MacIntel,58.82352941,,,,,,,,,,,,,,128,pelí,,,,,,245.977,247.377,1,0,0.889,,0,86,86,127,1,pseudoword,0,REAL,FALSA
,,,,,,,,,WS.10,001,2025-01-22_12h51.48.637,empathy_intonation_perc,2024.1.4,MacIntel,58.82352941,,,,,,,,,,,,,,154,harvé,,,,,,247.377,248.657,0,1,0.765,,0,87,87,153,1,pseudoword,0,REAL,FALSA
,,,,,,,,,WS.10,001,2025-01-22_12h51.48.637,empathy_intonation_perc,2024.1.4,MacIntel,58.82352941,,,,,,,,,,,,,,172,dogue,,,,,,248.658,249.81,0,1,0.622,,0,88,88,171,1,pseudoword,0,REAL,FALSA
,,,,,,,,,WS.10,001,2025-01-22_12h51.48.637,empathy_intonation_perc,2024.1.4,MacIntel,58.82352941,,,,,,,,,,,,,,59,feo,,,,,,249.81,251.01,1,0,0.688,,0,89,89,58,1,non_cognate,1,REAL,FALSA
,,,,,,,,,WS.10,001,2025-01-22_12h51.48.637,empathy_intonation_perc,2024.1.4,MacIntel,58.82352941,,,,,,,,,,,,,,137,trugo,,,,,,251.01,254.276,0,1,2.755,,0,90,90,136,1,pseudoword,0,REAL,FALSA
,,,,,,,,,WS.10,001,2025-01-22_12h51.48.637,empathy_intonation_perc,2024.1.4,MacIntel,58.82352941,,,,,,,,,,,,,,20,trauma,,,,,,254.276,256.308,1,0,1.511,,0,91,91,19,1,three_way_cognate,1,REAL,FALSA
,,,,,,,,,WS.10,001,2025-01-22_12h51.48.637,empathy_intonation_perc,2024.1.4,MacIntel,58.82352941,,,,,,,,,,,,,,111,monue,,,,,,256.308,257.541,0,1,0.699,,0,92,92,110,1,pseudoword,0,REAL,FALSA
,,,,,,,,,WS.10,001,2025-01-22_12h51.48.637,empathy_intonation_perc,2024.1.4,MacIntel,58.82352941,,,,,,,,,,,,,,95,listo,,,,,,257.541,258.743,1,0,0.678,,0,93,93,94,1,non_cognate,1,REAL,FALSA
,,,,,,,,,WS.10,001,2025-01-22_12h51.48.637,empathy_intonation_perc,2024.1.4,MacIntel,58.82352941,,,,,,,,,,,,,,130,dubo,,,,,,258.744,259.944,0,1,0.664,,0,94,94,129,1,pseudoword,0,REAL,FALSA
,,,,,,,,,WS.10,001,2025-01-22_12h51.48.637,empathy_intonation_perc,2024.1.4,MacIntel,58.82352941,,,,,,,,,,,,,,100,épinas,,,,,,259.944,261.557,0,1,1.072,,0,95,95,99,1,pseudoword,0,REAL,FALSA
,,,,,,,,,WS.10,001,2025-01-22_12h51.48.637,empathy_intonation_perc,2024.1.4,MacIntel,58.82352941,,,,,,,,,,,,,,56,pico,,,,,,261.557,263.51,1,0,1.43,,0,96,96,55,1,non_cognate,1,REAL,FALSA
,,,,,,,,,WS.10,001,2025-01-22_12h51.48.637,empathy_intonation_perc,2024.1.4,MacIntel,58.82352941,,,,,,,,,,,,,,125,ceme,,,,,,263.51,264.711,0,1,0.69,,0,97,97,124,1,pseudoword,0,REAL,FALSA
,,,,,,,,,WS.10,001,2025-01-22_12h51.48.637,empathy_intonation_perc,2024.1.4,MacIntel,58.82352941,,,,,,,,,,,,,,134,molor,,,,,,264.711,266.057,0,1,0.806,,0,98,98,133,1,pseudoword,0,REAL,FALSA
,,,,,,,,,WS.10,001,2025-01-22_12h51.48.637,empathy_intonation_perc,2024.1.4,MacIntel,58.82352941,,,,,,,,,,,,,,10,drama,,,,,,266.057,267.308,1,0,0.73,,0,99,99,9,1,three_way_cognate,1,REAL,FALSA
,,,,,,,,,WS.10,001,2025-01-22_12h51.48.637,empathy_intonation_perc,2024.1.4,MacIntel,58.82352941,,,,,,,,,,,,,,107,plago,,,,,,267.309,268.543,0,1,0.722,,0,100,100,106,1,pseudoword,0,REAL,FALSA
,,,,,,,,,WS.10,001,2025-01-22_12h51.48.637,empathy_intonation_perc,2024.1.4,MacIntel,58.82352941,,,,,,,,,,,,,,101,losco,,,,,,268.544,269.811,0,1,0.731,,0,101,101,100,1,pseudoword,0,REAL,FALSA
,,,,,,,,,WS.10,001,2025-01-22_12h51.48.637,empathy_intonation_perc,2024.1.4,MacIntel,58.82352941,,,,,,,,,,,,,,58,colcha,,,,,,269.811,270.944,0,1,0.599,,0,102,102,57,1,non_cognate,1,REAL,FALSA
,,,,,,,,,WS.10,001,2025-01-22_12h51.48.637,empathy_intonation_perc,2024.1.4,MacIntel,58.82352941,,,,,,,,,,,,,,187,nomata,,,,,,270.944,272.508,0,1,1.047,,0,103,103,186,1,pseudoword,0,REAL,FALSA
,,,,,,,,,WS.10,001,2025-01-22_12h51.48.637,empathy_intonation_perc,2024.1.4,MacIntel,58.82352941,,,,,,,,,,,,,,108,jauda,,,,,,272.508,273.857,0,1,0.814,,0,104,104,107,1,pseudoword,0,REAL,FALSA
,,,,,,,,,WS.10,001,2025-01-22_12h51.48.637,empathy_intonation_perc,2024.1.4,MacIntel,58.82352941,,,,,,,,,,,,,,73,llevar,,,,,,273.857,276.175,1,0,1.795,,0,105,105,72,1,non_cognate,1,REAL,FALSA
,,,,,,,,,WS.10,001,2025-01-22_12h51.48.637,empathy_intonation_perc,2024.1.4,MacIntel,58.82352941,,,,,,,,,,,,,,182,desaro,,,,,,276.175,277.824,0,1,1.131,,0,106,106,181,1,pseudoword,0,REAL,FALSA
,,,,,,,,,WS.10,001,2025-01-22_12h51.48.637,empathy_intonation_perc,2024.1.4,MacIntel,58.82352941,,,,,,,,,,,,,,186,rizate,,,,,,277.824,278.89,0,1,0.548,,0,107,107,185,1,pseudoword,0,REAL,FALSA
,,,,,,,,,WS.10,001,2025-01-22_12h51.48.637,empathy_intonation_perc,2024.1.4,MacIntel,58.82352941,,,,,,,,,,,,,,38,halo,,,,,,278.89,280.01,0,1,0.603,,0,108,108,37,1,two_way_cognate,1,REAL,FALSA
,,,,,,,,,WS.10,001,2025-01-22_12h51.48.637,empathy_intonation_perc,2024.1.4,MacIntel,58.82352941,,,,,,,,,,,,,,6,horror,,,,,,280.01,281.124,1,0,0.598,,0,109,109,5,1,three_way_cognate,1,REAL,FALSA
,,,,,,,,,WS.10,001,2025-01-22_12h51.48.637,empathy_intonation_perc,2024.1.4,MacIntel,58.82352941,,,,,,,,,,,,,,145,rúo,,,,,,281.124,282.357,0,1,0.697,,0,110,110,144,1,pseudoword,0,REAL,FALSA
,,,,,,,,,WS.10,001,2025-01-22_12h51.48.637,empathy_intonation_perc,2024.1.4,MacIntel,58.82352941,,,,,,,,,,,,,,3,disco,,,,,,282.357,284.124,1,0,1.238,,0,111,111,2,1,three_way_cognate,1,REAL,FALSA
,,,,,,,,,WS.10,001,2025-01-22_12h51.48.637,empathy_intonation_perc,2024.1.4,MacIntel,58.82352941,,,,,,,,,,,,,,152,prave,,,,,,284.124,285.41,0,1,0.755,,0,112,112,151,1,pseudoword,0,REAL,FALSA
,,,,,,,,,WS.10,001,2025-01-22_12h51.48.637,empathy_intonation_perc,2024.1.4,MacIntel,58.82352941,,,,,,,,,,,,,,117,morrá,,,,,,285.41,286.623,0,1,0.7,,0,113,113,116,1,pseudoword,0,REAL,FALSA
,,,,,,,,,WS.10,001,2025-01-22_12h51.48.637,empathy_intonation_perc,2024.1.4,MacIntel,58.82352941,,,,,,,,,,,,,,177,entodo,,,,,,286.623,288.174,0,1,1.024,,0,114,114,176,1,pseudoword,0,REAL,FALSA
,,,,,,,,,WS.10,001,2025-01-22_12h51.48.637,empathy_intonation_perc,2024.1.4,MacIntel,58.82352941,,,,,,,,,,,,,,188,amplir,,,,,,288.174,290.34,1,0,1.633,,0,115,115,187,1,pseudoword,0,REAL,FALSA
,,,,,,,,,WS.10,001,2025-01-22_12h51.48.637,empathy_intonation_perc,2024.1.4,MacIntel,58.82352941,,,,,,,,,,,,,,110,densó,,,,,,290.34,291.677,0,1,0.813,,0,116,116,109,1,pseudoword,0,REAL,FALSA
,,,,,,,,,WS.10,001,2025-01-22_12h51.48.637,empathy_intonation_perc,2024.1.4,MacIntel,58.82352941,,,,,,,,,,,,,,1,moral,,,,,,291.677,293.69,0,1,1.5,,0,117,117,0,1,three_way_cognate,1,REAL,FALSA
,,,,,,,,,WS.10,001,2025-01-22_12h51.48.637,empathy_intonation_perc,2024.1.4,MacIntel,58.82352941,,,,,,,,,,,,,,54,tapón,,,,,,293.69,295.123,0,1,0.906,,0,118,118,53,1,non_cognate,1,REAL,FALSA
,,,,,,,,,WS.10,001,2025-01-22_12h51.48.637,empathy_intonation_perc,2024.1.4,MacIntel,58.82352941,,,,,,,,,,,,,,191,frasis,,,,,,295.124,297.01,0,1,1.355,,0,119,119,190,1,pseudoword,0,REAL,FALSA
,,,,,,,,,WS.10,001,2025-01-22_12h51.48.637,empathy_intonation_perc,2024.1.4,MacIntel,58.82352941,,,,,,,,,,,,,,11,golf,,,,,,297.01,298.41,1,0,0.888,,0,120,120,10,1,three_way_cognate,1,REAL,FALSA
,,,,,,,,,WS.10,001,2025-01-22_12h51.48.637,empathy_intonation_perc,2024.1.4,MacIntel,58.82352941,,,,,,,,,,,,,,7,albino,,,,,,298.41,299.61,1,0,0.688,,0,121,121,6,1,three_way_cognate,1,REAL,FALSA
,,,,,,,,,WS.10,001,2025-01-22_12h51.48.637,empathy_intonation_perc,2024.1.4,MacIntel,58.82352941,,,,,,,,,,,,,,48,pelvis,,,,,,299.61,300.841,1,0,0.72,,0,122,122,47,1,two_way_cognate,1,REAL,FALSA
,,,,,,,,,WS.10,001,2025-01-22_12h51.48.637,empathy_intonation_perc,2024.1.4,MacIntel,58.82352941,,,,,,,,,,,,,,163,llzan,,,,,,300.842,302.044,0,1,0.689,,0,123,123,162,1,pseudoword,0,REAL,FALSA
,,,,,,,,,WS.10,001,2025-01-22_12h51.48.637,empathy_intonation_perc,2024.1.4,MacIntel,58.82352941,,,,,,,,,,,,,,22,mango,,,,,,302.044,303.574,1,0,0.989,,0,124,124,21,1,three_way_cognate,1,REAL,FALSA
,,,,,,,,,WS.10,001,2025-01-22_12h51.48.637,empathy_intonation_perc,2024.1.4,MacIntel,58.82352941,,,,,,,,,,,,,,44,editor,,,,,,303.574,304.774,1,0,0.664,,0,125,125,43,1,two_way_cognate,1,REAL,FALSA
,,,,,,,,,WS.10,001,2025-01-22_12h51.48.637,empathy_intonation_perc,2024.1.4,MacIntel,58.82352941,,,,,,,,,,,,,,53,punta,,,,,,304.774,305.859,1,0,0.555,,0,126,126,52,1,non_cognate,1,REAL,FALSA
,,,,,,,,,WS.10,001,2025-01-22_12h51.48.637,empathy_intonation_perc,2024.1.4,MacIntel,58.82352941,,,,,,,,,,,,,,19,mafia,,,,,,305.859,306.993,1,0,0.622,,0,127,127,18,1,three_way_cognate,1,REAL,FALSA
,,,,,,,,,WS.10,001,2025-01-22_12h51.48.637,empathy_intonation_perc,2024.1.4,MacIntel,58.82352941,,,,,,,,,,,,,,77,suave,,,,,,306.993,308.273,1,0,0.764,,0,128,128,76,1,non_cognate,1,REAL,FALSA
,,,,,,,,,WS.10,001,2025-01-22_12h51.48.637,empathy_intonation_perc,2024.1.4,MacIntel,58.82352941,,,,,,,,,,,,,,18,altar,,,,,,308.273,309.327,1,0,0.531,,0,129,129,17,1,three_way_cognate,1,REAL,FALSA
,,,,,,,,,WS.10,001,2025-01-22_12h51.48.637,empathy_intonation_perc,2024.1.4,MacIntel,58.82352941,,,,,,,,,,,,,,67,llamar,,,,,,309.327,310.443,1,0,0.58,,0,130,130,66,1,non_cognate,1,REAL,FALSA
,,,,,,,,,WS.10,001,2025-01-22_12h51.48.637,empathy_intonation_perc,2024.1.4,MacIntel,58.82352941,,,,,,,,,,,,,,89,muñeca,,,,,,310.443,311.573,1,0,0.613,,0,131,131,88,1,non_cognate,1,REAL,FALSA
,,,,,,,,,WS.10,001,2025-01-22_12h51.48.637,empathy_intonation_perc,2024.1.4,MacIntel,58.82352941,,,,,,,,,,,,,,92,flecha,,,,,,311.573,313.393,1,0,1.297,,0,132,132,91,1,non_cognate,1,REAL,FALSA
,,,,,,,,,WS.10,001,2025-01-22_12h51.48.637,empathy_intonation_perc,2024.1.4,MacIntel,58.82352941,,,,,,,,,,,,,,138,tator,,,,,,313.393,316.173,0,1,2.265,,0,133,133,137,1,pseudoword,0,REAL,FALSA
,,,,,,,,,WS.10,001,2025-01-22_12h51.48.637,empathy_intonation_perc,2024.1.4,MacIntel,58.82352941,,,,,,,,,,,,,,63,hilo,,,,,,316.173,318.159,1,0,1.463,,0,134,134,62,1,non_cognate,1,REAL,FALSA
,,,,,,,,,WS.10,001,2025-01-22_12h51.48.637,empathy_intonation_perc,2024.1.4,MacIntel,58.82352941,,,,,,,,,,,,,,160,fomeó,,,,,,318.159,319.64,0,1,0.942,,0,135,135,159,1,pseudoword,0,REAL,FALSA
,,,,,,,,,WS.10,001,2025-01-22_12h51.48.637,empathy_intonation_perc,2024.1.4,MacIntel,58.82352941,,,,,,,,,,,,,,124,lobe,,,,,,319.64,320.76,0,1,0.597,,0,136,136,123,1,pseudoword,0,REAL,FALSA
,,,,,,,,,WS.10,001,2025-01-22_12h51.48.637,empathy_intonation_perc,2024.1.4,MacIntel,58.82352941,,,,,,,,,,,,,,78,rendir,,,,,,320.76,322.206,1,0,0.935,,0,137,137,77,1,non_cognate,1,REAL,FALSA
,,,,,,,,,WS.10,001,2025-01-22_12h51.48.637,empathy_intonation_perc,2024.1.4,MacIntel,58.82352941,,,,,,,,,,,,,,175,tradía,,,,,,322.207,324.807,0,1,2.069,,0,138,138,174,1,pseudoword,0,REAL,FALSA
,,,,,,,,,WS.10,001,2025-01-22_12h51.48.637,empathy_intonation_perc,2024.1.4,MacIntel,58.82352941,,,,,,,,,,,,,,140,chorde,,,,,,324.807,326.01,0,1,0.688,,0,139,139,139,1,pseudoword,0,REAL,FALSA
,,,,,,,,,WS.10,001,2025-01-22_12h51.48.637,empathy_intonation_perc,2024.1.4,MacIntel,58.82352941,,,,,,,,,,,,,,146,gió,,,,,,326.01,327.94,1,0,1.414,,0,140,140,145,1,pseudoword,0,REAL,FALSA
,,,,,,,,,WS.10,001,2025-01-22_12h51.48.637,empathy_intonation_perc,2024.1.4,MacIntel,58.82352941,,,,,,,,,,,,,,174,pabea,,,,,,327.94,329.373,0,1,0.895,,0,141,141,173,1,pseudoword,0,REAL,FALSA
,,,,,,,,,WS.10,001,2025-01-22_12h51.48.637,empathy_intonation_perc,2024.1.4,MacIntel,58.82352941,,,,,,,,,,,,,,129,vinzó,,,,,,329.373,330.44,0,1,0.538,,0,142,142,128,1,pseudoword,0,REAL,FALSA
,,,,,,,,,WS.10,001,2025-01-22_12h51.48.637,empathy_intonation_perc,2024.1.4,MacIntel,58.82352941,,,,,,,,,,,,,,144,diroco,,,,,,330.44,331.54,0,1,0.577,,0,143,143,143,1,pseudoword,0,REAL,FALSA
,,,,,,,,,WS.10,001,2025-01-22_12h51.48.637,empathy_intonation_perc,2024.1.4,MacIntel,58.82352941,,,,,,,,,,,,,,153,golla,,,,,,331.54,332.693,0,1,0.625,,0,144,144,152,1,pseudoword,0,REAL,FALSA
,,,,,,,,,WS.10,001,2025-01-22_12h51.48.637,empathy_intonation_perc,2024.1.4,MacIntel,58.82352941,,,,,,,,,,,,,,43,honor,,,,,,332.693,334.006,1,0,0.796,,0,145,145,42,1,two_way_cognate,1,REAL,FALSA
,,,,,,,,,WS.10,001,2025-01-22_12h51.48.637,empathy_intonation_perc,2024.1.4,MacIntel,58.82352941,,,,,,,,,,,,,,102,coyo,,,,,,334.007,335.773,0,1,1.231,,0,146,146,101,1,pseudoword,0,REAL,FALSA
,,,,,,,,,WS.10,001,2025-01-22_12h51.48.637,empathy_intonation_perc,2024.1.4,MacIntel,58.82352941,,,,,,,,,,,,,,176,gripar,,,,,,335.773,337.14,0,1,0.838,,0,147,147,175,1,pseudoword,0,REAL,FALSA
,,,,,,,,,WS.10,001,2025-01-22_12h51.48.637,empathy_intonation_perc,2024.1.4,MacIntel,58.82352941,,,,,,,,,,,,,,27,piano,,,,,,337.14,338.326,1,0,0.663,,0,148,148,26,1,two_way_cognate,1,REAL,FALSA
,,,,,,,,,WS.10,001,2025-01-22_12h51.48.637,empathy_intonation_perc,2024.1.4,MacIntel,58.82352941,,,,,,,,,,,,,,171,gotro,,,,,,338.326,340.673,0,1,1.831,,0,149,149,170,1,pseudoword,0,REAL,FALSA
,,,,,,,,,WS.10,001,2025-01-22_12h51.48.637,empathy_intonation_perc,2024.1.4,MacIntel,58.82352941,,,,,,,,,,,,,,179,suelet,,,,,,340.673,343.326,0,1,2.131,,0,150,150,178,1,pseudoword,0,REAL,FALSA
,,,,,,,,,WS.10,001,2025-01-22_12h51.48.637,empathy_intonation_perc,2024.1.4,MacIntel,58.82352941,,,,,,,,,,,,,,86,cuenco,,,,,,343.327,344.706,0,1,0.84,,0,151,151,85,1,non_cognate,1,REAL,FALSA
,,,,,,,,,WS.10,001,2025-01-22_12h51.48.637,empathy_intonation_perc,2024.1.4,MacIntel,58.82352941,,,,,,,,,,,,,,165,chote,,,,,,344.706,345.96,0,1,0.731,,0,152,152,164,1,pseudoword,0,REAL,FALSA
,,,,,,,,,WS.10,001,2025-01-22_12h51.48.637,empathy_intonation_perc,2024.1.4,MacIntel,58.82352941,,,,,,,,,,,,,,74,ala,,,,,,345.96,347.026,0,1,0.531,,0,153,153,73,1,non_cognate,1,REAL,FALSA
,,,,,,,,,WS.10,001,2025-01-22_12h51.48.637,empathy_intonation_perc,2024.1.4,MacIntel,58.82352941,,,,,,,,,,,,,,23,plural,,,,,,347.026,348.373,1,0,0.806,,0,154,154,22,1,three_way_cognate,1,REAL,FALSA
,,,,,,,,,WS.10,001,2025-01-22_12h51.48.637,empathy_intonation_perc,2024.1.4,MacIntel,58.82352941,,,,,,,,,,,,,,151,prías,,,,,,348.373,350.559,0,1,1.664,,0,155,155,150,1,pseudoword,0,REAL,FALSA
,,,,,,,,,WS.10,001,2025-01-22_12h51.48.637,empathy_intonation_perc,2024.1.4,MacIntel,58.82352941,,,,,,,,,,,,,,149,emén,,,,,,350.56,352.123,0,1,1.025,,0,156,156,148,1,pseudoword,0,REAL,FALSA
,,,,,,,,,WS.10,001,2025-01-22_12h51.48.637,empathy_intonation_perc,2024.1.4,MacIntel,58.82352941,,,,,,,,,,,,,,173,mibro,,,,,,352.123,357.209,0,1,4.556,,0,157,157,172,1,pseudoword,0,REAL,FALSA
,,,,,,,,,WS.10,001,2025-01-22_12h51.48.637,empathy_intonation_perc,2024.1.4,MacIntel,58.82352941,,,,,,,,,,,,,,143,hurcos,,,,,,357.209,358.589,0,1,0.864,,0,158,158,142,1,pseudoword,0,REAL,FALSA
,,,,,,,,,WS.10,001,2025-01-22_12h51.48.637,empathy_intonation_perc,2024.1.4,MacIntel,58.82352941,,,,,,,,,,,,,,34,actor,,,,,,358.589,359.856,1,0,0.741,,0,159,159,33,1,two_way_cognate,1,REAL,FALSA
,,,,,,,,,WS.10,001,2025-01-22_12h51.48.637,empathy_intonation_perc,2024.1.4,MacIntel,58.82352941,,,,,,,,,,,,,,96,caro,,,,,,359.856,361.226,1,0,0.849,,0,160,160,95,1,non_cognate,1,REAL,FALSA
,,,,,,,,,WS.10,001,2025-01-22_12h51.48.637,empathy_intonation_perc,2024.1.4,MacIntel,58.82352941,,,,,,,,,,,,,,4,flora,,,,,,361.226,362.357,1,0,0.595,,0,161,161,3,1,three_way_cognate,1,REAL,FALSA
,,,,,,,,,WS.10,001,2025-01-22_12h51.48.637,empathy_intonation_perc,2024.1.4,MacIntel,58.82352941,,,,,,,,,,,,,,131,fuar,,,,,,362.357,363.626,0,1,0.755,,0,162,162,130,1,pseudoword,0,REAL,FALSA
,,,,,,,,,WS.10,001,2025-01-22_12h51.48.637,empathy_intonation_perc,2024.1.4,MacIntel,58.82352941,,,,,,,,,,,,,,87,muleta,,,,,,363.626,364.924,0,1,0.786,,0,163,163,86,1,non_cognate,1,REAL,FALSA
,,,,,,,,,WS.10,001,2025-01-22_12h51.48.637,empathy_intonation_perc,2024.1.4,MacIntel,58.82352941,,,,,,,,,,,,,,76,chocar,,,,,,364.924,366.173,1,0,0.73,,0,164,164,75,1,non_cognate,1,REAL,FALSA
,,,,,,,,,WS.10,001,2025-01-22_12h51.48.637,empathy_intonation_perc,2024.1.4,MacIntel,58.82352941,,,,,,,,,,,,,,75,patada,,,,,,366.173,367.506,1,0,0.802,,0,165,165,74,1,non_cognate,1,REAL,FALSA
,,,,,,,,,WS.10,001,2025-01-22_12h51.48.637,empathy_intonation_perc,2024.1.4,MacIntel,58.82352941,,,,,,,,,,,,,,170,diabo,,,,,,367.506,368.972,0,1,0.938,,0,166,166,169,1,pseudoword,0,REAL,FALSA
,,,,,,,,,WS.10,001,2025-01-22_12h51.48.637,empathy_intonation_perc,2024.1.4,MacIntel,58.82352941,,,,,,,,,,,,,,147,alla,,,,,,368.973,370.042,0,1,0.546,,0,167,167,146,1,pseudoword,0,REAL,FALSA
,,,,,,,,,WS.10,001,2025-01-22_12h51.48.637,empathy_intonation_perc,2024.1.4,MacIntel,58.82352941,,,,,,,,,,,,,,69,tiza,,,,,,370.042,371.042,0,1,0.489,,0,168,168,68,1,non_cognate,1,REAL,FALSA
,,,,,,,,,WS.10,001,2025-01-22_12h51.48.637,empathy_intonation_perc,2024.1.4,MacIntel,58.82352941,,,,,,,,,,,,,,93,tapa,,,,,,371.042,372.407,0,1,0.853,,0,169,169,92,1,non_cognate,1,REAL,FALSA
,,,,,,,,,WS.10,001,2025-01-22_12h51.48.637,empathy_intonation_perc,2024.1.4,MacIntel,58.82352941,,,,,,,,,,,,,,99,bugor,,,,,,372.407,376.976,0,1,4.055,,0,170,170,98,1,pseudoword,0,REAL,FALSA
,,,,,,,,,WS.10,001,2025-01-22_12h51.48.637,empathy_intonation_perc,2024.1.4,MacIntel,58.82352941,,,,,,,,,,,,,,83,hálito,,,,,,376.976,378.075,0,1,0.588,,0,171,171,82,1,non_cognate,1,REAL,FALSA
,,,,,,,,,WS.10,001,2025-01-22_12h51.48.637,empathy_intonation_perc,2024.1.4,MacIntel,58.82352941,,,,,,,,,,,,,,104,estulo,,,,,,378.075,379.389,0,1,0.797,,0,172,172,103,1,pseudoword,0,REAL,FALSA
,,,,,,,,,WS.10,001,2025-01-22_12h51.48.637,empathy_intonation_perc,2024.1.4,MacIntel,58.82352941,,,,,,,,,,,,,,71,torta,,,,,,379.389,380.843,0,1,0.931,,0,173,173,70,1,non_cognate,1,REAL,FALSA
,,,,,,,,,WS.10,001,2025-01-22_12h51.48.637,empathy_intonation_perc,2024.1.4,MacIntel,58.82352941,,,,,,,,,,,,,,190,asumie,,,,,,380.843,381.89,0,1,0.511,,0,174,174,189,1,pseudoword,0,REAL,FALSA
,,,,,,,,,WS.10,001,2025-01-22_12h51.48.637,empathy_intonation_perc,2024.1.4,MacIntel,58.82352941,,,,,,,,,,,,,,120,mauja,,,,,,381.89,383.625,0,1,1.223,,0,175,175,119,1,pseudoword,0,REAL,FALSA
,,,,,,,,,WS.10,001,2025-01-22_12h51.48.637,empathy_intonation_perc,2024.1.4,MacIntel,58.82352941,,,,,,,,,,,,,,115,lidena,,,,,,383.625,384.692,0,1,0.555,,0,176,176,114,1,pseudoword,0,REAL,FALSA
,,,,,,,,,WS.10,001,2025-01-22_12h51.48.637,empathy_intonation_perc,2024.1.4,MacIntel,58.82352941,,,,,,,,,,,,,,84,aviso,,,,,,384.693,386.109,1,0,0.88,,0,177,177,83,1,non_cognate,1,REAL,FALSA
,,,,,,,,,WS.10,001,2025-01-22_12h51.48.637,empathy_intonation_perc,2024.1.4,MacIntel,58.82352941,,,,,,,,,,,,,,167,dobbo,,,,,,386.109,387.642,0,1,0.998,,0,178,178,166,1,pseudoword,0,REAL,FALSA
,,,,,,,,,WS.10,001,2025-01-22_12h51.48.637,empathy_intonation_perc,2024.1.4,MacIntel,58.82352941,,,,,,,,,,,,,,94,forro,,,,,,387.642,389.123,0,1,0.942,,0,179,179,93,1,non_cognate,1,REAL,FALSA
,,,,,,,,,WS.10,001,2025-01-22_12h51.48.637,empathy_intonation_perc,2024.1.4,MacIntel,58.82352941,,,,,,,,,,,,,,61,aduana,,,,,,389.123,390.741,1,0,1.087,,0,180,180,60,1,non_cognate,1,REAL,FALSA
,,,,,,,,,WS.10,001,2025-01-22_12h51.48.637,empathy_intonation_perc,2024.1.4,MacIntel,58.82352941,,,,,,,,,,,,,,13,plan,,,,,,390.741,391.822,1,0,0.562,,0,181,181,12,1,three_way_cognate,1,REAL,FALSA
,,,,,,,,,WS.10,001,2025-01-22_12h51.48.637,empathy_intonation_perc,2024.1.4,MacIntel,58.82352941,,,,,,,,,,,,,,166,anfia,,,,,,391.822,393.189,0,1,0.842,,0,182,182,165,1,pseudoword,0,REAL,FALSA
,,,,,,,,,WS.10,001,2025-01-22_12h51.48.637,empathy_intonation_perc,2024.1.4,MacIntel,58.82352941,,,,,,,,,,,,,,178,inichó,,,,,,393.189,396.142,0,1,2.43,,0,183,183,177,1,pseudoword,0,REAL,FALSA
,,,,,,,,,WS.10,001,2025-01-22_12h51.48.637,empathy_intonation_perc,2024.1.4,MacIntel,58.82352941,,,,,,,,,,,,,,66,aleta,,,,,,396.142,397.789,0,1,1.135,,0,184,184,65,1,non_cognate,1,REAL,FALSA
,,,,,,,,,WS.10,001,2025-01-22_12h51.48.637,empathy_intonation_perc,2024.1.4,MacIntel,58.82352941,,,,,,,,,,,,,,82,brillo,,,,,,397.789,400.409,1,0,2.098,,0,185,185,81,1,non_cognate,1,REAL,FALSA
,,,,,,,,,WS.10,001,2025-01-22_12h51.48.637,empathy_intonation_perc,2024.1.4,MacIntel,58.82352941,,,,,,,,,,,,,,139,sasos,,,,,,400.41,401.575,0,1,0.631,,0,186,186,138,1,pseudoword,0,REAL,FALSA
,,,,,,,,,WS.10,001,2025-01-22_12h51.48.637,empathy_intonation_perc,2024.1.4,MacIntel,58.82352941,,,,,,,,,,,,,,51,listo,,,,,,401.575,402.722,1,0,0.608,,0,187,187,50,1,non_cognate,1,REAL,FALSA
,,,,,,,,,WS.10,001,2025-01-22_12h51.48.637,empathy_intonation_perc,2024.1.4,MacIntel,58.82352941,,,,,,,,,,,,,,90,venado,,,,,,402.722,404.456,0,1,1.206,,0,188,188,89,1,non_cognate,1,REAL,FALSA
,,,,,,,,,WS.10,001,2025-01-22_12h51.48.637,empathy_intonation_perc,2024.1.4,MacIntel,58.82352941,,,,,,,,,,,,,,46,mortal,,,,,,404.456,405.773,1,0,0.786,,0,189,189,45,1,two_way_cognate,1,REAL,FALSA
,,,,,,,,,WS.10,001,2025-01-22_12h51.48.637,empathy_intonation_perc,2024.1.4,MacIntel,58.82352941,,,,,,,,,,,,,,14,aura,,,,,,405.773,407.541,1,0,1.258,,0,190,190,13,1,three_way_cognate,1,REAL,FALSA
,,,,,,,,,WS.10,001,2025-01-22_12h51.48.637,empathy_intonation_perc,2024.1.4,MacIntel,58.82352941,,,,,,,,,,,,,,80,cuenco,,,,,,407.542,409.189,0,1,1.13,,0,191,191,79,1,non_cognate,1,REAL,FALSA
