lextale_instructions.started,lextale_instructions.stopped,lextale_instructions_loop.thisRepN,lextale_instructions_loop.thisTrialN,lextale_instructions_loop.thisN,lextale_instructions_loop.thisIndex,lextale_instructions_loop.ran,instructions_text,continue_text,participant,session,date,expName,psychopyVersion,OS,frameRate,lextale_practice.started,lextale_practice.stopped,key_resp_lextale_practice.keys,key_resp_lextale_practice.corr,key_resp_lextale_practice.rt,key_resp_lextale_practice.duration,lextale_practice_feedback.started,lextale_practice_feedback.stopped,lextale_practice_trials.thisRepN,lextale_practice_trials.thisTrialN,lextale_practice_trials.thisN,lextale_practice_trials.thisIndex,lextale_practice_trials.ran,stim,word,correct_response,prac_button_real,prac_button_false,lextale_check.started,lextale_check.stopped,lextale_trial.started,lextale_trial.stopped,key_resp_lextale_trial.keys,key_resp_lextale_trial.corr,key_resp_lextale_trial.rt,key_resp_lextale_trial.duration,lextail_trials.thisRepN,lextail_trials.thisTrialN,lextail_trials.thisN,lextail_trials.thisIndex,lextail_trials.ran,type,correct_reponse,button_real,button_false
0.005,3.888,0,0,0,0,1,"Este es un test de vocabulario en español. 
  
  A continuación vas a ver 90 secuencias de letras que parecen 'españolas'.
  
  Solo algunas de ellas son palabras de verdad.",(presiona la barra espaciadora para continuar),WS.11,001,2025-01-22_13h05.43.435,empathy_intonation_perc,2024.1.4,MacIntel,58.82352941,,,,,,,,,,,,,,,,,,,,,,,,,,,,,,,,,,,
3.888,7.58,0,1,1,1,1,"Por favor, señala las palabras que tú conoces (aquellas que estás convencido que son palabras españolas, incluso aunque no seas capaz de dar el significado preciso).",(presiona la barra espaciadora para continuar),WS.11,001,2025-01-22_13h05.43.435,empathy_intonation_perc,2024.1.4,MacIntel,58.82352941,,,,,,,,,,,,,,,,,,,,,,,,,,,,,,,,,,,
7.581,12.871,0,2,2,2,1,Pero cuidado: los errores se penalizan. Por eso no tiene sentido tratar de incrementar tu puntuación marcando como reales palabras que nunca has visto.,(presiona la barra espaciadora para continuar),WS.11,001,2025-01-22_13h05.43.435,empathy_intonation_perc,2024.1.4,MacIntel,58.82352941,,,,,,,,,,,,,,,,,,,,,,,,,,,,,,,,,,,
12.872,16.535,0,3,3,3,1,"Presiona la tecla 1 si piensas que es una palabra real y la tecla 
  0 si piensas que es una palabra falsa. 
  
  Vamos a practicar un poco...",(presiona la barra espaciadora para continuar),WS.11,001,2025-01-22_13h05.43.435,empathy_intonation_perc,2024.1.4,MacIntel,58.82352941,,,,,,,,,,,,,,,,,,,,,,,,,,,,,,,,,,,
,,,,,,,,,WS.11,001,2025-01-22_13h05.43.435,empathy_intonation_perc,2024.1.4,MacIntel,58.82352941,16.542,17.854,1,0,0.788,,17.854,18.854,0,0,0,0,1,0,depiste,0,REAL,FALSA,,,,,,,,,,,,,,,,,
,,,,,,,,,WS.11,001,2025-01-22_13h05.43.435,empathy_intonation_perc,2024.1.4,MacIntel,58.82352941,18.855,20.142,1,1,0.763,,20.142,21.138,0,1,1,1,1,0,sí,1,REAL,FALSA,,,,,,,,,,,,,,,,,
,,,,,,,,,WS.11,001,2025-01-22_13h05.43.435,empathy_intonation_perc,2024.1.4,MacIntel,58.82352941,21.138,23.039,0,1,1.388,,23.039,24.04,0,2,2,2,1,0,coné,0,REAL,FALSA,,,,,,,,,,,,,,,,,
,,,,,,,,,WS.11,001,2025-01-22_13h05.43.435,empathy_intonation_perc,2024.1.4,MacIntel,58.82352941,24.04,26.658,0,1,2.106,,26.658,27.658,0,3,3,3,1,0,calpar,0,REAL,FALSA,,,,,,,,,,,,,,,,,
,,,,,,,,,WS.11,001,2025-01-22_13h05.43.435,empathy_intonation_perc,2024.1.4,MacIntel,58.82352941,27.659,28.997,1,0,0.813,,28.997,29.993,0,4,4,4,1,0,joten,0,REAL,FALSA,,,,,,,,,,,,,,,,,
,,,,,,,,,WS.11,001,2025-01-22_13h05.43.435,empathy_intonation_perc,2024.1.4,MacIntel,58.82352941,29.994,32.716,1,1,2.197,,32.716,33.712,0,5,5,5,1,0,sacapuntas,1,REAL,FALSA,,,,,,,,,,,,,,,,,
,,,,,,,,,WS.11,001,2025-01-22_13h05.43.435,empathy_intonation_perc,2024.1.4,MacIntel,58.82352941,33.713,34.879,0,1,0.638,,34.88,35.88,0,6,6,6,1,0,priba,0,REAL,FALSA,,,,,,,,,,,,,,,,,
,,,,,,,,,WS.11,001,2025-01-22_13h05.43.435,empathy_intonation_perc,2024.1.4,MacIntel,58.82352941,35.88,36.985,0,1,0.596,,36.985,37.981,0,7,7,7,1,0,pelasula,0,REAL,FALSA,,,,,,,,,,,,,,,,,
,,,,,,,,,WS.11,001,2025-01-22_13h05.43.435,empathy_intonation_perc,2024.1.4,MacIntel,58.82352941,37.982,39.048,1,1,0.538,,39.049,40.049,0,8,8,8,1,0,bien,1,REAL,FALSA,,,,,,,,,,,,,,,,,
,,,,,,,,,WS.11,001,2025-01-22_13h05.43.435,empathy_intonation_perc,2024.1.4,MacIntel,58.82352941,40.05,41.021,1,1,0.445,,41.021,42.017,0,9,9,9,1,0,casa,1,REAL,FALSA,,,,,,,,,,,,,,,,,
,,,,,,,,,WS.11,001,2025-01-22_13h05.43.435,empathy_intonation_perc,2024.1.4,MacIntel,58.82352941,42.018,43.022,1,0,0.478,,43.022,44.018,0,10,10,10,1,0,lejo,0,REAL,FALSA,,,,,,,,,,,,,,,,,
,,,,,,,,,WS.11,001,2025-01-22_13h05.43.435,empathy_intonation_perc,2024.1.4,MacIntel,58.82352941,44.019,45.919,0,1,1.372,,45.919,46.92,0,11,11,11,1,0,pretantas,0,REAL,FALSA,,,,,,,,,,,,,,,,,
,,,,,,,,,WS.11,001,2025-01-22_13h05.43.435,empathy_intonation_perc,2024.1.4,MacIntel,58.82352941,,,,,,,,,,,,,,,,,,,46.921,48.042,,,,,,,,,,,,,,,
,,,,,,,,,WS.11,001,2025-01-22_13h05.43.435,empathy_intonation_perc,2024.1.4,MacIntel,58.82352941,,,,,,,,,,,,,,67,llamar,,,,,,48.056,49.956,1,0,1.373,,0,0,0,66,1,non_cognate,1,REAL,FALSA
,,,,,,,,,WS.11,001,2025-01-22_13h05.43.435,empathy_intonation_perc,2024.1.4,MacIntel,58.82352941,,,,,,,,,,,,,,128,pelí,,,,,,49.957,51.694,1,0,1.213,,0,1,1,127,1,pseudoword,0,REAL,FALSA
,,,,,,,,,WS.11,001,2025-01-22_13h05.43.435,empathy_intonation_perc,2024.1.4,MacIntel,58.82352941,,,,,,,,,,,,,,156,ozoso,,,,,,51.695,53.373,1,0,1.154,,0,2,2,155,1,pseudoword,0,REAL,FALSA
,,,,,,,,,WS.11,001,2025-01-22_13h05.43.435,empathy_intonation_perc,2024.1.4,MacIntel,58.82352941,,,,,,,,,,,,,,160,fomeó,,,,,,53.374,55.095,0,1,1.213,,0,3,3,159,1,pseudoword,0,REAL,FALSA
,,,,,,,,,WS.11,001,2025-01-22_13h05.43.435,empathy_intonation_perc,2024.1.4,MacIntel,58.82352941,,,,,,,,,,,,,,62,pegar,,,,,,55.095,56.242,1,0,0.621,,0,4,4,61,1,non_cognate,1,REAL,FALSA
,,,,,,,,,WS.11,001,2025-01-22_13h05.43.435,empathy_intonation_perc,2024.1.4,MacIntel,58.82352941,,,,,,,,,,,,,,155,kugis,,,,,,56.243,57.33,0,1,0.563,,0,5,5,154,1,pseudoword,0,REAL,FALSA
,,,,,,,,,WS.11,001,2025-01-22_13h05.43.435,empathy_intonation_perc,2024.1.4,MacIntel,58.82352941,,,,,,,,,,,,,,123,arane,,,,,,57.33,58.927,0,1,1.073,,0,6,6,122,1,pseudoword,0,REAL,FALSA
,,,,,,,,,WS.11,001,2025-01-22_13h05.43.435,empathy_intonation_perc,2024.1.4,MacIntel,58.82352941,,,,,,,,,,,,,,50,sierra,,,,,,58.927,60.165,1,0,0.728,,0,7,7,49,1,non_cognate,1,REAL,FALSA
,,,,,,,,,WS.11,001,2025-01-22_13h05.43.435,empathy_intonation_perc,2024.1.4,MacIntel,58.82352941,,,,,,,,,,,,,,82,brillo,,,,,,60.165,61.412,1,0,0.723,,0,8,8,81,1,non_cognate,1,REAL,FALSA
,,,,,,,,,WS.11,001,2025-01-22_13h05.43.435,empathy_intonation_perc,2024.1.4,MacIntel,58.82352941,,,,,,,,,,,,,,41,pasta,,,,,,61.412,62.566,1,0,0.645,,0,9,9,40,1,two_way_cognate,1,REAL,FALSA
,,,,,,,,,WS.11,001,2025-01-22_13h05.43.435,empathy_intonation_perc,2024.1.4,MacIntel,58.82352941,,,,,,,,,,,,,,183,edioso,,,,,,62.566,63.867,0,1,0.78,,0,10,10,182,1,pseudoword,0,REAL,FALSA
,,,,,,,,,WS.11,001,2025-01-22_13h05.43.435,empathy_intonation_perc,2024.1.4,MacIntel,58.82352941,,,,,,,,,,,,,,39,casual,,,,,,63.867,64.952,1,0,0.563,,0,11,11,38,1,two_way_cognate,1,REAL,FALSA
,,,,,,,,,WS.11,001,2025-01-22_13h05.43.435,empathy_intonation_perc,2024.1.4,MacIntel,58.82352941,,,,,,,,,,,,,,71,torta,,,,,,64.952,66.365,1,0,0.889,,0,12,12,70,1,non_cognate,1,REAL,FALSA
,,,,,,,,,WS.11,001,2025-01-22_13h05.43.435,empathy_intonation_perc,2024.1.4,MacIntel,58.82352941,,,,,,,,,,,,,,105,peniz,,,,,,66.365,67.786,0,1,0.913,,0,13,13,104,1,pseudoword,0,REAL,FALSA
,,,,,,,,,WS.11,001,2025-01-22_13h05.43.435,empathy_intonation_perc,2024.1.4,MacIntel,58.82352941,,,,,,,,,,,,,,9,portal,,,,,,67.787,69.066,1,0,0.753,,0,14,14,8,1,three_way_cognate,1,REAL,FALSA
,,,,,,,,,WS.11,001,2025-01-22_13h05.43.435,empathy_intonation_perc,2024.1.4,MacIntel,58.82352941,,,,,,,,,,,,,,10,drama,,,,,,69.067,70.188,1,0,0.595,,0,15,15,9,1,three_way_cognate,1,REAL,FALSA
,,,,,,,,,WS.11,001,2025-01-22_13h05.43.435,empathy_intonation_perc,2024.1.4,MacIntel,58.82352941,,,,,,,,,,,,,,90,venado,,,,,,70.188,71.688,1,0,0.979,,0,16,16,89,1,non_cognate,1,REAL,FALSA
,,,,,,,,,WS.11,001,2025-01-22_13h05.43.435,empathy_intonation_perc,2024.1.4,MacIntel,58.82352941,,,,,,,,,,,,,,30,fiscal,,,,,,71.689,73.102,1,0,0.888,,0,17,17,29,1,two_way_cognate,1,REAL,FALSA
,,,,,,,,,WS.11,001,2025-01-22_13h05.43.435,empathy_intonation_perc,2024.1.4,MacIntel,58.82352941,,,,,,,,,,,,,,175,tradía,,,,,,73.103,74.286,0,1,0.671,,0,18,18,174,1,pseudoword,0,REAL,FALSA
,,,,,,,,,WS.11,001,2025-01-22_13h05.43.435,empathy_intonation_perc,2024.1.4,MacIntel,58.82352941,,,,,,,,,,,,,,13,plan,,,,,,74.287,75.274,1,0,0.464,,0,19,19,12,1,three_way_cognate,1,REAL,FALSA
,,,,,,,,,WS.11,001,2025-01-22_13h05.43.435,empathy_intonation_perc,2024.1.4,MacIntel,58.82352941,,,,,,,,,,,,,,141,virios,,,,,,75.275,76.671,0,1,0.872,,0,20,20,140,1,pseudoword,0,REAL,FALSA
,,,,,,,,,WS.11,001,2025-01-22_13h05.43.435,empathy_intonation_perc,2024.1.4,MacIntel,58.82352941,,,,,,,,,,,,,,150,cricó,,,,,,76.672,78.138,0,1,0.932,,0,21,21,149,1,pseudoword,0,REAL,FALSA
,,,,,,,,,WS.11,001,2025-01-22_13h05.43.435,empathy_intonation_perc,2024.1.4,MacIntel,58.82352941,,,,,,,,,,,,,,55,maldad,,,,,,78.139,79.639,0,1,0.972,,0,22,22,54,1,non_cognate,1,REAL,FALSA
,,,,,,,,,WS.11,001,2025-01-22_13h05.43.435,empathy_intonation_perc,2024.1.4,MacIntel,58.82352941,,,,,,,,,,,,,,20,trauma,,,,,,79.64,80.823,1,0,0.673,,0,23,23,19,1,three_way_cognate,1,REAL,FALSA
,,,,,,,,,WS.11,001,2025-01-22_13h05.43.435,empathy_intonation_perc,2024.1.4,MacIntel,58.82352941,,,,,,,,,,,,,,157,seled,,,,,,80.823,82.074,0,1,0.74,,0,24,24,156,1,pseudoword,0,REAL,FALSA
,,,,,,,,,WS.11,001,2025-01-22_13h05.43.435,empathy_intonation_perc,2024.1.4,MacIntel,58.82352941,,,,,,,,,,,,,,52,blando,,,,,,82.074,83.208,0,1,0.621,,0,25,25,51,1,non_cognate,1,REAL,FALSA
,,,,,,,,,WS.11,001,2025-01-22_13h05.43.435,empathy_intonation_perc,2024.1.4,MacIntel,58.82352941,,,,,,,,,,,,,,49,teñir,,,,,,83.208,84.458,1,0,0.739,,0,26,26,48,1,non_cognate,1,REAL,FALSA
,,,,,,,,,WS.11,001,2025-01-22_13h05.43.435,empathy_intonation_perc,2024.1.4,MacIntel,58.82352941,,,,,,,,,,,,,,19,mafia,,,,,,84.459,85.843,1,0,0.856,,0,27,27,18,1,three_way_cognate,1,REAL,FALSA
,,,,,,,,,WS.11,001,2025-01-22_13h05.43.435,empathy_intonation_perc,2024.1.4,MacIntel,58.82352941,,,,,,,,,,,,,,192,próces,,,,,,85.843,87.093,1,0,0.739,,0,28,28,191,1,pseudoword,0,REAL,FALSA
,,,,,,,,,WS.11,001,2025-01-22_13h05.43.435,empathy_intonation_perc,2024.1.4,MacIntel,58.82352941,,,,,,,,,,,,,,189,medium,,,,,,87.094,88.611,1,0,0.987,,0,29,29,188,1,pseudoword,0,REAL,FALSA
,,,,,,,,,WS.11,001,2025-01-22_13h05.43.435,empathy_intonation_perc,2024.1.4,MacIntel,58.82352941,,,,,,,,,,,,,,51,listo,,,,,,88.611,89.662,1,0,0.539,,0,30,30,50,1,non_cognate,1,REAL,FALSA
,,,,,,,,,WS.11,001,2025-01-22_13h05.43.435,empathy_intonation_perc,2024.1.4,MacIntel,58.82352941,,,,,,,,,,,,,,87,muleta,,,,,,89.662,90.866,1,0,0.696,,0,31,31,86,1,non_cognate,1,REAL,FALSA
,,,,,,,,,WS.11,001,2025-01-22_13h05.43.435,empathy_intonation_perc,2024.1.4,MacIntel,58.82352941,,,,,,,,,,,,,,108,jauda,,,,,,90.866,92.33,0,1,0.938,,0,32,32,107,1,pseudoword,0,REAL,FALSA
,,,,,,,,,WS.11,001,2025-01-22_13h05.43.435,empathy_intonation_perc,2024.1.4,MacIntel,58.82352941,,,,,,,,,,,,,,44,editor,,,,,,92.33,93.851,1,0,1.014,,0,33,33,43,1,two_way_cognate,1,REAL,FALSA
,,,,,,,,,WS.11,001,2025-01-22_13h05.43.435,empathy_intonation_perc,2024.1.4,MacIntel,58.82352941,,,,,,,,,,,,,,121,barbs,,,,,,93.851,95.031,0,1,0.656,,0,34,34,120,1,pseudoword,0,REAL,FALSA
,,,,,,,,,WS.11,001,2025-01-22_13h05.43.435,empathy_intonation_perc,2024.1.4,MacIntel,58.82352941,,,,,,,,,,,,,,85,enorme,,,,,,95.032,96.332,1,0,0.772,,0,35,35,84,1,non_cognate,1,REAL,FALSA
,,,,,,,,,WS.11,001,2025-01-22_13h05.43.435,empathy_intonation_perc,2024.1.4,MacIntel,58.82352941,,,,,,,,,,,,,,79,suelo,,,,,,96.333,97.487,1,0,0.629,,0,36,36,78,1,non_cognate,1,REAL,FALSA
,,,,,,,,,WS.11,001,2025-01-22_13h05.43.435,empathy_intonation_perc,2024.1.4,MacIntel,58.82352941,,,,,,,,,,,,,,48,pelvis,,,,,,97.487,99.2,1,0,1.19,,0,37,37,47,1,two_way_cognate,1,REAL,FALSA
,,,,,,,,,WS.11,001,2025-01-22_13h05.43.435,empathy_intonation_perc,2024.1.4,MacIntel,58.82352941,,,,,,,,,,,,,,32,animal,,,,,,99.201,100.234,1,0,0.522,,0,38,38,31,1,two_way_cognate,1,REAL,FALSA
,,,,,,,,,WS.11,001,2025-01-22_13h05.43.435,empathy_intonation_perc,2024.1.4,MacIntel,58.82352941,,,,,,,,,,,,,,179,suelet,,,,,,100.235,101.355,1,0,0.614,,0,39,39,178,1,pseudoword,0,REAL,FALSA
,,,,,,,,,WS.11,001,2025-01-22_13h05.43.435,empathy_intonation_perc,2024.1.4,MacIntel,58.82352941,,,,,,,,,,,,,,59,feo,,,,,,101.356,102.673,1,0,0.797,,0,40,40,58,1,non_cognate,1,REAL,FALSA
,,,,,,,,,WS.11,001,2025-01-22_13h05.43.435,empathy_intonation_perc,2024.1.4,MacIntel,58.82352941,,,,,,,,,,,,,,91,equipo,,,,,,102.673,104.09,1,0,0.897,,0,41,41,90,1,non_cognate,1,REAL,FALSA
,,,,,,,,,WS.11,001,2025-01-22_13h05.43.435,empathy_intonation_perc,2024.1.4,MacIntel,58.82352941,,,,,,,,,,,,,,93,tapa,,,,,,104.091,105.092,1,0,0.481,,0,42,42,92,1,non_cognate,1,REAL,FALSA
,,,,,,,,,WS.11,001,2025-01-22_13h05.43.435,empathy_intonation_perc,2024.1.4,MacIntel,58.82352941,,,,,,,,,,,,,,21,hotel,,,,,,105.092,106.125,1,0,0.514,,0,43,43,20,1,three_way_cognate,1,REAL,FALSA
,,,,,,,,,WS.11,001,2025-01-22_13h05.43.435,empathy_intonation_perc,2024.1.4,MacIntel,58.82352941,,,,,,,,,,,,,,110,densó,,,,,,106.126,107.343,0,1,0.696,,0,44,44,109,1,pseudoword,0,REAL,FALSA
,,,,,,,,,WS.11,001,2025-01-22_13h05.43.435,empathy_intonation_perc,2024.1.4,MacIntel,58.82352941,,,,,,,,,,,,,,109,laras,,,,,,107.343,108.589,0,1,0.72,,0,45,45,108,1,pseudoword,0,REAL,FALSA
,,,,,,,,,WS.11,001,2025-01-22_13h05.43.435,empathy_intonation_perc,2024.1.4,MacIntel,58.82352941,,,,,,,,,,,,,,151,prías,,,,,,108.59,110.011,1,0,0.896,,0,46,46,150,1,pseudoword,0,REAL,FALSA
,,,,,,,,,WS.11,001,2025-01-22_13h05.43.435,empathy_intonation_perc,2024.1.4,MacIntel,58.82352941,,,,,,,,,,,,,,106,diebro,,,,,,110.012,112.025,1,0,1.488,,0,47,47,105,1,pseudoword,0,REAL,FALSA
,,,,,,,,,WS.11,001,2025-01-22_13h05.43.435,empathy_intonation_perc,2024.1.4,MacIntel,58.82352941,,,,,,,,,,,,,,74,ala,,,,,,112.026,113.109,1,0,0.553,,0,48,48,73,1,non_cognate,1,REAL,FALSA
,,,,,,,,,WS.11,001,2025-01-22_13h05.43.435,empathy_intonation_perc,2024.1.4,MacIntel,58.82352941,,,,,,,,,,,,,,127,vien,,,,,,113.11,114.513,0,1,0.879,,0,49,49,126,1,pseudoword,0,REAL,FALSA
,,,,,,,,,WS.11,001,2025-01-22_13h05.43.435,empathy_intonation_perc,2024.1.4,MacIntel,58.82352941,,,,,,,,,,,,,,142,parre,,,,,,114.513,115.61,1,0,0.572,,0,50,50,141,1,pseudoword,0,REAL,FALSA
,,,,,,,,,WS.11,001,2025-01-22_13h05.43.435,empathy_intonation_perc,2024.1.4,MacIntel,58.82352941,,,,,,,,,,,,,,26,enigma,,,,,,115.611,116.811,1,0,0.672,,0,51,51,25,1,two_way_cognate,1,REAL,FALSA
,,,,,,,,,WS.11,001,2025-01-22_13h05.43.435,empathy_intonation_perc,2024.1.4,MacIntel,58.82352941,,,,,,,,,,,,,,137,trugo,,,,,,116.812,117.949,0,1,0.613,,0,52,52,136,1,pseudoword,0,REAL,FALSA
,,,,,,,,,WS.11,001,2025-01-22_13h05.43.435,empathy_intonation_perc,2024.1.4,MacIntel,58.82352941,,,,,,,,,,,,,,46,mortal,,,,,,117.949,119.016,1,0,0.546,,0,53,53,45,1,two_way_cognate,1,REAL,FALSA
,,,,,,,,,WS.11,001,2025-01-22_13h05.43.435,empathy_intonation_perc,2024.1.4,MacIntel,58.82352941,,,,,,,,,,,,,,171,gotro,,,,,,119.016,120.213,0,1,0.674,,0,54,54,170,1,pseudoword,0,REAL,FALSA
,,,,,,,,,WS.11,001,2025-01-22_13h05.43.435,empathy_intonation_perc,2024.1.4,MacIntel,58.82352941,,,,,,,,,,,,,,146,gió,,,,,,120.214,121.73,0,1,0.988,,0,55,55,145,1,pseudoword,0,REAL,FALSA
,,,,,,,,,WS.11,001,2025-01-22_13h05.43.435,empathy_intonation_perc,2024.1.4,MacIntel,58.82352941,,,,,,,,,,,,,,37,torso,,,,,,121.731,122.902,0,1,0.647,,0,56,56,36,1,two_way_cognate,1,REAL,FALSA
,,,,,,,,,WS.11,001,2025-01-22_13h05.43.435,empathy_intonation_perc,2024.1.4,MacIntel,58.82352941,,,,,,,,,,,,,,31,civil,,,,,,122.902,123.965,1,0,0.538,,0,57,57,30,1,two_way_cognate,1,REAL,FALSA
,,,,,,,,,WS.11,001,2025-01-22_13h05.43.435,empathy_intonation_perc,2024.1.4,MacIntel,58.82352941,,,,,,,,,,,,,,138,tator,,,,,,123.965,125.166,0,1,0.69,,0,58,58,137,1,pseudoword,0,REAL,FALSA
,,,,,,,,,WS.11,001,2025-01-22_13h05.43.435,empathy_intonation_perc,2024.1.4,MacIntel,58.82352941,,,,,,,,,,,,,,88,percha,,,,,,125.166,126.25,0,1,0.572,,0,59,59,87,1,non_cognate,1,REAL,FALSA
,,,,,,,,,WS.11,001,2025-01-22_13h05.43.435,empathy_intonation_perc,2024.1.4,MacIntel,58.82352941,,,,,,,,,,,,,,162,cengo,,,,,,126.25,127.567,0,1,0.805,,0,60,60,161,1,pseudoword,0,REAL,FALSA
,,,,,,,,,WS.11,001,2025-01-22_13h05.43.435,empathy_intonation_perc,2024.1.4,MacIntel,58.82352941,,,,,,,,,,,,,,24,retina,,,,,,127.568,128.705,0,1,0.614,,0,61,61,23,1,three_way_cognate,1,REAL,FALSA
,,,,,,,,,WS.11,001,2025-01-22_13h05.43.435,empathy_intonation_perc,2024.1.4,MacIntel,58.82352941,,,,,,,,,,,,,,86,cuenco,,,,,,128.705,130.069,0,1,0.839,,0,62,62,85,1,non_cognate,1,REAL,FALSA
,,,,,,,,,WS.11,001,2025-01-22_13h05.43.435,empathy_intonation_perc,2024.1.4,MacIntel,58.82352941,,,,,,,,,,,,,,96,caro,,,,,,130.069,131.186,1,0,0.607,,0,63,63,95,1,non_cognate,1,REAL,FALSA
,,,,,,,,,WS.11,001,2025-01-22_13h05.43.435,empathy_intonation_perc,2024.1.4,MacIntel,58.82352941,,,,,,,,,,,,,,144,diroco,,,,,,131.186,133.104,0,1,1.406,,0,64,64,143,1,pseudoword,0,REAL,FALSA
,,,,,,,,,WS.11,001,2025-01-22_13h05.43.435,empathy_intonation_perc,2024.1.4,MacIntel,58.82352941,,,,,,,,,,,,,,76,chocar,,,,,,133.104,134.525,0,1,0.914,,0,65,65,75,1,non_cognate,1,REAL,FALSA
,,,,,,,,,WS.11,001,2025-01-22_13h05.43.435,empathy_intonation_perc,2024.1.4,MacIntel,58.82352941,,,,,,,,,,,,,,77,suave,,,,,,134.526,136.727,1,0,1.681,,0,66,66,76,1,non_cognate,1,REAL,FALSA
,,,,,,,,,WS.11,001,2025-01-22_13h05.43.435,empathy_intonation_perc,2024.1.4,MacIntel,58.82352941,,,,,,,,,,,,,,115,lidena,,,,,,136.727,137.928,0,1,0.68,,0,67,67,114,1,pseudoword,0,REAL,FALSA
,,,,,,,,,WS.11,001,2025-01-22_13h05.43.435,empathy_intonation_perc,2024.1.4,MacIntel,58.82352941,,,,,,,,,,,,,,140,chorde,,,,,,137.928,139.091,0,1,0.64,,0,68,68,139,1,pseudoword,0,REAL,FALSA
,,,,,,,,,WS.11,001,2025-01-22_13h05.43.435,empathy_intonation_perc,2024.1.4,MacIntel,58.82352941,,,,,,,,,,,,,,65,guerra,,,,,,139.091,140.612,1,0,1.013,,0,69,69,64,1,non_cognate,1,REAL,FALSA
,,,,,,,,,WS.11,001,2025-01-22_13h05.43.435,empathy_intonation_perc,2024.1.4,MacIntel,58.82352941,,,,,,,,,,,,,,15,test,,,,,,140.612,141.742,1,0,0.606,,0,70,70,14,1,three_way_cognate,1,REAL,FALSA
,,,,,,,,,WS.11,001,2025-01-22_13h05.43.435,empathy_intonation_perc,2024.1.4,MacIntel,58.82352941,,,,,,,,,,,,,,164,tecia,,,,,,141.743,143.014,0,1,0.746,,0,71,71,163,1,pseudoword,0,REAL,FALSA
,,,,,,,,,WS.11,001,2025-01-22_13h05.43.435,empathy_intonation_perc,2024.1.4,MacIntel,58.82352941,,,,,,,,,,,,,,177,entodo,,,,,,143.014,144.344,0,1,0.806,,0,72,72,176,1,pseudoword,0,REAL,FALSA
,,,,,,,,,WS.11,001,2025-01-22_13h05.43.435,empathy_intonation_perc,2024.1.4,MacIntel,58.82352941,,,,,,,,,,,,,,3,disco,,,,,,144.344,145.665,1,0,0.813,,0,73,73,2,1,three_way_cognate,1,REAL,FALSA
,,,,,,,,,WS.11,001,2025-01-22_13h05.43.435,empathy_intonation_perc,2024.1.4,MacIntel,58.82352941,,,,,,,,,,,,,,139,sasos,,,,,,145.666,146.715,1,0,0.529,,0,74,74,138,1,pseudoword,0,REAL,FALSA
,,,,,,,,,WS.11,001,2025-01-22_13h05.43.435,empathy_intonation_perc,2024.1.4,MacIntel,58.82352941,,,,,,,,,,,,,,130,dubo,,,,,,146.716,147.879,1,0,0.639,,0,75,75,129,1,pseudoword,0,REAL,FALSA
,,,,,,,,,WS.11,001,2025-01-22_13h05.43.435,empathy_intonation_perc,2024.1.4,MacIntel,58.82352941,,,,,,,,,,,,,,100,épinas,,,,,,147.88,149.531,0,1,1.118,,0,76,76,99,1,pseudoword,0,REAL,FALSA
,,,,,,,,,WS.11,001,2025-01-22_13h05.43.435,empathy_intonation_perc,2024.1.4,MacIntel,58.82352941,,,,,,,,,,,,,,45,total,,,,,,149.531,150.731,1,0,0.673,,0,77,77,44,1,two_way_cognate,1,REAL,FALSA
,,,,,,,,,WS.11,001,2025-01-22_13h05.43.435,empathy_intonation_perc,2024.1.4,MacIntel,58.82352941,,,,,,,,,,,,,,132,nocó,,,,,,150.731,151.915,0,1,0.672,,0,78,78,131,1,pseudoword,0,REAL,FALSA
,,,,,,,,,WS.11,001,2025-01-22_13h05.43.435,empathy_intonation_perc,2024.1.4,MacIntel,58.82352941,,,,,,,,,,,,,,165,chote,,,,,,151.915,153.337,0,1,0.913,,0,79,79,164,1,pseudoword,0,REAL,FALSA
,,,,,,,,,WS.11,001,2025-01-22_13h05.43.435,empathy_intonation_perc,2024.1.4,MacIntel,58.82352941,,,,,,,,,,,,,,172,dogue,,,,,,153.337,154.616,0,1,0.756,,0,80,80,171,1,pseudoword,0,REAL,FALSA
,,,,,,,,,WS.11,001,2025-01-22_13h05.43.435,empathy_intonation_perc,2024.1.4,MacIntel,58.82352941,,,,,,,,,,,,,,116,grigir,,,,,,154.617,155.687,0,1,0.546,,0,81,81,115,1,pseudoword,0,REAL,FALSA
,,,,,,,,,WS.11,001,2025-01-22_13h05.43.435,empathy_intonation_perc,2024.1.4,MacIntel,58.82352941,,,,,,,,,,,,,,73,llevar,,,,,,155.688,156.872,1,0,0.664,,0,82,82,72,1,non_cognate,1,REAL,FALSA
,,,,,,,,,WS.11,001,2025-01-22_13h05.43.435,empathy_intonation_perc,2024.1.4,MacIntel,58.82352941,,,,,,,,,,,,,,12,dogma,,,,,,156.872,158.002,1,0,0.605,,0,83,83,11,1,three_way_cognate,1,REAL,FALSA
,,,,,,,,,WS.11,001,2025-01-22_13h05.43.435,empathy_intonation_perc,2024.1.4,MacIntel,58.82352941,,,,,,,,,,,,,,168,cobén,,,,,,158.002,159.069,0,1,0.555,,0,84,84,167,1,pseudoword,0,REAL,FALSA
,,,,,,,,,WS.11,001,2025-01-22_13h05.43.435,empathy_intonation_perc,2024.1.4,MacIntel,58.82352941,,,,,,,,,,,,,,81,sacar,,,,,,159.069,160.057,1,0,0.479,,0,85,85,80,1,non_cognate,1,REAL,FALSA
,,,,,,,,,WS.11,001,2025-01-22_13h05.43.435,empathy_intonation_perc,2024.1.4,MacIntel,58.82352941,,,,,,,,,,,,,,94,forro,,,,,,160.057,161.224,0,1,0.648,,0,86,86,93,1,non_cognate,1,REAL,FALSA
,,,,,,,,,WS.11,001,2025-01-22_13h05.43.435,empathy_intonation_perc,2024.1.4,MacIntel,58.82352941,,,,,,,,,,,,,,54,tapón,,,,,,161.225,162.391,0,1,0.647,,0,87,87,53,1,non_cognate,1,REAL,FALSA
,,,,,,,,,WS.11,001,2025-01-22_13h05.43.435,empathy_intonation_perc,2024.1.4,MacIntel,58.82352941,,,,,,,,,,,,,,72,rostro,,,,,,162.392,163.538,1,0,0.623,,0,88,88,71,1,non_cognate,1,REAL,FALSA
,,,,,,,,,WS.11,001,2025-01-22_13h05.43.435,empathy_intonation_perc,2024.1.4,MacIntel,58.82352941,,,,,,,,,,,,,,58,colcha,,,,,,163.539,164.827,0,1,0.764,,0,89,89,57,1,non_cognate,1,REAL,FALSA
,,,,,,,,,WS.11,001,2025-01-22_13h05.43.435,empathy_intonation_perc,2024.1.4,MacIntel,58.82352941,,,,,,,,,,,,,,166,anfia,,,,,,164.827,166.106,0,1,0.756,,0,90,90,165,1,pseudoword,0,REAL,FALSA
,,,,,,,,,WS.11,001,2025-01-22_13h05.43.435,empathy_intonation_perc,2024.1.4,MacIntel,58.82352941,,,,,,,,,,,,,,158,babrá,,,,,,166.107,167.245,0,1,0.612,,0,91,91,157,1,pseudoword,0,REAL,FALSA
,,,,,,,,,WS.11,001,2025-01-22_13h05.43.435,empathy_intonation_perc,2024.1.4,MacIntel,58.82352941,,,,,,,,,,,,,,126,tobre,,,,,,167.245,168.324,0,1,0.555,,0,92,92,125,1,pseudoword,0,REAL,FALSA
,,,,,,,,,WS.11,001,2025-01-22_13h05.43.435,empathy_intonation_perc,2024.1.4,MacIntel,58.82352941,,,,,,,,,,,,,,145,rúo,,,,,,168.325,169.408,0,1,0.555,,0,93,93,144,1,pseudoword,0,REAL,FALSA
,,,,,,,,,WS.11,001,2025-01-22_13h05.43.435,empathy_intonation_perc,2024.1.4,MacIntel,58.82352941,,,,,,,,,,,,,,8,kilo,,,,,,169.409,170.379,0,1,0.464,,0,94,94,7,1,three_way_cognate,1,REAL,FALSA
,,,,,,,,,WS.11,001,2025-01-22_13h05.43.435,empathy_intonation_perc,2024.1.4,MacIntel,58.82352941,,,,,,,,,,,,,,188,amplir,,,,,,170.38,171.564,1,0,0.664,,0,95,95,187,1,pseudoword,0,REAL,FALSA
,,,,,,,,,WS.11,001,2025-01-22_13h05.43.435,empathy_intonation_perc,2024.1.4,MacIntel,58.82352941,,,,,,,,,,,,,,66,aleta,,,,,,171.564,172.944,1,0,0.857,,0,96,96,65,1,non_cognate,1,REAL,FALSA
,,,,,,,,,WS.11,001,2025-01-22_13h05.43.435,empathy_intonation_perc,2024.1.4,MacIntel,58.82352941,,,,,,,,,,,,,,112,samón,,,,,,172.944,174.082,1,0,0.629,,0,97,97,111,1,pseudoword,0,REAL,FALSA
,,,,,,,,,WS.11,001,2025-01-22_13h05.43.435,empathy_intonation_perc,2024.1.4,MacIntel,58.82352941,,,,,,,,,,,,,,131,fuar,,,,,,174.082,175.433,0,1,0.83,,0,98,98,130,1,pseudoword,0,REAL,FALSA
,,,,,,,,,WS.11,001,2025-01-22_13h05.43.435,empathy_intonation_perc,2024.1.4,MacIntel,58.82352941,,,,,,,,,,,,,,113,nasce,,,,,,175.433,176.784,0,1,0.83,,0,99,99,112,1,pseudoword,0,REAL,FALSA
,,,,,,,,,WS.11,001,2025-01-22_13h05.43.435,empathy_intonation_perc,2024.1.4,MacIntel,58.82352941,,,,,,,,,,,,,,99,bugor,,,,,,176.784,177.801,0,1,0.497,,0,100,100,98,1,pseudoword,0,REAL,FALSA
,,,,,,,,,WS.11,001,2025-01-22_13h05.43.435,empathy_intonation_perc,2024.1.4,MacIntel,58.82352941,,,,,,,,,,,,,,143,hurcos,,,,,,177.801,178.814,0,1,0.489,,0,101,101,142,1,pseudoword,0,REAL,FALSA
,,,,,,,,,WS.11,001,2025-01-22_13h05.43.435,empathy_intonation_perc,2024.1.4,MacIntel,58.82352941,,,,,,,,,,,,,,184,huenos,,,,,,178.815,180.053,0,1,0.714,,0,102,102,183,1,pseudoword,0,REAL,FALSA
,,,,,,,,,WS.11,001,2025-01-22_13h05.43.435,empathy_intonation_perc,2024.1.4,MacIntel,58.82352941,,,,,,,,,,,,,,104,estulo,,,,,,180.053,181.166,0,1,0.588,,0,103,103,103,1,pseudoword,0,REAL,FALSA
,,,,,,,,,WS.11,001,2025-01-22_13h05.43.435,empathy_intonation_perc,2024.1.4,MacIntel,58.82352941,,,,,,,,,,,,,,117,morrá,,,,,,181.166,182.337,0,1,0.648,,0,104,104,116,1,pseudoword,0,REAL,FALSA
,,,,,,,,,WS.11,001,2025-01-22_13h05.43.435,empathy_intonation_perc,2024.1.4,MacIntel,58.82352941,,,,,,,,,,,,,,163,llzan,,,,,,182.338,183.517,0,1,0.656,,0,105,105,162,1,pseudoword,0,REAL,FALSA
,,,,,,,,,WS.11,001,2025-01-22_13h05.43.435,empathy_intonation_perc,2024.1.4,MacIntel,58.82352941,,,,,,,,,,,,,,185,aljizo,,,,,,183.517,185.422,0,1,1.397,,0,106,106,184,1,pseudoword,0,REAL,FALSA
,,,,,,,,,WS.11,001,2025-01-22_13h05.43.435,empathy_intonation_perc,2024.1.4,MacIntel,58.82352941,,,,,,,,,,,,,,122,boñaz,,,,,,185.422,186.702,0,1,0.755,,0,107,107,121,1,pseudoword,0,REAL,FALSA
,,,,,,,,,WS.11,001,2025-01-22_13h05.43.435,empathy_intonation_perc,2024.1.4,MacIntel,58.82352941,,,,,,,,,,,,,,161,civas,,,,,,186.702,187.84,0,1,0.63,,0,108,108,160,1,pseudoword,0,REAL,FALSA
,,,,,,,,,WS.11,001,2025-01-22_13h05.43.435,empathy_intonation_perc,2024.1.4,MacIntel,58.82352941,,,,,,,,,,,,,,78,rendir,,,,,,187.84,189.141,1,0,0.78,,0,109,109,77,1,non_cognate,1,REAL,FALSA
,,,,,,,,,WS.11,001,2025-01-22_13h05.43.435,empathy_intonation_perc,2024.1.4,MacIntel,58.82352941,,,,,,,,,,,,,,181,gravés,,,,,,189.141,190.688,0,1,1.022,,0,110,110,180,1,pseudoword,0,REAL,FALSA
,,,,,,,,,WS.11,001,2025-01-22_13h05.43.435,empathy_intonation_perc,2024.1.4,MacIntel,58.82352941,,,,,,,,,,,,,,29,clamor,,,,,,190.688,191.888,0,1,0.688,,0,111,111,28,1,two_way_cognate,1,REAL,FALSA
,,,,,,,,,WS.11,001,2025-01-22_13h05.43.435,empathy_intonation_perc,2024.1.4,MacIntel,58.82352941,,,,,,,,,,,,,,170,diabo,,,,,,191.89,193.077,0,1,0.661,,0,112,112,169,1,pseudoword,0,REAL,FALSA
,,,,,,,,,WS.11,001,2025-01-22_13h05.43.435,empathy_intonation_perc,2024.1.4,MacIntel,58.82352941,,,,,,,,,,,,,,35,aurora,,,,,,193.078,194.14,1,0,0.539,,0,113,113,34,1,two_way_cognate,1,REAL,FALSA
,,,,,,,,,WS.11,001,2025-01-22_13h05.43.435,empathy_intonation_perc,2024.1.4,MacIntel,58.82352941,,,,,,,,,,,,,,186,rizate,,,,,,194.14,195.324,0,1,0.673,,0,114,114,185,1,pseudoword,0,REAL,FALSA
,,,,,,,,,WS.11,001,2025-01-22_13h05.43.435,empathy_intonation_perc,2024.1.4,MacIntel,58.82352941,,,,,,,,,,,,,,119,esís,,,,,,195.324,196.312,0,1,0.481,,0,115,115,118,1,pseudoword,0,REAL,FALSA
,,,,,,,,,WS.11,001,2025-01-22_13h05.43.435,empathy_intonation_perc,2024.1.4,MacIntel,58.82352941,,,,,,,,,,,,,,18,altar,,,,,,196.313,197.425,1,0,0.588,,0,116,116,17,1,three_way_cognate,1,REAL,FALSA
,,,,,,,,,WS.11,001,2025-01-22_13h05.43.435,empathy_intonation_perc,2024.1.4,MacIntel,58.82352941,,,,,,,,,,,,,,124,lobe,,,,,,197.425,198.863,0,1,0.932,,0,117,117,123,1,pseudoword,0,REAL,FALSA
,,,,,,,,,WS.11,001,2025-01-22_13h05.43.435,empathy_intonation_perc,2024.1.4,MacIntel,58.82352941,,,,,,,,,,,,,,167,dobbo,,,,,,198.863,199.914,0,1,0.53,,0,118,118,166,1,pseudoword,0,REAL,FALSA
,,,,,,,,,WS.11,001,2025-01-22_13h05.43.435,empathy_intonation_perc,2024.1.4,MacIntel,58.82352941,,,,,,,,,,,,,,22,mango,,,,,,199.915,201.249,0,1,0.814,,0,119,119,21,1,three_way_cognate,1,REAL,FALSA
,,,,,,,,,WS.11,001,2025-01-22_13h05.43.435,empathy_intonation_perc,2024.1.4,MacIntel,58.82352941,,,,,,,,,,,,,,114,dibrea,,,,,,201.25,202.328,0,1,0.557,,0,120,120,113,1,pseudoword,0,REAL,FALSA
,,,,,,,,,WS.11,001,2025-01-22_13h05.43.435,empathy_intonation_perc,2024.1.4,MacIntel,58.82352941,,,,,,,,,,,,,,27,piano,,,,,,202.328,203.445,1,0,0.608,,0,121,121,26,1,two_way_cognate,1,REAL,FALSA
,,,,,,,,,WS.11,001,2025-01-22_13h05.43.435,empathy_intonation_perc,2024.1.4,MacIntel,58.82352941,,,,,,,,,,,,,,56,pico,,,,,,203.446,204.517,0,1,0.548,,0,122,122,55,1,non_cognate,1,REAL,FALSA
,,,,,,,,,WS.11,001,2025-01-22_13h05.43.435,empathy_intonation_perc,2024.1.4,MacIntel,58.82352941,,,,,,,,,,,,,,83,hálito,,,,,,204.517,205.963,0,1,0.924,,0,123,123,82,1,non_cognate,1,REAL,FALSA
,,,,,,,,,WS.11,001,2025-01-22_13h05.43.435,empathy_intonation_perc,2024.1.4,MacIntel,58.82352941,,,,,,,,,,,,,,69,tiza,,,,,,205.964,207.068,0,1,0.581,,0,124,124,68,1,non_cognate,1,REAL,FALSA
,,,,,,,,,WS.11,001,2025-01-22_13h05.43.435,empathy_intonation_perc,2024.1.4,MacIntel,58.82352941,,,,,,,,,,,,,,1,moral,,,,,,207.068,208.198,1,0,0.607,,0,125,125,0,1,three_way_cognate,1,REAL,FALSA
,,,,,,,,,WS.11,001,2025-01-22_13h05.43.435,empathy_intonation_perc,2024.1.4,MacIntel,58.82352941,,,,,,,,,,,,,,136,hueas,,,,,,208.198,209.303,0,1,0.598,,0,126,126,135,1,pseudoword,0,REAL,FALSA
,,,,,,,,,WS.11,001,2025-01-22_13h05.43.435,empathy_intonation_perc,2024.1.4,MacIntel,58.82352941,,,,,,,,,,,,,,107,plago,,,,,,209.304,210.369,0,1,0.547,,0,127,127,106,1,pseudoword,0,REAL,FALSA
,,,,,,,,,WS.11,001,2025-01-22_13h05.43.435,empathy_intonation_perc,2024.1.4,MacIntel,58.82352941,,,,,,,,,,,,,,7,albino,,,,,,210.37,211.538,1,0,0.648,,0,128,128,6,1,three_way_cognate,1,REAL,FALSA
,,,,,,,,,WS.11,001,2025-01-22_13h05.43.435,empathy_intonation_perc,2024.1.4,MacIntel,58.82352941,,,,,,,,,,,,,,174,pabea,,,,,,211.539,212.571,0,1,0.513,,0,129,129,173,1,pseudoword,0,REAL,FALSA
,,,,,,,,,WS.11,001,2025-01-22_13h05.43.435,empathy_intonation_perc,2024.1.4,MacIntel,58.82352941,,,,,,,,,,,,,,159,trcia,,,,,,212.574,213.521,0,1,0.43,,0,130,130,158,1,pseudoword,0,REAL,FALSA
,,,,,,,,,WS.11,001,2025-01-22_13h05.43.435,empathy_intonation_perc,2024.1.4,MacIntel,58.82352941,,,,,,,,,,,,,,17,clan,,,,,,213.522,214.673,1,0,0.631,,0,131,131,16,1,three_way_cognate,1,REAL,FALSA
,,,,,,,,,WS.11,001,2025-01-22_13h05.43.435,empathy_intonation_perc,2024.1.4,MacIntel,58.82352941,,,,,,,,,,,,,,84,aviso,,,,,,214.673,216.006,1,0,0.814,,0,132,132,83,1,non_cognate,1,REAL,FALSA
,,,,,,,,,WS.11,001,2025-01-22_13h05.43.435,empathy_intonation_perc,2024.1.4,MacIntel,58.82352941,,,,,,,,,,,,,,173,mibro,,,,,,216.006,217.04,0,1,0.514,,0,133,133,172,1,pseudoword,0,REAL,FALSA
,,,,,,,,,WS.11,001,2025-01-22_13h05.43.435,empathy_intonation_perc,2024.1.4,MacIntel,58.82352941,,,,,,,,,,,,,,11,golf,,,,,,217.041,218.075,1,0,0.515,,0,134,134,10,1,three_way_cognate,1,REAL,FALSA
,,,,,,,,,WS.11,001,2025-01-22_13h05.43.435,empathy_intonation_perc,2024.1.4,MacIntel,58.82352941,,,,,,,,,,,,,,38,halo,,,,,,218.076,219.476,1,0,0.883,,0,135,135,37,1,two_way_cognate,1,REAL,FALSA
,,,,,,,,,WS.11,001,2025-01-22_13h05.43.435,empathy_intonation_perc,2024.1.4,MacIntel,58.82352941,,,,,,,,,,,,,,16,chat,,,,,,219.476,220.677,1,0,0.68,,0,136,136,15,1,three_way_cognate,1,REAL,FALSA
,,,,,,,,,WS.11,001,2025-01-22_13h05.43.435,empathy_intonation_perc,2024.1.4,MacIntel,58.82352941,,,,,,,,,,,,,,60,siglo,,,,,,220.677,221.727,1,0,0.531,,0,137,137,59,1,non_cognate,1,REAL,FALSA
,,,,,,,,,WS.11,001,2025-01-22_13h05.43.435,empathy_intonation_perc,2024.1.4,MacIntel,58.82352941,,,,,,,,,,,,,,4,flora,,,,,,221.727,222.694,1,0,0.448,,0,138,138,3,1,three_way_cognate,1,REAL,FALSA
,,,,,,,,,WS.11,001,2025-01-22_13h05.43.435,empathy_intonation_perc,2024.1.4,MacIntel,58.82352941,,,,,,,,,,,,,,57,regalo,,,,,,222.694,223.674,1,0,0.457,,0,139,139,56,1,non_cognate,1,REAL,FALSA
,,,,,,,,,WS.11,001,2025-01-22_13h05.43.435,empathy_intonation_perc,2024.1.4,MacIntel,58.82352941,,,,,,,,,,,,,,176,gripar,,,,,,223.674,224.608,1,0,0.423,,0,140,140,175,1,pseudoword,0,REAL,FALSA
,,,,,,,,,WS.11,001,2025-01-22_13h05.43.435,empathy_intonation_perc,2024.1.4,MacIntel,58.82352941,,,,,,,,,,,,,,178,inichó,,,,,,224.608,225.808,0,1,0.673,,0,141,141,177,1,pseudoword,0,REAL,FALSA
,,,,,,,,,WS.11,001,2025-01-22_13h05.43.435,empathy_intonation_perc,2024.1.4,MacIntel,58.82352941,,,,,,,,,,,,,,129,vinzó,,,,,,225.809,227.513,0,1,1.181,,0,142,142,128,1,pseudoword,0,REAL,FALSA
,,,,,,,,,WS.11,001,2025-01-22_13h05.43.435,empathy_intonation_perc,2024.1.4,MacIntel,58.82352941,,,,,,,,,,,,,,95,listo,,,,,,227.513,228.66,1,0,0.621,,0,143,143,94,1,non_cognate,1,REAL,FALSA
,,,,,,,,,WS.11,001,2025-01-22_13h05.43.435,empathy_intonation_perc,2024.1.4,MacIntel,58.82352941,,,,,,,,,,,,,,25,vigor,,,,,,228.66,229.694,1,0,0.522,,0,144,144,24,1,two_way_cognate,1,REAL,FALSA
,,,,,,,,,WS.11,001,2025-01-22_13h05.43.435,empathy_intonation_perc,2024.1.4,MacIntel,58.82352941,,,,,,,,,,,,,,6,horror,,,,,,229.694,230.711,1,0,0.506,,0,145,145,5,1,three_way_cognate,1,REAL,FALSA
,,,,,,,,,WS.11,001,2025-01-22_13h05.43.435,empathy_intonation_perc,2024.1.4,MacIntel,58.82352941,,,,,,,,,,,,,,191,frasis,,,,,,230.712,232.583,0,1,1.349,,0,146,146,190,1,pseudoword,0,REAL,FALSA
,,,,,,,,,WS.11,001,2025-01-22_13h05.43.435,empathy_intonation_perc,2024.1.4,MacIntel,58.82352941,,,,,,,,,,,,,,64,rizado,,,,,,232.583,233.95,1,0,0.847,,0,147,147,63,1,non_cognate,1,REAL,FALSA
,,,,,,,,,WS.11,001,2025-01-22_13h05.43.435,empathy_intonation_perc,2024.1.4,MacIntel,58.82352941,,,,,,,,,,,,,,135,panté,,,,,,233.951,235.135,0,1,0.665,,0,148,148,134,1,pseudoword,0,REAL,FALSA
,,,,,,,,,WS.11,001,2025-01-22_13h05.43.435,empathy_intonation_perc,2024.1.4,MacIntel,58.82352941,,,,,,,,,,,,,,133,conso,,,,,,235.135,236.414,0,1,0.755,,0,149,149,132,1,pseudoword,0,REAL,FALSA
,,,,,,,,,WS.11,001,2025-01-22_13h05.43.435,empathy_intonation_perc,2024.1.4,MacIntel,58.82352941,,,,,,,,,,,,,,134,molor,,,,,,236.415,237.765,0,1,0.839,,0,150,150,133,1,pseudoword,0,REAL,FALSA
,,,,,,,,,WS.11,001,2025-01-22_13h05.43.435,empathy_intonation_perc,2024.1.4,MacIntel,58.82352941,,,,,,,,,,,,,,70,ánimo,,,,,,237.766,238.853,1,0,0.563,,0,151,151,69,1,non_cognate,1,REAL,FALSA
,,,,,,,,,WS.11,001,2025-01-22_13h05.43.435,empathy_intonation_perc,2024.1.4,MacIntel,58.82352941,,,,,,,,,,,,,,28,ardor,,,,,,238.853,240.07,0,1,0.697,,0,152,152,27,1,two_way_cognate,1,REAL,FALSA
,,,,,,,,,WS.11,001,2025-01-22_13h05.43.435,empathy_intonation_perc,2024.1.4,MacIntel,58.82352941,,,,,,,,,,,,,,43,honor,,,,,,240.071,241.2,1,0,0.606,,0,153,153,42,1,two_way_cognate,1,REAL,FALSA
,,,,,,,,,WS.11,001,2025-01-22_13h05.43.435,empathy_intonation_perc,2024.1.4,MacIntel,58.82352941,,,,,,,,,,,,,,40,pelvis,,,,,,241.201,242.873,0,1,1.164,,0,154,154,39,1,two_way_cognate,1,REAL,FALSA
,,,,,,,,,WS.11,001,2025-01-22_13h05.43.435,empathy_intonation_perc,2024.1.4,MacIntel,58.82352941,,,,,,,,,,,,,,53,punta,,,,,,242.873,244.336,1,0,0.938,,0,155,155,52,1,non_cognate,1,REAL,FALSA
,,,,,,,,,WS.11,001,2025-01-22_13h05.43.435,empathy_intonation_perc,2024.1.4,MacIntel,58.82352941,,,,,,,,,,,,,,80,cuenco,,,,,,244.336,245.637,0,1,0.789,,0,156,156,79,1,non_cognate,1,REAL,FALSA
,,,,,,,,,WS.11,001,2025-01-22_13h05.43.435,empathy_intonation_perc,2024.1.4,MacIntel,58.82352941,,,,,,,,,,,,,,47,color,,,,,,245.637,246.737,1,0,0.572,,0,157,157,46,1,two_way_cognate,1,REAL,FALSA
,,,,,,,,,WS.11,001,2025-01-22_13h05.43.435,empathy_intonation_perc,2024.1.4,MacIntel,58.82352941,,,,,,,,,,,,,,152,prave,,,,,,246.738,247.842,0,1,0.581,,0,158,158,151,1,pseudoword,0,REAL,FALSA
,,,,,,,,,WS.11,001,2025-01-22_13h05.43.435,empathy_intonation_perc,2024.1.4,MacIntel,58.82352941,,,,,,,,,,,,,,68,puñal,,,,,,247.842,249.14,1,0,0.772,0.006,0,159,159,67,1,non_cognate,1,REAL,FALSA
,,,,,,,,,WS.11,001,2025-01-22_13h05.43.435,empathy_intonation_perc,2024.1.4,MacIntel,58.82352941,,,,,,,,,,,,,,147,alla,,,,,,249.14,250.361,1,0,0.698,,0,160,160,146,1,pseudoword,0,REAL,FALSA
,,,,,,,,,WS.11,001,2025-01-22_13h05.43.435,empathy_intonation_perc,2024.1.4,MacIntel,58.82352941,,,,,,,,,,,,,,148,gino,,,,,,250.362,251.59,1,0,0.707,,0,161,161,147,1,pseudoword,0,REAL,FALSA
,,,,,,,,,WS.11,001,2025-01-22_13h05.43.435,empathy_intonation_perc,2024.1.4,MacIntel,58.82352941,,,,,,,,,,,,,,33,collar,,,,,,251.59,252.745,1,0,0.647,,0,162,162,32,1,two_way_cognate,1,REAL,FALSA
,,,,,,,,,WS.11,001,2025-01-22_13h05.43.435,empathy_intonation_perc,2024.1.4,MacIntel,58.82352941,,,,,,,,,,,,,,111,monue,,,,,,252.745,253.829,1,0,0.563,,0,163,163,110,1,pseudoword,0,REAL,FALSA
,,,,,,,,,WS.11,001,2025-01-22_13h05.43.435,empathy_intonation_perc,2024.1.4,MacIntel,58.82352941,,,,,,,,,,,,,,92,flecha,,,,,,253.83,255.297,0,1,0.945,,0,164,164,91,1,non_cognate,1,REAL,FALSA
,,,,,,,,,WS.11,001,2025-01-22_13h05.43.435,empathy_intonation_perc,2024.1.4,MacIntel,58.82352941,,,,,,,,,,,,,,5,extra,,,,,,255.298,256.46,1,0,0.638,,0,165,165,4,1,three_way_cognate,1,REAL,FALSA
,,,,,,,,,WS.11,001,2025-01-22_13h05.43.435,empathy_intonation_perc,2024.1.4,MacIntel,58.82352941,,,,,,,,,,,,,,101,losco,,,,,,256.461,257.665,0,1,0.68,,0,166,166,100,1,pseudoword,0,REAL,FALSA
,,,,,,,,,WS.11,001,2025-01-22_13h05.43.435,empathy_intonation_perc,2024.1.4,MacIntel,58.82352941,,,,,,,,,,,,,,154,harvé,,,,,,257.665,258.865,0,1,0.68,,0,167,167,153,1,pseudoword,0,REAL,FALSA
,,,,,,,,,WS.11,001,2025-01-22_13h05.43.435,empathy_intonation_perc,2024.1.4,MacIntel,58.82352941,,,,,,,,,,,,,,2,tumor,,,,,,258.866,260.033,1,0,0.647,,0,168,168,1,1,three_way_cognate,1,REAL,FALSA
,,,,,,,,,WS.11,001,2025-01-22_13h05.43.435,empathy_intonation_perc,2024.1.4,MacIntel,58.82352941,,,,,,,,,,,,,,103,vueras,,,,,,260.033,261.162,0,1,0.606,,0,169,169,102,1,pseudoword,0,REAL,FALSA
,,,,,,,,,WS.11,001,2025-01-22_13h05.43.435,empathy_intonation_perc,2024.1.4,MacIntel,58.82352941,,,,,,,,,,,,,,97,nocita,,,,,,261.163,262.3,0,1,0.631,,0,170,170,96,1,pseudoword,0,REAL,FALSA
,,,,,,,,,WS.11,001,2025-01-22_13h05.43.435,empathy_intonation_perc,2024.1.4,MacIntel,58.82352941,,,,,,,,,,,,,,120,mauja,,,,,,262.3,263.235,0,1,0.413,,0,171,171,119,1,pseudoword,0,REAL,FALSA
,,,,,,,,,WS.11,001,2025-01-22_13h05.43.435,empathy_intonation_perc,2024.1.4,MacIntel,58.82352941,,,,,,,,,,,,,,34,actor,,,,,,263.236,264.369,1,0,0.612,,0,172,172,33,1,two_way_cognate,1,REAL,FALSA
,,,,,,,,,WS.11,001,2025-01-22_13h05.43.435,empathy_intonation_perc,2024.1.4,MacIntel,58.82352941,,,,,,,,,,,,,,182,desaro,,,,,,264.369,266.303,0,1,1.414,,0,173,173,181,1,pseudoword,0,REAL,FALSA
,,,,,,,,,WS.11,001,2025-01-22_13h05.43.435,empathy_intonation_perc,2024.1.4,MacIntel,58.82352941,,,,,,,,,,,,,,98,martir,,,,,,266.303,267.503,0,1,0.681,,0,174,174,97,1,pseudoword,0,REAL,FALSA
,,,,,,,,,WS.11,001,2025-01-22_13h05.43.435,empathy_intonation_perc,2024.1.4,MacIntel,58.82352941,,,,,,,,,,,,,,169,pitis,,,,,,267.507,268.5,0,1,0.474,,0,175,175,168,1,pseudoword,0,REAL,FALSA
,,,,,,,,,WS.11,001,2025-01-22_13h05.43.435,empathy_intonation_perc,2024.1.4,MacIntel,58.82352941,,,,,,,,,,,,,,153,golla,,,,,,268.5,269.655,0,1,0.646,,0,176,176,152,1,pseudoword,0,REAL,FALSA
,,,,,,,,,WS.11,001,2025-01-22_13h05.43.435,empathy_intonation_perc,2024.1.4,MacIntel,58.82352941,,,,,,,,,,,,,,149,emén,,,,,,269.655,270.689,0,1,0.514,,0,177,177,148,1,pseudoword,0,REAL,FALSA
,,,,,,,,,WS.11,001,2025-01-22_13h05.43.435,empathy_intonation_perc,2024.1.4,MacIntel,58.82352941,,,,,,,,,,,,,,125,ceme,,,,,,270.689,271.635,0,1,0.424,,0,178,178,124,1,pseudoword,0,REAL,FALSA
,,,,,,,,,WS.11,001,2025-01-22_13h05.43.435,empathy_intonation_perc,2024.1.4,MacIntel,58.82352941,,,,,,,,,,,,,,23,plural,,,,,,271.635,272.89,1,0,0.748,,0,179,179,22,1,three_way_cognate,1,REAL,FALSA
,,,,,,,,,WS.11,001,2025-01-22_13h05.43.435,empathy_intonation_perc,2024.1.4,MacIntel,58.82352941,,,,,,,,,,,,,,75,patada,,,,,,272.89,274.637,0,1,1.224,,0,180,180,74,1,non_cognate,1,REAL,FALSA
,,,,,,,,,WS.11,001,2025-01-22_13h05.43.435,empathy_intonation_perc,2024.1.4,MacIntel,58.82352941,,,,,,,,,,,,,,36,viable,,,,,,274.637,276.043,0,1,0.898,,0,181,181,35,1,two_way_cognate,1,REAL,FALSA
,,,,,,,,,WS.11,001,2025-01-22_13h05.43.435,empathy_intonation_perc,2024.1.4,MacIntel,58.82352941,,,,,,,,,,,,,,42,rumor,,,,,,276.043,277.172,1,0,0.605,,0,182,182,41,1,two_way_cognate,1,REAL,FALSA
,,,,,,,,,WS.11,001,2025-01-22_13h05.43.435,empathy_intonation_perc,2024.1.4,MacIntel,58.82352941,,,,,,,,,,,,,,190,asumie,,,,,,277.172,278.279,0,1,0.601,,0,183,183,189,1,pseudoword,0,REAL,FALSA
,,,,,,,,,WS.11,001,2025-01-22_13h05.43.435,empathy_intonation_perc,2024.1.4,MacIntel,58.82352941,,,,,,,,,,,,,,89,muñeca,,,,,,278.28,279.373,1,0,0.571,,0,184,184,88,1,non_cognate,1,REAL,FALSA
,,,,,,,,,WS.11,001,2025-01-22_13h05.43.435,empathy_intonation_perc,2024.1.4,MacIntel,58.82352941,,,,,,,,,,,,,,118,bará,,,,,,279.374,280.511,0,1,0.615,,0,185,185,117,1,pseudoword,0,REAL,FALSA
,,,,,,,,,WS.11,001,2025-01-22_13h05.43.435,empathy_intonation_perc,2024.1.4,MacIntel,58.82352941,,,,,,,,,,,,,,63,hilo,,,,,,280.511,281.524,0,1,0.49,,0,186,186,62,1,non_cognate,1,REAL,FALSA
,,,,,,,,,WS.11,001,2025-01-22_13h05.43.435,empathy_intonation_perc,2024.1.4,MacIntel,58.82352941,,,,,,,,,,,,,,61,aduana,,,,,,281.525,282.692,0,1,0.64,,0,187,187,60,1,non_cognate,1,REAL,FALSA
,,,,,,,,,WS.11,001,2025-01-22_13h05.43.435,empathy_intonation_perc,2024.1.4,MacIntel,58.82352941,,,,,,,,,,,,,,102,coyo,,,,,,282.692,284.263,0,1,1.065,,0,188,188,101,1,pseudoword,0,REAL,FALSA
,,,,,,,,,WS.11,001,2025-01-22_13h05.43.435,empathy_intonation_perc,2024.1.4,MacIntel,58.82352941,,,,,,,,,,,,,,14,aura,,,,,,284.263,285.897,0,1,1.114,,0,189,189,13,1,three_way_cognate,1,REAL,FALSA
,,,,,,,,,WS.11,001,2025-01-22_13h05.43.435,empathy_intonation_perc,2024.1.4,MacIntel,58.82352941,,,,,,,,,,,,,,180,pupica,,,,,,285.897,287.044,0,1,0.622,,0,190,190,179,1,pseudoword,0,REAL,FALSA
,,,,,,,,,WS.11,001,2025-01-22_13h05.43.435,empathy_intonation_perc,2024.1.4,MacIntel,58.82352941,,,,,,,,,,,,,,187,nomata,,,,,,287.045,288.245,0,1,0.673,,0,191,191,186,1,pseudoword,0,REAL,FALSA
