lextale_instructions.started,lextale_instructions.stopped,lextale_instructions_loop.thisRepN,lextale_instructions_loop.thisTrialN,lextale_instructions_loop.thisN,lextale_instructions_loop.thisIndex,lextale_instructions_loop.ran,instructions_text,continue_text,participant,session,date,expName,psychopyVersion,OS,frameRate,lextale_practice.started,lextale_practice.stopped,key_resp_lextale_practice.keys,key_resp_lextale_practice.corr,key_resp_lextale_practice.rt,key_resp_lextale_practice.duration,lextale_practice_feedback.started,lextale_practice_feedback.stopped,lextale_practice_trials.thisRepN,lextale_practice_trials.thisTrialN,lextale_practice_trials.thisN,lextale_practice_trials.thisIndex,lextale_practice_trials.ran,stim,word,correct_response,prac_button_real,prac_button_false,lextale_check.started,lextale_check.stopped,lextale_trial.started,lextale_trial.stopped,key_resp_lextale_trial.keys,key_resp_lextale_trial.corr,key_resp_lextale_trial.rt,key_resp_lextale_trial.duration,lextail_trials.thisRepN,lextail_trials.thisTrialN,lextail_trials.thisN,lextail_trials.thisIndex,lextail_trials.ran,type,correct_reponse,button_real,button_false
0.0115,49.8345,0,0,0,0,1,"Este es un test de vocabulario en español. 
  
  A continuación vas a ver 90 secuencias de letras que parecen 'españolas'.
  
  Solo algunas de ellas son palabras de verdad.",(presiona la barra espaciadora para continuar),ws06,001,2025-01-22_12h46.52.781,empathy_intonation_perc,2024.1.4,Win32,30.03003003,,,,,,,,,,,,,,,,,,,,,,,,,,,,,,,,,,,
49.836,117.9319,0,1,1,1,1,"Por favor, señala las palabras que tú conoces (aquellas que estás convencido que son palabras españolas, incluso aunque no seas capaz de dar el significado preciso).",(presiona la barra espaciadora para continuar),ws06,001,2025-01-22_12h46.52.781,empathy_intonation_perc,2024.1.4,Win32,30.03003003,,,,,,,,,,,,,,,,,,,,,,,,,,,,,,,,,,,
117.9328,122.6979,0,2,2,2,1,Pero cuidado: los errores se penalizan. Por eso no tiene sentido tratar de incrementar tu puntuación marcando como reales palabras que nunca has visto.,(presiona la barra espaciadora para continuar),ws06,001,2025-01-22_12h46.52.781,empathy_intonation_perc,2024.1.4,Win32,30.03003003,,,,,,,,,,,,,,,,,,,,,,,,,,,,,,,,,,,
122.6988,128.4316,0,3,3,3,1,"Presiona la tecla 1 si piensas que es una palabra real y la tecla 
  0 si piensas que es una palabra falsa. 
  
  Vamos a practicar un poco...",(presiona la barra espaciadora para continuar),ws06,001,2025-01-22_12h46.52.781,empathy_intonation_perc,2024.1.4,Win32,30.03003003,,,,,,,,,,,,,,,,,,,,,,,,,,,,,,,,,,,
,,,,,,,,,ws06,001,2025-01-22_12h46.52.781,empathy_intonation_perc,2024.1.4,Win32,30.03003003,128.4352,132.9015,0,1,3.9163,,132.9017,133.899,0,0,0,0,1,0,depiste,0,REAL,FALSA,,,,,,,,,,,,,,,,,
,,,,,,,,,ws06,001,2025-01-22_12h46.52.781,empathy_intonation_perc,2024.1.4,Win32,30.03003003,133.9005,136.3986,1,1,1.9264,,136.3988,137.3983,0,1,1,1,1,0,sí,1,REAL,FALSA,,,,,,,,,,,,,,,,,
,,,,,,,,,ws06,001,2025-01-22_12h46.52.781,empathy_intonation_perc,2024.1.4,Win32,30.03003003,137.3993,139.1973,0,1,1.2466,,139.1974,140.1983,0,2,2,2,1,0,coné,0,REAL,FALSA,,,,,,,,,,,,,,,,,
,,,,,,,,,ws06,001,2025-01-22_12h46.52.781,empathy_intonation_perc,2024.1.4,Win32,30.03003003,140.1995,142.1646,1,0,1.3955,,142.1647,143.1649,0,3,3,3,1,0,calpar,0,REAL,FALSA,,,,,,,,,,,,,,,,,
,,,,,,,,,ws06,001,2025-01-22_12h46.52.781,empathy_intonation_perc,2024.1.4,Win32,30.03003003,143.1666,144.8977,0,1,1.1795,,144.8978,145.8982,0,4,4,4,1,0,joten,0,REAL,FALSA,,,,,,,,,,,,,,,,,
,,,,,,,,,ws06,001,2025-01-22_12h46.52.781,empathy_intonation_perc,2024.1.4,Win32,30.03003003,145.8993,147.3646,1,1,0.9066,,147.3648,148.3638,0,5,5,5,1,0,sacapuntas,1,REAL,FALSA,,,,,,,,,,,,,,,,,
,,,,,,,,,ws06,001,2025-01-22_12h46.52.781,empathy_intonation_perc,2024.1.4,Win32,30.03003003,148.3645,149.9637,0,1,1.0742,,149.9639,150.9648,0,6,6,6,1,0,priba,0,REAL,FALSA,,,,,,,,,,,,,,,,,
,,,,,,,,,ws06,001,2025-01-22_12h46.52.781,empathy_intonation_perc,2024.1.4,Win32,30.03003003,150.9661,153.5983,0,1,2.0614,,153.5985,154.5814,0,7,7,7,1,0,pelasula,0,REAL,FALSA,,,,,,,,,,,,,,,,,
,,,,,,,,,ws06,001,2025-01-22_12h46.52.781,empathy_intonation_perc,2024.1.4,Win32,30.03003003,154.5828,155.7136,1,1,0.5763,,155.7137,156.7152,0,8,8,8,1,0,bien,1,REAL,FALSA,,,,,,,,,,,,,,,,,
,,,,,,,,,ws06,001,2025-01-22_12h46.52.781,empathy_intonation_perc,2024.1.4,Win32,30.03003003,156.7167,157.9148,1,1,0.6396,,157.9149,158.9145,0,9,9,9,1,0,casa,1,REAL,FALSA,,,,,,,,,,,,,,,,,
,,,,,,,,,ws06,001,2025-01-22_12h46.52.781,empathy_intonation_perc,2024.1.4,Win32,30.03003003,158.9158,160.5478,0,1,1.0699,,160.548,161.5477,0,10,10,10,1,0,lejo,0,REAL,FALSA,,,,,,,,,,,,,,,,,
,,,,,,,,,ws06,001,2025-01-22_12h46.52.781,empathy_intonation_perc,2024.1.4,Win32,30.03003003,161.5485,164.447,1,0,2.3469,,164.4472,165.448,0,11,11,11,1,0,pretantas,0,REAL,FALSA,,,,,,,,,,,,,,,,,
,,,,,,,,,ws06,001,2025-01-22_12h46.52.781,empathy_intonation_perc,2024.1.4,Win32,30.03003003,,,,,,,,,,,,,,,,,,,165.4491,169.4145,,,,,,,,,,,,,,,
,,,,,,,,,ws06,001,2025-01-22_12h46.52.781,empathy_intonation_perc,2024.1.4,Win32,30.03003003,,,,,,,,,,,,,,104,estulo,,,,,,169.4257,171.5149,1,0,1.5357,,0,0,0,103,1,pseudoword,0,REAL,FALSA
,,,,,,,,,ws06,001,2025-01-22_12h46.52.781,empathy_intonation_perc,2024.1.4,Win32,30.03003003,,,,,,,,,,,,,,130,dubo,,,,,,171.5157,173.6809,0,1,1.6084,,0,1,1,129,1,pseudoword,0,REAL,FALSA
,,,,,,,,,ws06,001,2025-01-22_12h46.52.781,empathy_intonation_perc,2024.1.4,Win32,30.03003003,,,,,,,,,,,,,,117,morrá,,,,,,173.6819,176.2477,0,1,2.0098,,0,2,2,116,1,pseudoword,0,REAL,FALSA
,,,,,,,,,ws06,001,2025-01-22_12h46.52.781,empathy_intonation_perc,2024.1.4,Win32,30.03003003,,,,,,,,,,,,,,60,siglo,,,,,,176.2487,177.5143,1,0,0.6959,,0,3,3,59,1,non_cognate,1,REAL,FALSA
,,,,,,,,,ws06,001,2025-01-22_12h46.52.781,empathy_intonation_perc,2024.1.4,Win32,30.03003003,,,,,,,,,,,,,,69,tiza,,,,,,177.5158,178.8475,1,0,0.7665,,0,4,4,68,1,non_cognate,1,REAL,FALSA
,,,,,,,,,ws06,001,2025-01-22_12h46.52.781,empathy_intonation_perc,2024.1.4,Win32,30.03003003,,,,,,,,,,,,,,12,dogma,,,,,,178.8488,180.3138,1,0,0.9084,,0,5,5,11,1,three_way_cognate,1,REAL,FALSA
,,,,,,,,,ws06,001,2025-01-22_12h46.52.781,empathy_intonation_perc,2024.1.4,Win32,30.03003003,,,,,,,,,,,,,,63,hilo,,,,,,180.3148,181.4481,1,0,0.5783,,0,6,6,62,1,non_cognate,1,REAL,FALSA
,,,,,,,,,ws06,001,2025-01-22_12h46.52.781,empathy_intonation_perc,2024.1.4,Win32,30.03003003,,,,,,,,,,,,,,15,test,,,,,,181.4487,183.513,1,0,1.5149,,0,7,7,14,1,three_way_cognate,1,REAL,FALSA
,,,,,,,,,ws06,001,2025-01-22_12h46.52.781,empathy_intonation_perc,2024.1.4,Win32,30.03003003,,,,,,,,,,,,,,111,monue,,,,,,183.5137,184.9809,0,1,0.9351,,0,8,8,110,1,pseudoword,0,REAL,FALSA
,,,,,,,,,ws06,001,2025-01-22_12h46.52.781,empathy_intonation_perc,2024.1.4,Win32,30.03003003,,,,,,,,,,,,,,119,esís,,,,,,184.9819,186.68,0,1,1.147,,0,9,9,118,1,pseudoword,0,REAL,FALSA
,,,,,,,,,ws06,001,2025-01-22_12h46.52.781,empathy_intonation_perc,2024.1.4,Win32,30.03003003,,,,,,,,,,,,,,113,nasce,,,,,,186.6806,188.5133,0,1,1.2809,,0,10,10,112,1,pseudoword,0,REAL,FALSA
,,,,,,,,,ws06,001,2025-01-22_12h46.52.781,empathy_intonation_perc,2024.1.4,Win32,30.03003003,,,,,,,,,,,,,,67,llamar,,,,,,188.5143,189.6139,1,0,0.5398,,0,11,11,66,1,non_cognate,1,REAL,FALSA
,,,,,,,,,ws06,001,2025-01-22_12h46.52.781,empathy_intonation_perc,2024.1.4,Win32,30.03003003,,,,,,,,,,,,,,180,pupica,,,,,,189.615,190.947,1,0,0.7778,,0,12,12,179,1,pseudoword,0,REAL,FALSA
,,,,,,,,,ws06,001,2025-01-22_12h46.52.781,empathy_intonation_perc,2024.1.4,Win32,30.03003003,,,,,,,,,,,,,,185,aljizo,,,,,,190.948,192.3474,1,0,0.8313,,0,13,13,184,1,pseudoword,0,REAL,FALSA
,,,,,,,,,ws06,001,2025-01-22_12h46.52.781,empathy_intonation_perc,2024.1.4,Win32,30.03003003,,,,,,,,,,,,,,9,portal,,,,,,192.3486,193.5144,1,0,0.6165,,0,14,14,8,1,three_way_cognate,1,REAL,FALSA
,,,,,,,,,ws06,001,2025-01-22_12h46.52.781,empathy_intonation_perc,2024.1.4,Win32,30.03003003,,,,,,,,,,,,,,178,inichó,,,,,,193.5149,195.4194,0,1,1.3546,,0,15,15,177,1,pseudoword,0,REAL,FALSA
,,,,,,,,,ws06,001,2025-01-22_12h46.52.781,empathy_intonation_perc,2024.1.4,Win32,30.03003003,,,,,,,,,,,,,,99,bugor,,,,,,195.4201,197.2134,0,1,1.247,,0,16,16,98,1,pseudoword,0,REAL,FALSA
,,,,,,,,,ws06,001,2025-01-22_12h46.52.781,empathy_intonation_perc,2024.1.4,Win32,30.03003003,,,,,,,,,,,,,,128,pelí,,,,,,197.2142,199.5172,0,1,1.7546,,0,17,17,127,1,pseudoword,0,REAL,FALSA
,,,,,,,,,ws06,001,2025-01-22_12h46.52.781,empathy_intonation_perc,2024.1.4,Win32,30.03003003,,,,,,,,,,,,,,160,fomeó,,,,,,199.5177,202.0804,1,0,2.006,,0,18,18,159,1,pseudoword,0,REAL,FALSA
,,,,,,,,,ws06,001,2025-01-22_12h46.52.781,empathy_intonation_perc,2024.1.4,Win32,30.03003003,,,,,,,,,,,,,,46,mortal,,,,,,202.0813,203.5469,1,0,0.9114,,0,19,19,45,1,two_way_cognate,1,REAL,FALSA
,,,,,,,,,ws06,001,2025-01-22_12h46.52.781,empathy_intonation_perc,2024.1.4,Win32,30.03003003,,,,,,,,,,,,,,54,tapón,,,,,,203.5474,204.7801,1,0,0.6781,,0,20,20,53,1,non_cognate,1,REAL,FALSA
,,,,,,,,,ws06,001,2025-01-22_12h46.52.781,empathy_intonation_perc,2024.1.4,Win32,30.03003003,,,,,,,,,,,,,,95,listo,,,,,,204.781,206.0154,1,0,0.6667,,0,21,21,94,1,non_cognate,1,REAL,FALSA
,,,,,,,,,ws06,001,2025-01-22_12h46.52.781,empathy_intonation_perc,2024.1.4,Win32,30.03003003,,,,,,,,,,,,,,43,honor,,,,,,206.016,207.281,1,0,0.703,,0,22,22,42,1,two_way_cognate,1,REAL,FALSA
,,,,,,,,,ws06,001,2025-01-22_12h46.52.781,empathy_intonation_perc,2024.1.4,Win32,30.03003003,,,,,,,,,,,,,,120,mauja,,,,,,207.2824,208.9809,0,1,1.1308,,0,23,23,119,1,pseudoword,0,REAL,FALSA
,,,,,,,,,ws06,001,2025-01-22_12h46.52.781,empathy_intonation_perc,2024.1.4,Win32,30.03003003,,,,,,,,,,,,,,76,chocar,,,,,,208.9816,210.3142,1,0,0.7639,,0,24,24,75,1,non_cognate,1,REAL,FALSA
,,,,,,,,,ws06,001,2025-01-22_12h46.52.781,empathy_intonation_perc,2024.1.4,Win32,30.03003003,,,,,,,,,,,,,,173,mibro,,,,,,210.3152,211.8471,0,1,0.9719,,0,25,25,172,1,pseudoword,0,REAL,FALSA
,,,,,,,,,ws06,001,2025-01-22_12h46.52.781,empathy_intonation_perc,2024.1.4,Win32,30.03003003,,,,,,,,,,,,,,20,trauma,,,,,,211.8482,213.1136,1,0,0.6985,,0,26,26,19,1,three_way_cognate,1,REAL,FALSA
,,,,,,,,,ws06,001,2025-01-22_12h46.52.781,empathy_intonation_perc,2024.1.4,Win32,30.03003003,,,,,,,,,,,,,,137,trugo,,,,,,213.1153,214.5836,0,1,0.9199,,0,27,27,136,1,pseudoword,0,REAL,FALSA
,,,,,,,,,ws06,001,2025-01-22_12h46.52.781,empathy_intonation_perc,2024.1.4,Win32,30.03003003,,,,,,,,,,,,,,152,prave,,,,,,214.5842,216.0463,0,1,0.904,,0,28,28,151,1,pseudoword,0,REAL,FALSA
,,,,,,,,,ws06,001,2025-01-22_12h46.52.781,empathy_intonation_perc,2024.1.4,Win32,30.03003003,,,,,,,,,,,,,,51,listo,,,,,,216.0474,217.1464,1,0,0.5486,,0,29,29,50,1,non_cognate,1,REAL,FALSA
,,,,,,,,,ws06,001,2025-01-22_12h46.52.781,empathy_intonation_perc,2024.1.4,Win32,30.03003003,,,,,,,,,,,,,,81,sacar,,,,,,217.1472,218.2797,1,0,0.5787,,0,30,30,80,1,non_cognate,1,REAL,FALSA
,,,,,,,,,ws06,001,2025-01-22_12h46.52.781,empathy_intonation_perc,2024.1.4,Win32,30.03003003,,,,,,,,,,,,,,22,mango,,,,,,218.2803,219.2805,1,0,0.4742,,0,31,31,21,1,three_way_cognate,1,REAL,FALSA
,,,,,,,,,ws06,001,2025-01-22_12h46.52.781,empathy_intonation_perc,2024.1.4,Win32,30.03003003,,,,,,,,,,,,,,98,martir,,,,,,219.2813,220.4459,1,0,0.6164,,0,32,32,97,1,pseudoword,0,REAL,FALSA
,,,,,,,,,ws06,001,2025-01-22_12h46.52.781,empathy_intonation_perc,2024.1.4,Win32,30.03003003,,,,,,,,,,,,,,65,guerra,,,,,,220.4465,221.5801,1,0,0.5641,,0,33,33,64,1,non_cognate,1,REAL,FALSA
,,,,,,,,,ws06,001,2025-01-22_12h46.52.781,empathy_intonation_perc,2024.1.4,Win32,30.03003003,,,,,,,,,,,,,,135,panté,,,,,,221.5811,223.0136,0,1,0.8651,,0,34,34,134,1,pseudoword,0,REAL,FALSA
,,,,,,,,,ws06,001,2025-01-22_12h46.52.781,empathy_intonation_perc,2024.1.4,Win32,30.03003003,,,,,,,,,,,,,,29,clamor,,,,,,223.0148,224.1491,1,0,0.5837,,0,35,35,28,1,two_way_cognate,1,REAL,FALSA
,,,,,,,,,ws06,001,2025-01-22_12h46.52.781,empathy_intonation_perc,2024.1.4,Win32,30.03003003,,,,,,,,,,,,,,186,rizate,,,,,,224.1497,226.513,0,1,1.8011,,0,36,36,185,1,pseudoword,0,REAL,FALSA
,,,,,,,,,ws06,001,2025-01-22_12h46.52.781,empathy_intonation_perc,2024.1.4,Win32,30.03003003,,,,,,,,,,,,,,30,fiscal,,,,,,226.5142,227.7469,1,0,0.6698,,0,37,37,29,1,two_way_cognate,1,REAL,FALSA
,,,,,,,,,ws06,001,2025-01-22_12h46.52.781,empathy_intonation_perc,2024.1.4,Win32,30.03003003,,,,,,,,,,,,,,154,harvé,,,,,,227.748,229.1803,0,1,0.865,,0,38,38,153,1,pseudoword,0,REAL,FALSA
,,,,,,,,,ws06,001,2025-01-22_12h46.52.781,empathy_intonation_perc,2024.1.4,Win32,30.03003003,,,,,,,,,,,,,,167,dobbo,,,,,,229.1813,230.4469,0,1,0.6967,,0,39,39,166,1,pseudoword,0,REAL,FALSA
,,,,,,,,,ws06,001,2025-01-22_12h46.52.781,empathy_intonation_perc,2024.1.4,Win32,30.03003003,,,,,,,,,,,,,,115,lidena,,,,,,230.448,231.8133,0,1,0.8024,,0,40,40,114,1,pseudoword,0,REAL,FALSA
,,,,,,,,,ws06,001,2025-01-22_12h46.52.781,empathy_intonation_perc,2024.1.4,Win32,30.03003003,,,,,,,,,,,,,,139,sasos,,,,,,231.8144,233.313,0,1,0.941,,0,41,41,138,1,pseudoword,0,REAL,FALSA
,,,,,,,,,ws06,001,2025-01-22_12h46.52.781,empathy_intonation_perc,2024.1.4,Win32,30.03003003,,,,,,,,,,,,,,127,vien,,,,,,233.314,234.6133,0,1,0.7383,,0,42,42,126,1,pseudoword,0,REAL,FALSA
,,,,,,,,,ws06,001,2025-01-22_12h46.52.781,empathy_intonation_perc,2024.1.4,Win32,30.03003003,,,,,,,,,,,,,,42,rumor,,,,,,234.6144,235.8132,1,0,0.638,,0,43,43,41,1,two_way_cognate,1,REAL,FALSA
,,,,,,,,,ws06,001,2025-01-22_12h46.52.781,empathy_intonation_perc,2024.1.4,Win32,30.03003003,,,,,,,,,,,,,,102,coyo,,,,,,235.8142,237.1852,0,1,0.8212,,0,44,44,101,1,pseudoword,0,REAL,FALSA
,,,,,,,,,ws06,001,2025-01-22_12h46.52.781,empathy_intonation_perc,2024.1.4,Win32,30.03003003,,,,,,,,,,,,,,162,cengo,,,,,,237.1857,238.5474,0,1,0.7959,,0,45,45,161,1,pseudoword,0,REAL,FALSA
,,,,,,,,,ws06,001,2025-01-22_12h46.52.781,empathy_intonation_perc,2024.1.4,Win32,30.03003003,,,,,,,,,,,,,,36,viable,,,,,,238.5482,239.7126,1,0,0.5974,,0,46,46,35,1,two_way_cognate,1,REAL,FALSA
,,,,,,,,,ws06,001,2025-01-22_12h46.52.781,empathy_intonation_perc,2024.1.4,Win32,30.03003003,,,,,,,,,,,,,,26,enigma,,,,,,239.7135,240.8461,1,0,0.5767,,0,47,47,25,1,two_way_cognate,1,REAL,FALSA
,,,,,,,,,ws06,001,2025-01-22_12h46.52.781,empathy_intonation_perc,2024.1.4,Win32,30.03003003,,,,,,,,,,,,,,146,gió,,,,,,240.8468,242.0801,0,1,0.6631,,0,48,48,145,1,pseudoword,0,REAL,FALSA
,,,,,,,,,ws06,001,2025-01-22_12h46.52.781,empathy_intonation_perc,2024.1.4,Win32,30.03003003,,,,,,,,,,,,,,68,puñal,,,,,,242.082,243.2795,1,0,0.6448,,0,49,49,67,1,non_cognate,1,REAL,FALSA
,,,,,,,,,ws06,001,2025-01-22_12h46.52.781,empathy_intonation_perc,2024.1.4,Win32,30.03003003,,,,,,,,,,,,,,121,barbs,,,,,,243.2802,244.8467,0,1,0.9977,,0,50,50,120,1,pseudoword,0,REAL,FALSA
,,,,,,,,,ws06,001,2025-01-22_12h46.52.781,empathy_intonation_perc,2024.1.4,Win32,30.03003003,,,,,,,,,,,,,,49,teñir,,,,,,244.8479,246.415,1,0,0.9959,,0,51,51,48,1,non_cognate,1,REAL,FALSA
,,,,,,,,,ws06,001,2025-01-22_12h46.52.781,empathy_intonation_perc,2024.1.4,Win32,30.03003003,,,,,,,,,,,,,,156,ozoso,,,,,,246.417,247.9123,1,0,0.9462,,0,52,52,155,1,pseudoword,0,REAL,FALSA
,,,,,,,,,ws06,001,2025-01-22_12h46.52.781,empathy_intonation_perc,2024.1.4,Win32,30.03003003,,,,,,,,,,,,,,83,hálito,,,,,,247.9129,249.3463,0,1,0.8784,,0,53,53,82,1,non_cognate,1,REAL,FALSA
,,,,,,,,,ws06,001,2025-01-22_12h46.52.781,empathy_intonation_perc,2024.1.4,Win32,30.03003003,,,,,,,,,,,,,,145,rúo,,,,,,249.3469,250.6469,0,1,0.7327,,0,54,54,144,1,pseudoword,0,REAL,FALSA
,,,,,,,,,ws06,001,2025-01-22_12h46.52.781,empathy_intonation_perc,2024.1.4,Win32,30.03003003,,,,,,,,,,,,,,176,gripar,,,,,,250.6477,251.913,1,0,0.6975,,0,55,55,175,1,pseudoword,0,REAL,FALSA
,,,,,,,,,ws06,001,2025-01-22_12h46.52.781,empathy_intonation_perc,2024.1.4,Win32,30.03003003,,,,,,,,,,,,,,16,chat,,,,,,251.9142,252.9797,1,0,0.4977,,0,56,56,15,1,three_way_cognate,1,REAL,FALSA
,,,,,,,,,ws06,001,2025-01-22_12h46.52.781,empathy_intonation_perc,2024.1.4,Win32,30.03003003,,,,,,,,,,,,,,109,laras,,,,,,252.9808,254.4134,0,1,0.8735,,0,57,57,108,1,pseudoword,0,REAL,FALSA
,,,,,,,,,ws06,001,2025-01-22_12h46.52.781,empathy_intonation_perc,2024.1.4,Win32,30.03003003,,,,,,,,,,,,,,19,mafia,,,,,,254.4143,255.5457,1,0,0.5767,,0,58,58,18,1,three_way_cognate,1,REAL,FALSA
,,,,,,,,,ws06,001,2025-01-22_12h46.52.781,empathy_intonation_perc,2024.1.4,Win32,30.03003003,,,,,,,,,,,,,,183,edioso,,,,,,255.5466,256.8463,0,1,0.7318,,0,59,59,182,1,pseudoword,0,REAL,FALSA
,,,,,,,,,ws06,001,2025-01-22_12h46.52.781,empathy_intonation_perc,2024.1.4,Win32,30.03003003,,,,,,,,,,,,,,101,losco,,,,,,256.8474,258.1457,0,1,0.7468,,0,60,60,100,1,pseudoword,0,REAL,FALSA
,,,,,,,,,ws06,001,2025-01-22_12h46.52.781,empathy_intonation_perc,2024.1.4,Win32,30.03003003,,,,,,,,,,,,,,35,aurora,,,,,,258.1469,259.3463,1,0,0.6294,,0,61,61,34,1,two_way_cognate,1,REAL,FALSA
,,,,,,,,,ws06,001,2025-01-22_12h46.52.781,empathy_intonation_perc,2024.1.4,Win32,30.03003003,,,,,,,,,,,,,,177,entodo,,,,,,259.3473,260.8123,0,1,0.9121,,0,62,62,176,1,pseudoword,0,REAL,FALSA
,,,,,,,,,ws06,001,2025-01-22_12h46.52.781,empathy_intonation_perc,2024.1.4,Win32,30.03003003,,,,,,,,,,,,,,1,moral,,,,,,260.813,262.3792,1,0,0.9977,,0,63,63,0,1,three_way_cognate,1,REAL,FALSA
,,,,,,,,,ws06,001,2025-01-22_12h46.52.781,empathy_intonation_perc,2024.1.4,Win32,30.03003003,,,,,,,,,,,,,,86,cuenco,,,,,,262.3804,263.5474,1,0,0.6175,,0,64,64,85,1,non_cognate,1,REAL,FALSA
,,,,,,,,,ws06,001,2025-01-22_12h46.52.781,empathy_intonation_perc,2024.1.4,Win32,30.03003003,,,,,,,,,,,,,,71,torta,,,,,,263.5479,264.6126,1,0,0.5097,,0,65,65,70,1,non_cognate,1,REAL,FALSA
,,,,,,,,,ws06,001,2025-01-22_12h46.52.781,empathy_intonation_perc,2024.1.4,Win32,30.03003003,,,,,,,,,,,,,,39,casual,,,,,,264.6135,265.6825,1,0,0.5218,,0,66,66,38,1,two_way_cognate,1,REAL,FALSA
,,,,,,,,,ws06,001,2025-01-22_12h46.52.781,empathy_intonation_perc,2024.1.4,Win32,30.03003003,,,,,,,,,,,,,,14,aura,,,,,,265.6831,266.746,1,0,0.5036,,0,67,67,13,1,three_way_cognate,1,REAL,FALSA
,,,,,,,,,ws06,001,2025-01-22_12h46.52.781,empathy_intonation_perc,2024.1.4,Win32,30.03003003,,,,,,,,,,,,,,90,venado,,,,,,266.747,267.8796,1,0,0.5617,,0,68,68,89,1,non_cognate,1,REAL,FALSA
,,,,,,,,,ws06,001,2025-01-22_12h46.52.781,empathy_intonation_perc,2024.1.4,Win32,30.03003003,,,,,,,,,,,,,,187,nomata,,,,,,267.8809,269.7123,0,1,1.2675,,0,69,69,186,1,pseudoword,0,REAL,FALSA
,,,,,,,,,ws06,001,2025-01-22_12h46.52.781,empathy_intonation_perc,2024.1.4,Win32,30.03003003,,,,,,,,,,,,,,174,pabea,,,,,,269.713,271.0794,1,0,0.7956,,0,70,70,173,1,pseudoword,0,REAL,FALSA
,,,,,,,,,ws06,001,2025-01-22_12h46.52.781,empathy_intonation_perc,2024.1.4,Win32,30.03003003,,,,,,,,,,,,,,161,civas,,,,,,271.0804,272.3446,0,1,0.6974,,0,71,71,160,1,pseudoword,0,REAL,FALSA
,,,,,,,,,ws06,001,2025-01-22_12h46.52.781,empathy_intonation_perc,2024.1.4,Win32,30.03003003,,,,,,,,,,,,,,105,peniz,,,,,,272.345,273.6829,0,1,0.8221,,0,72,72,104,1,pseudoword,0,REAL,FALSA
,,,,,,,,,ws06,001,2025-01-22_12h46.52.781,empathy_intonation_perc,2024.1.4,Win32,30.03003003,,,,,,,,,,,,,,89,muñeca,,,,,,273.6837,275.282,1,0,1.0541,,0,73,73,88,1,non_cognate,1,REAL,FALSA
,,,,,,,,,ws06,001,2025-01-22_12h46.52.781,empathy_intonation_perc,2024.1.4,Win32,30.03003003,,,,,,,,,,,,,,3,disco,,,,,,275.2826,276.5788,1,0,0.744,,0,74,74,2,1,three_way_cognate,1,REAL,FALSA
,,,,,,,,,ws06,001,2025-01-22_12h46.52.781,empathy_intonation_perc,2024.1.4,Win32,30.03003003,,,,,,,,,,,,,,164,tecia,,,,,,276.5794,277.9458,0,1,0.8088,,0,75,75,163,1,pseudoword,0,REAL,FALSA
,,,,,,,,,ws06,001,2025-01-22_12h46.52.781,empathy_intonation_perc,2024.1.4,Win32,30.03003003,,,,,,,,,,,,,,158,babrá,,,,,,277.9467,279.8456,0,1,1.3429,,0,76,76,157,1,pseudoword,0,REAL,FALSA
,,,,,,,,,ws06,001,2025-01-22_12h46.52.781,empathy_intonation_perc,2024.1.4,Win32,30.03003003,,,,,,,,,,,,,,93,tapa,,,,,,279.8465,280.9459,1,0,0.5287,,0,77,77,92,1,non_cognate,1,REAL,FALSA
,,,,,,,,,ws06,001,2025-01-22_12h46.52.781,empathy_intonation_perc,2024.1.4,Win32,30.03003003,,,,,,,,,,,,,,136,hueas,,,,,,280.9469,282.2122,0,1,0.6982,,0,78,78,135,1,pseudoword,0,REAL,FALSA
,,,,,,,,,ws06,001,2025-01-22_12h46.52.781,empathy_intonation_perc,2024.1.4,Win32,30.03003003,,,,,,,,,,,,,,79,suelo,,,,,,282.2132,283.4454,1,0,0.6638,,0,79,79,78,1,non_cognate,1,REAL,FALSA
,,,,,,,,,ws06,001,2025-01-22_12h46.52.781,empathy_intonation_perc,2024.1.4,Win32,30.03003003,,,,,,,,,,,,,,134,molor,,,,,,283.4463,284.9798,0,1,0.9765,,0,80,80,133,1,pseudoword,0,REAL,FALSA
,,,,,,,,,ws06,001,2025-01-22_12h46.52.781,empathy_intonation_perc,2024.1.4,Win32,30.03003003,,,,,,,,,,,,,,84,aviso,,,,,,284.9804,286.1126,1,0,0.5619,,0,81,81,83,1,non_cognate,1,REAL,FALSA
,,,,,,,,,ws06,001,2025-01-22_12h46.52.781,empathy_intonation_perc,2024.1.4,Win32,30.03003003,,,,,,,,,,,,,,181,gravés,,,,,,286.1136,287.4453,0,1,0.762,,0,82,82,180,1,pseudoword,0,REAL,FALSA
,,,,,,,,,ws06,001,2025-01-22_12h46.52.781,empathy_intonation_perc,2024.1.4,Win32,30.03003003,,,,,,,,,,,,,,151,prías,,,,,,287.4462,288.7785,0,1,0.7826,,0,83,83,150,1,pseudoword,0,REAL,FALSA
,,,,,,,,,ws06,001,2025-01-22_12h46.52.781,empathy_intonation_perc,2024.1.4,Win32,30.03003003,,,,,,,,,,,,,,73,llevar,,,,,,288.7793,289.8125,1,0,0.4634,,0,84,84,72,1,non_cognate,1,REAL,FALSA
,,,,,,,,,ws06,001,2025-01-22_12h46.52.781,empathy_intonation_perc,2024.1.4,Win32,30.03003003,,,,,,,,,,,,,,75,patada,,,,,,289.8137,290.9792,0,1,0.5994,,0,85,85,74,1,non_cognate,1,REAL,FALSA
,,,,,,,,,ws06,001,2025-01-22_12h46.52.781,empathy_intonation_perc,2024.1.4,Win32,30.03003003,,,,,,,,,,,,,,189,medium,,,,,,290.9806,293.6452,1,0,2.1137,,0,86,86,188,1,pseudoword,0,REAL,FALSA
,,,,,,,,,ws06,001,2025-01-22_12h46.52.781,empathy_intonation_perc,2024.1.4,Win32,30.03003003,,,,,,,,,,,,,,70,ánimo,,,,,,293.6459,294.8128,1,0,0.6059,,0,87,87,69,1,non_cognate,1,REAL,FALSA
,,,,,,,,,ws06,001,2025-01-22_12h46.52.781,empathy_intonation_perc,2024.1.4,Win32,30.03003003,,,,,,,,,,,,,,184,huenos,,,,,,294.8135,296.2454,0,1,0.8798,,0,88,88,183,1,pseudoword,0,REAL,FALSA
,,,,,,,,,ws06,001,2025-01-22_12h46.52.781,empathy_intonation_perc,2024.1.4,Win32,30.03003003,,,,,,,,,,,,,,66,aleta,,,,,,296.2461,298.1122,1,0,1.3043,,0,89,89,65,1,non_cognate,1,REAL,FALSA
,,,,,,,,,ws06,001,2025-01-22_12h46.52.781,empathy_intonation_perc,2024.1.4,Win32,30.03003003,,,,,,,,,,,,,,28,ardor,,,,,,298.1132,299.2457,1,0,0.5619,,0,90,90,27,1,two_way_cognate,1,REAL,FALSA
,,,,,,,,,ws06,001,2025-01-22_12h46.52.781,empathy_intonation_perc,2024.1.4,Win32,30.03003003,,,,,,,,,,,,,,132,nocó,,,,,,299.2467,300.5442,0,1,0.7408,,0,91,91,131,1,pseudoword,0,REAL,FALSA
,,,,,,,,,ws06,001,2025-01-22_12h46.52.781,empathy_intonation_perc,2024.1.4,Win32,30.03003003,,,,,,,,,,,,,,133,conso,,,,,,300.5447,302.3112,0,1,1.2222,,0,92,92,132,1,pseudoword,0,REAL,FALSA
,,,,,,,,,ws06,001,2025-01-22_12h46.52.781,empathy_intonation_perc,2024.1.4,Win32,30.03003003,,,,,,,,,,,,,,166,anfia,,,,,,302.3119,303.6115,0,1,0.7809,,0,93,93,165,1,pseudoword,0,REAL,FALSA
,,,,,,,,,ws06,001,2025-01-22_12h46.52.781,empathy_intonation_perc,2024.1.4,Win32,30.03003003,,,,,,,,,,,,,,190,asumie,,,,,,303.6123,304.9784,0,1,0.8137,,0,94,94,189,1,pseudoword,0,REAL,FALSA
,,,,,,,,,ws06,001,2025-01-22_12h46.52.781,empathy_intonation_perc,2024.1.4,Win32,30.03003003,,,,,,,,,,,,,,34,actor,,,,,,304.979,306.4457,1,0,0.8982,,0,95,95,33,1,two_way_cognate,1,REAL,FALSA
,,,,,,,,,ws06,001,2025-01-22_12h46.52.781,empathy_intonation_perc,2024.1.4,Win32,30.03003003,,,,,,,,,,,,,,44,editor,,,,,,306.447,307.5792,1,0,0.5618,,0,96,96,43,1,two_way_cognate,1,REAL,FALSA
,,,,,,,,,ws06,001,2025-01-22_12h46.52.781,empathy_intonation_perc,2024.1.4,Win32,30.03003003,,,,,,,,,,,,,,169,pitis,,,,,,307.5801,309.9458,0,1,1.7962,,0,97,97,168,1,pseudoword,0,REAL,FALSA
,,,,,,,,,ws06,001,2025-01-22_12h46.52.781,empathy_intonation_perc,2024.1.4,Win32,30.03003003,,,,,,,,,,,,,,171,gotro,,,,,,309.9469,311.279,0,1,0.7627,,0,98,98,170,1,pseudoword,0,REAL,FALSA
,,,,,,,,,ws06,001,2025-01-22_12h46.52.781,empathy_intonation_perc,2024.1.4,Win32,30.03003003,,,,,,,,,,,,,,100,épinas,,,,,,311.2802,312.7119,0,1,0.8754,,0,99,99,99,1,pseudoword,0,REAL,FALSA
,,,,,,,,,ws06,001,2025-01-22_12h46.52.781,empathy_intonation_perc,2024.1.4,Win32,30.03003003,,,,,,,,,,,,,,175,tradía,,,,,,312.7129,314.6785,0,1,1.3984,,0,100,100,174,1,pseudoword,0,REAL,FALSA
,,,,,,,,,ws06,001,2025-01-22_12h46.52.781,empathy_intonation_perc,2024.1.4,Win32,30.03003003,,,,,,,,,,,,,,58,colcha,,,,,,314.6797,316.0785,1,0,0.8265,,0,101,101,57,1,non_cognate,1,REAL,FALSA
,,,,,,,,,ws06,001,2025-01-22_12h46.52.781,empathy_intonation_perc,2024.1.4,Win32,30.03003003,,,,,,,,,,,,,,148,gino,,,,,,316.0797,317.4454,0,1,0.802,,0,102,102,147,1,pseudoword,0,REAL,FALSA
,,,,,,,,,ws06,001,2025-01-22_12h46.52.781,empathy_intonation_perc,2024.1.4,Win32,30.03003003,,,,,,,,,,,,,,87,muleta,,,,,,317.4466,318.8116,1,0,0.8092,,0,103,103,86,1,non_cognate,1,REAL,FALSA
,,,,,,,,,ws06,001,2025-01-22_12h46.52.781,empathy_intonation_perc,2024.1.4,Win32,30.03003003,,,,,,,,,,,,,,11,golf,,,,,,318.8127,319.9448,1,0,0.5635,,0,104,104,10,1,three_way_cognate,1,REAL,FALSA
,,,,,,,,,ws06,001,2025-01-22_12h46.52.781,empathy_intonation_perc,2024.1.4,Win32,30.03003003,,,,,,,,,,,,,,94,forro,,,,,,319.9459,321.1452,1,0,0.6354,,0,105,105,93,1,non_cognate,1,REAL,FALSA
,,,,,,,,,ws06,001,2025-01-22_12h46.52.781,empathy_intonation_perc,2024.1.4,Win32,30.03003003,,,,,,,,,,,,,,37,torso,,,,,,321.1462,322.3114,1,0,0.5979,,0,106,106,36,1,two_way_cognate,1,REAL,FALSA
,,,,,,,,,ws06,001,2025-01-22_12h46.52.781,empathy_intonation_perc,2024.1.4,Win32,30.03003003,,,,,,,,,,,,,,4,flora,,,,,,322.3124,323.4782,1,0,0.5996,,0,107,107,3,1,three_way_cognate,1,REAL,FALSA
,,,,,,,,,ws06,001,2025-01-22_12h46.52.781,empathy_intonation_perc,2024.1.4,Win32,30.03003003,,,,,,,,,,,,,,85,enorme,,,,,,323.4791,324.6113,1,0,0.5648,,0,108,108,84,1,non_cognate,1,REAL,FALSA
,,,,,,,,,ws06,001,2025-01-22_12h46.52.781,empathy_intonation_perc,2024.1.4,Win32,30.03003003,,,,,,,,,,,,,,143,hurcos,,,,,,324.6123,325.6453,1,0,0.4728,,0,109,109,142,1,pseudoword,0,REAL,FALSA
,,,,,,,,,ws06,001,2025-01-22_12h46.52.781,empathy_intonation_perc,2024.1.4,Win32,30.03003003,,,,,,,,,,,,,,147,alla,,,,,,325.6462,327.4782,0,1,1.2748,,0,110,110,146,1,pseudoword,0,REAL,FALSA
,,,,,,,,,ws06,001,2025-01-22_12h46.52.781,empathy_intonation_perc,2024.1.4,Win32,30.03003003,,,,,,,,,,,,,,77,suave,,,,,,327.4792,328.5784,1,0,0.5318,,0,111,111,76,1,non_cognate,1,REAL,FALSA
,,,,,,,,,ws06,001,2025-01-22_12h46.52.781,empathy_intonation_perc,2024.1.4,Win32,30.03003003,,,,,,,,,,,,,,124,lobe,,,,,,328.5796,330.0785,0,1,0.9289,,0,112,112,123,1,pseudoword,0,REAL,FALSA
,,,,,,,,,ws06,001,2025-01-22_12h46.52.781,empathy_intonation_perc,2024.1.4,Win32,30.03003003,,,,,,,,,,,,,,155,kugis,,,,,,330.0797,331.8444,0,1,1.2162,,0,113,113,154,1,pseudoword,0,REAL,FALSA
,,,,,,,,,ws06,001,2025-01-22_12h46.52.781,empathy_intonation_perc,2024.1.4,Win32,30.03003003,,,,,,,,,,,,,,50,sierra,,,,,,331.8453,333.3121,1,0,0.9043,,0,114,114,49,1,non_cognate,1,REAL,FALSA
,,,,,,,,,ws06,001,2025-01-22_12h46.52.781,empathy_intonation_perc,2024.1.4,Win32,30.03003003,,,,,,,,,,,,,,74,ala,,,,,,333.3127,334.4781,1,0,0.5999,,0,115,115,73,1,non_cognate,1,REAL,FALSA
,,,,,,,,,ws06,001,2025-01-22_12h46.52.781,empathy_intonation_perc,2024.1.4,Win32,30.03003003,,,,,,,,,,,,,,21,hotel,,,,,,334.4793,335.5787,1,0,0.5335,,0,116,116,20,1,three_way_cognate,1,REAL,FALSA
,,,,,,,,,ws06,001,2025-01-22_12h46.52.781,empathy_intonation_perc,2024.1.4,Win32,30.03003003,,,,,,,,,,,,,,5,extra,,,,,,335.5796,336.6447,1,0,0.5142,,0,117,117,4,1,three_way_cognate,1,REAL,FALSA
,,,,,,,,,ws06,001,2025-01-22_12h46.52.781,empathy_intonation_perc,2024.1.4,Win32,30.03003003,,,,,,,,,,,,,,88,percha,,,,,,336.6454,337.9113,1,0,0.7042,,0,118,118,87,1,non_cognate,1,REAL,FALSA
,,,,,,,,,ws06,001,2025-01-22_12h46.52.781,empathy_intonation_perc,2024.1.4,Win32,30.03003003,,,,,,,,,,,,,,32,animal,,,,,,337.9123,339.0107,1,0,0.5289,,0,119,119,31,1,two_way_cognate,1,REAL,FALSA
,,,,,,,,,ws06,001,2025-01-22_12h46.52.781,empathy_intonation_perc,2024.1.4,Win32,30.03003003,,,,,,,,,,,,,,38,halo,,,,,,339.0113,340.1787,1,0,0.6322,,0,120,120,37,1,two_way_cognate,1,REAL,FALSA
,,,,,,,,,ws06,001,2025-01-22_12h46.52.781,empathy_intonation_perc,2024.1.4,Win32,30.03003003,,,,,,,,,,,,,,55,maldad,,,,,,340.1798,341.4453,1,0,0.6974,,0,121,121,54,1,non_cognate,1,REAL,FALSA
,,,,,,,,,ws06,001,2025-01-22_12h46.52.781,empathy_intonation_perc,2024.1.4,Win32,30.03003003,,,,,,,,,,,,,,52,blando,,,,,,341.4464,342.6778,1,0,0.6634,,0,122,122,51,1,non_cognate,1,REAL,FALSA
,,,,,,,,,ws06,001,2025-01-22_12h46.52.781,empathy_intonation_perc,2024.1.4,Win32,30.03003003,,,,,,,,,,,,,,153,golla,,,,,,342.679,343.8779,0,1,0.6453,,0,123,123,152,1,pseudoword,0,REAL,FALSA
,,,,,,,,,ws06,001,2025-01-22_12h46.52.781,empathy_intonation_perc,2024.1.4,Win32,30.03003003,,,,,,,,,,,,,,144,diroco,,,,,,343.8786,346.4127,1,0,1.9847,,0,124,124,143,1,pseudoword,0,REAL,FALSA
,,,,,,,,,ws06,001,2025-01-22_12h46.52.781,empathy_intonation_perc,2024.1.4,Win32,30.03003003,,,,,,,,,,,,,,40,pelvis,,,,,,346.4132,347.5784,1,0,0.6183,,0,125,125,39,1,two_way_cognate,1,REAL,FALSA
,,,,,,,,,ws06,001,2025-01-22_12h46.52.781,empathy_intonation_perc,2024.1.4,Win32,30.03003003,,,,,,,,,,,,,,10,drama,,,,,,347.5796,348.6109,1,0,0.4749,,0,126,126,9,1,three_way_cognate,1,REAL,FALSA
,,,,,,,,,ws06,001,2025-01-22_12h46.52.781,empathy_intonation_perc,2024.1.4,Win32,30.03003003,,,,,,,,,,,,,,7,albino,,,,,,348.6115,350.6115,1,0,1.4334,,0,127,127,6,1,three_way_cognate,1,REAL,FALSA
,,,,,,,,,ws06,001,2025-01-22_12h46.52.781,empathy_intonation_perc,2024.1.4,Win32,30.03003003,,,,,,,,,,,,,,107,plago,,,,,,350.6124,352.1119,0,1,0.9303,,0,128,128,106,1,pseudoword,0,REAL,FALSA
,,,,,,,,,ws06,001,2025-01-22_12h46.52.781,empathy_intonation_perc,2024.1.4,Win32,30.03003003,,,,,,,,,,,,,,108,jauda,,,,,,352.1129,353.4447,1,0,0.7777,,0,129,129,107,1,pseudoword,0,REAL,FALSA
,,,,,,,,,ws06,001,2025-01-22_12h46.52.781,empathy_intonation_perc,2024.1.4,Win32,30.03003003,,,,,,,,,,,,,,18,altar,,,,,,353.4454,354.5784,1,0,0.5673,,0,130,130,17,1,three_way_cognate,1,REAL,FALSA
,,,,,,,,,ws06,001,2025-01-22_12h46.52.781,empathy_intonation_perc,2024.1.4,Win32,30.03003003,,,,,,,,,,,,,,25,vigor,,,,,,354.5793,355.7114,1,0,0.5704,,0,131,131,24,1,two_way_cognate,1,REAL,FALSA
,,,,,,,,,ws06,001,2025-01-22_12h46.52.781,empathy_intonation_perc,2024.1.4,Win32,30.03003003,,,,,,,,,,,,,,33,collar,,,,,,355.7124,356.7443,1,0,0.4723,,0,132,132,32,1,two_way_cognate,1,REAL,FALSA
,,,,,,,,,ws06,001,2025-01-22_12h46.52.781,empathy_intonation_perc,2024.1.4,Win32,30.03003003,,,,,,,,,,,,,,47,color,,,,,,356.7452,357.8108,1,0,0.5076,,0,133,133,46,1,two_way_cognate,1,REAL,FALSA
,,,,,,,,,ws06,001,2025-01-22_12h46.52.781,empathy_intonation_perc,2024.1.4,Win32,30.03003003,,,,,,,,,,,,,,129,vinzó,,,,,,357.8119,359.2449,0,1,0.8656,,0,134,134,128,1,pseudoword,0,REAL,FALSA
,,,,,,,,,ws06,001,2025-01-22_12h46.52.781,empathy_intonation_perc,2024.1.4,Win32,30.03003003,,,,,,,,,,,,,,23,plural,,,,,,359.246,360.3115,1,0,0.4986,,0,135,135,22,1,three_way_cognate,1,REAL,FALSA
,,,,,,,,,ws06,001,2025-01-22_12h46.52.781,empathy_intonation_perc,2024.1.4,Win32,30.03003003,,,,,,,,,,,,,,97,nocita,,,,,,360.3127,361.6103,0,1,0.7496,,0,136,136,96,1,pseudoword,0,REAL,FALSA
,,,,,,,,,ws06,001,2025-01-22_12h46.52.781,empathy_intonation_perc,2024.1.4,Win32,30.03003003,,,,,,,,,,,,,,27,piano,,,,,,361.6112,362.5815,1,0,0.4226,,0,137,137,26,1,two_way_cognate,1,REAL,FALSA
,,,,,,,,,ws06,001,2025-01-22_12h46.52.781,empathy_intonation_perc,2024.1.4,Win32,30.03003003,,,,,,,,,,,,,,24,retina,,,,,,362.5823,363.8145,1,0,0.688,,0,138,138,23,1,three_way_cognate,1,REAL,FALSA
,,,,,,,,,ws06,001,2025-01-22_12h46.52.781,empathy_intonation_perc,2024.1.4,Win32,30.03003003,,,,,,,,,,,,,,122,boñaz,,,,,,363.8154,365.0448,0,1,0.6641,,0,139,139,121,1,pseudoword,0,REAL,FALSA
,,,,,,,,,ws06,001,2025-01-22_12h46.52.781,empathy_intonation_perc,2024.1.4,Win32,30.03003003,,,,,,,,,,,,,,188,amplir,,,,,,365.046,366.6107,0,1,1.014,,0,140,140,187,1,pseudoword,0,REAL,FALSA
,,,,,,,,,ws06,001,2025-01-22_12h46.52.781,empathy_intonation_perc,2024.1.4,Win32,30.03003003,,,,,,,,,,,,,,112,samón,,,,,,366.6115,368.1776,0,1,1.0082,,0,141,141,111,1,pseudoword,0,REAL,FALSA
,,,,,,,,,ws06,001,2025-01-22_12h46.52.781,empathy_intonation_perc,2024.1.4,Win32,30.03003003,,,,,,,,,,,,,,125,ceme,,,,,,368.1784,369.4139,0,1,0.6829,,0,142,142,124,1,pseudoword,0,REAL,FALSA
,,,,,,,,,ws06,001,2025-01-22_12h46.52.781,empathy_intonation_perc,2024.1.4,Win32,30.03003003,,,,,,,,,,,,,,168,cobén,,,,,,369.4144,370.6443,0,1,0.6692,,0,143,143,167,1,pseudoword,0,REAL,FALSA
,,,,,,,,,ws06,001,2025-01-22_12h46.52.781,empathy_intonation_perc,2024.1.4,Win32,30.03003003,,,,,,,,,,,,,,172,dogue,,,,,,370.6452,371.8777,0,1,0.668,,0,144,144,171,1,pseudoword,0,REAL,FALSA
,,,,,,,,,ws06,001,2025-01-22_12h46.52.781,empathy_intonation_perc,2024.1.4,Win32,30.03003003,,,,,,,,,,,,,,13,plan,,,,,,371.8788,372.9773,1,0,0.5361,,0,145,145,12,1,three_way_cognate,1,REAL,FALSA
,,,,,,,,,ws06,001,2025-01-22_12h46.52.781,empathy_intonation_perc,2024.1.4,Win32,30.03003003,,,,,,,,,,,,,,114,dibrea,,,,,,372.9781,374.4447,0,1,0.8978,,0,146,146,113,1,pseudoword,0,REAL,FALSA
,,,,,,,,,ws06,001,2025-01-22_12h46.52.781,empathy_intonation_perc,2024.1.4,Win32,30.03003003,,,,,,,,,,,,,,138,tator,,,,,,374.4458,375.7455,0,1,0.7449,,0,147,147,137,1,pseudoword,0,REAL,FALSA
,,,,,,,,,ws06,001,2025-01-22_12h46.52.781,empathy_intonation_perc,2024.1.4,Win32,30.03003003,,,,,,,,,,,,,,131,fuar,,,,,,375.7462,377.2111,0,1,0.904,,0,148,148,130,1,pseudoword,0,REAL,FALSA
,,,,,,,,,ws06,001,2025-01-22_12h46.52.781,empathy_intonation_perc,2024.1.4,Win32,30.03003003,,,,,,,,,,,,,,150,cricó,,,,,,377.212,378.478,0,1,0.7015,,0,149,149,149,1,pseudoword,0,REAL,FALSA
,,,,,,,,,ws06,001,2025-01-22_12h46.52.781,empathy_intonation_perc,2024.1.4,Win32,30.03003003,,,,,,,,,,,,,,192,próces,,,,,,378.479,380.1434,0,1,1.1139,,0,150,150,191,1,pseudoword,0,REAL,FALSA
,,,,,,,,,ws06,001,2025-01-22_12h46.52.781,empathy_intonation_perc,2024.1.4,Win32,30.03003003,,,,,,,,,,,,,,140,chorde,,,,,,380.1443,381.4445,0,1,0.7319,,0,151,151,139,1,pseudoword,0,REAL,FALSA
,,,,,,,,,ws06,001,2025-01-22_12h46.52.781,empathy_intonation_perc,2024.1.4,Win32,30.03003003,,,,,,,,,,,,,,191,frasis,,,,,,381.4457,382.7446,0,1,0.732,,0,152,152,190,1,pseudoword,0,REAL,FALSA
,,,,,,,,,ws06,001,2025-01-22_12h46.52.781,empathy_intonation_perc,2024.1.4,Win32,30.03003003,,,,,,,,,,,,,,96,caro,,,,,,382.7456,384.5108,1,0,1.209,,0,153,153,95,1,non_cognate,1,REAL,FALSA
,,,,,,,,,ws06,001,2025-01-22_12h46.52.781,empathy_intonation_perc,2024.1.4,Win32,30.03003003,,,,,,,,,,,,,,72,rostro,,,,,,384.5116,385.6127,1,0,0.5546,,0,154,154,71,1,non_cognate,1,REAL,FALSA
,,,,,,,,,ws06,001,2025-01-22_12h46.52.781,empathy_intonation_perc,2024.1.4,Win32,30.03003003,,,,,,,,,,,,,,165,chote,,,,,,385.6132,387.011,0,1,0.8312,,0,155,155,164,1,pseudoword,0,REAL,FALSA
,,,,,,,,,ws06,001,2025-01-22_12h46.52.781,empathy_intonation_perc,2024.1.4,Win32,30.03003003,,,,,,,,,,,,,,64,rizado,,,,,,387.0126,388.1111,1,0,0.5307,,0,156,156,63,1,non_cognate,1,REAL,FALSA
,,,,,,,,,ws06,001,2025-01-22_12h46.52.781,empathy_intonation_perc,2024.1.4,Win32,30.03003003,,,,,,,,,,,,,,103,vueras,,,,,,388.1121,389.4776,0,1,0.7996,,0,157,157,102,1,pseudoword,0,REAL,FALSA
,,,,,,,,,ws06,001,2025-01-22_12h46.52.781,empathy_intonation_perc,2024.1.4,Win32,30.03003003,,,,,,,,,,,,,,170,diabo,,,,,,389.4788,390.7777,1,0,0.7296,,0,158,158,169,1,pseudoword,0,REAL,FALSA
,,,,,,,,,ws06,001,2025-01-22_12h46.52.781,empathy_intonation_perc,2024.1.4,Win32,30.03003003,,,,,,,,,,,,,,126,tobre,,,,,,390.7789,392.0776,0,1,0.735,,0,159,159,125,1,pseudoword,0,REAL,FALSA
,,,,,,,,,ws06,001,2025-01-22_12h46.52.781,empathy_intonation_perc,2024.1.4,Win32,30.03003003,,,,,,,,,,,,,,56,pico,,,,,,392.0787,393.3442,1,0,0.7034,,0,160,160,55,1,non_cognate,1,REAL,FALSA
,,,,,,,,,ws06,001,2025-01-22_12h46.52.781,empathy_intonation_perc,2024.1.4,Win32,30.03003003,,,,,,,,,,,,,,157,seled,,,,,,393.3453,394.8105,0,1,0.8962,,0,161,161,156,1,pseudoword,0,REAL,FALSA
,,,,,,,,,ws06,001,2025-01-22_12h46.52.781,empathy_intonation_perc,2024.1.4,Win32,30.03003003,,,,,,,,,,,,,,116,grigir,,,,,,394.8117,396.1777,0,1,0.7944,,0,162,162,115,1,pseudoword,0,REAL,FALSA
,,,,,,,,,ws06,001,2025-01-22_12h46.52.781,empathy_intonation_perc,2024.1.4,Win32,30.03003003,,,,,,,,,,,,,,82,brillo,,,,,,396.1788,397.3776,1,0,0.6292,,0,163,163,81,1,non_cognate,1,REAL,FALSA
,,,,,,,,,ws06,001,2025-01-22_12h46.52.781,empathy_intonation_perc,2024.1.4,Win32,30.03003003,,,,,,,,,,,,,,57,regalo,,,,,,397.3788,398.4771,1,0,0.5517,,0,164,164,56,1,non_cognate,1,REAL,FALSA
,,,,,,,,,ws06,001,2025-01-22_12h46.52.781,empathy_intonation_perc,2024.1.4,Win32,30.03003003,,,,,,,,,,,,,,179,suelet,,,,,,398.4783,400.4768,0,1,1.4451,,0,165,165,178,1,pseudoword,0,REAL,FALSA
,,,,,,,,,ws06,001,2025-01-22_12h46.52.781,empathy_intonation_perc,2024.1.4,Win32,30.03003003,,,,,,,,,,,,,,17,clan,,,,,,400.4775,401.8776,1,0,0.8302,,0,166,166,16,1,three_way_cognate,1,REAL,FALSA
,,,,,,,,,ws06,001,2025-01-22_12h46.52.781,empathy_intonation_perc,2024.1.4,Win32,30.03003003,,,,,,,,,,,,,,62,pegar,,,,,,401.8785,403.144,1,0,0.705,,0,167,167,61,1,non_cognate,1,REAL,FALSA
,,,,,,,,,ws06,001,2025-01-22_12h46.52.781,empathy_intonation_perc,2024.1.4,Win32,30.03003003,,,,,,,,,,,,,,163,llzan,,,,,,403.1452,404.6461,0,1,0.9532,,0,168,168,162,1,pseudoword,0,REAL,FALSA
,,,,,,,,,ws06,001,2025-01-22_12h46.52.781,empathy_intonation_perc,2024.1.4,Win32,30.03003003,,,,,,,,,,,,,,78,rendir,,,,,,404.6466,405.812,1,0,0.618,,0,169,169,77,1,non_cognate,1,REAL,FALSA
,,,,,,,,,ws06,001,2025-01-22_12h46.52.781,empathy_intonation_perc,2024.1.4,Win32,30.03003003,,,,,,,,,,,,,,53,punta,,,,,,405.8129,407.0107,1,0,0.6348,,0,170,170,52,1,non_cognate,1,REAL,FALSA
,,,,,,,,,ws06,001,2025-01-22_12h46.52.781,empathy_intonation_perc,2024.1.4,Win32,30.03003003,,,,,,,,,,,,,,159,trcia,,,,,,407.0116,408.1771,0,1,0.6096,,0,171,171,158,1,pseudoword,0,REAL,FALSA
,,,,,,,,,ws06,001,2025-01-22_12h46.52.781,empathy_intonation_perc,2024.1.4,Win32,30.03003003,,,,,,,,,,,,,,92,flecha,,,,,,408.178,409.3439,1,0,0.6047,,0,172,172,91,1,non_cognate,1,REAL,FALSA
,,,,,,,,,ws06,001,2025-01-22_12h46.52.781,empathy_intonation_perc,2024.1.4,Win32,30.03003003,,,,,,,,,,,,,,110,densó,,,,,,409.345,410.8777,0,1,0.9848,,0,173,173,109,1,pseudoword,0,REAL,FALSA
,,,,,,,,,ws06,001,2025-01-22_12h46.52.781,empathy_intonation_perc,2024.1.4,Win32,30.03003003,,,,,,,,,,,,,,118,bará,,,,,,410.8782,412.2103,0,1,0.7638,,0,174,174,117,1,pseudoword,0,REAL,FALSA
,,,,,,,,,ws06,001,2025-01-22_12h46.52.781,empathy_intonation_perc,2024.1.4,Win32,30.03003003,,,,,,,,,,,,,,48,pelvis,,,,,,412.2115,413.4107,1,0,0.6292,,0,175,175,47,1,two_way_cognate,1,REAL,FALSA
,,,,,,,,,ws06,001,2025-01-22_12h46.52.781,empathy_intonation_perc,2024.1.4,Win32,30.03003003,,,,,,,,,,,,,,106,diebro,,,,,,413.4119,414.8769,0,1,0.9082,,0,176,176,105,1,pseudoword,0,REAL,FALSA
,,,,,,,,,ws06,001,2025-01-22_12h46.52.781,empathy_intonation_perc,2024.1.4,Win32,30.03003003,,,,,,,,,,,,,,80,cuenco,,,,,,414.8779,416.0104,1,0,0.5644,,0,177,177,79,1,non_cognate,1,REAL,FALSA
,,,,,,,,,ws06,001,2025-01-22_12h46.52.781,empathy_intonation_perc,2024.1.4,Win32,30.03003003,,,,,,,,,,,,,,41,pasta,,,,,,416.0114,417.0435,1,0,0.4735,,0,178,178,40,1,two_way_cognate,1,REAL,FALSA
,,,,,,,,,ws06,001,2025-01-22_12h46.52.781,empathy_intonation_perc,2024.1.4,Win32,30.03003003,,,,,,,,,,,,,,45,total,,,,,,417.0445,418.0476,1,0,0.4492,,0,179,179,44,1,two_way_cognate,1,REAL,FALSA
,,,,,,,,,ws06,001,2025-01-22_12h46.52.781,empathy_intonation_perc,2024.1.4,Win32,30.03003003,,,,,,,,,,,,,,6,horror,,,,,,418.0486,419.1106,1,0,0.4954,,0,180,180,5,1,three_way_cognate,1,REAL,FALSA
,,,,,,,,,ws06,001,2025-01-22_12h46.52.781,empathy_intonation_perc,2024.1.4,Win32,30.03003003,,,,,,,,,,,,,,59,feo,,,,,,419.1118,420.21,1,0,0.5504,,0,181,181,58,1,non_cognate,1,REAL,FALSA
,,,,,,,,,ws06,001,2025-01-22_12h46.52.781,empathy_intonation_perc,2024.1.4,Win32,30.03003003,,,,,,,,,,,,,,149,emén,,,,,,420.2106,421.5103,0,1,0.7334,,0,182,182,148,1,pseudoword,0,REAL,FALSA
,,,,,,,,,ws06,001,2025-01-22_12h46.52.781,empathy_intonation_perc,2024.1.4,Win32,30.03003003,,,,,,,,,,,,,,31,civil,,,,,,421.5113,422.5765,1,0,0.5145,,0,183,183,30,1,two_way_cognate,1,REAL,FALSA
,,,,,,,,,ws06,001,2025-01-22_12h46.52.781,empathy_intonation_perc,2024.1.4,Win32,30.03003003,,,,,,,,,,,,,,182,desaro,,,,,,422.5772,424.41,0,1,1.264,,0,184,184,181,1,pseudoword,0,REAL,FALSA
,,,,,,,,,ws06,001,2025-01-22_12h46.52.781,empathy_intonation_perc,2024.1.4,Win32,30.03003003,,,,,,,,,,,,,,8,kilo,,,,,,424.4109,425.4096,1,0,0.4476,,0,185,185,7,1,three_way_cognate,1,REAL,FALSA
,,,,,,,,,ws06,001,2025-01-22_12h46.52.781,empathy_intonation_perc,2024.1.4,Win32,30.03003003,,,,,,,,,,,,,,61,aduana,,,,,,425.4104,426.7437,1,0,0.765,,0,186,186,60,1,non_cognate,1,REAL,FALSA
,,,,,,,,,ws06,001,2025-01-22_12h46.52.781,empathy_intonation_perc,2024.1.4,Win32,30.03003003,,,,,,,,,,,,,,2,tumor,,,,,,426.7451,427.7773,1,0,0.4622,,0,187,187,1,1,three_way_cognate,1,REAL,FALSA
,,,,,,,,,ws06,001,2025-01-22_12h46.52.781,empathy_intonation_perc,2024.1.4,Win32,30.03003003,,,,,,,,,,,,,,91,equipo,,,,,,427.7781,428.8111,1,0,0.4835,,0,188,188,90,1,non_cognate,1,REAL,FALSA
,,,,,,,,,ws06,001,2025-01-22_12h46.52.781,empathy_intonation_perc,2024.1.4,Win32,30.03003003,,,,,,,,,,,,,,142,parre,,,,,,428.8117,430.1437,0,1,0.7676,,0,189,189,141,1,pseudoword,0,REAL,FALSA
,,,,,,,,,ws06,001,2025-01-22_12h46.52.781,empathy_intonation_perc,2024.1.4,Win32,30.03003003,,,,,,,,,,,,,,123,arane,,,,,,430.1448,431.3769,1,0,0.6632,,0,190,190,122,1,pseudoword,0,REAL,FALSA
,,,,,,,,,ws06,001,2025-01-22_12h46.52.781,empathy_intonation_perc,2024.1.4,Win32,30.03003003,,,,,,,,,,,,,,141,virios,,,,,,431.378,433.2767,0,1,1.335,,0,191,191,140,1,pseudoword,0,REAL,FALSA
