lextale_instructions.started,lextale_instructions.stopped,lextale_instructions_loop.thisRepN,lextale_instructions_loop.thisTrialN,lextale_instructions_loop.thisN,lextale_instructions_loop.thisIndex,lextale_instructions_loop.ran,instructions_text,continue_text,participant,session,date,expName,psychopyVersion,OS,frameRate,lextale_practice.started,lextale_practice.stopped,key_resp_lextale_practice.keys,key_resp_lextale_practice.corr,key_resp_lextale_practice.rt,key_resp_lextale_practice.duration,lextale_practice_feedback.started,lextale_practice_feedback.stopped,lextale_practice_trials.thisRepN,lextale_practice_trials.thisTrialN,lextale_practice_trials.thisN,lextale_practice_trials.thisIndex,lextale_practice_trials.ran,stim,word,correct_response,prac_button_real,prac_button_false,lextale_check.started,lextale_check.stopped,lextale_trial.started,lextale_trial.stopped,key_resp_lextale_trial.keys,key_resp_lextale_trial.corr,key_resp_lextale_trial.rt,key_resp_lextale_trial.duration,lextail_trials.thisRepN,lextail_trials.thisTrialN,lextail_trials.thisN,lextail_trials.thisIndex,lextail_trials.ran,type,correct_reponse,button_real,button_false
0.005,12.583,0,0,0,0,1,"Este es un test de vocabulario en español. 
  
  A continuación vas a ver 90 secuencias de letras que parecen 'españolas'.
  
  Solo algunas de ellas son palabras de verdad.",(presiona la barra espaciadora para continuar),WS_02,001,2025-02-02_10h31.21.143,empathy_intonation_perc,2024.1.4,MacIntel,58.82352941,,,,,,,,,,,,,,,,,,,,,,,,,,,,,,,,,,,
12.584,31.094,0,1,1,1,1,"Por favor, señala las palabras que tú conoces (aquellas que estás convencido que son palabras españolas, incluso aunque no seas capaz de dar el significado preciso).",(presiona la barra espaciadora para continuar),WS_02,001,2025-02-02_10h31.21.143,empathy_intonation_perc,2024.1.4,MacIntel,58.82352941,,,,,,,,,,,,,,,,,,,,,,,,,,,,,,,,,,,
31.095,37.545,0,2,2,2,1,Pero cuidado: los errores se penalizan. Por eso no tiene sentido tratar de incrementar tu puntuación marcando como reales palabras que nunca has visto.,(presiona la barra espaciadora para continuar),WS_02,001,2025-02-02_10h31.21.143,empathy_intonation_perc,2024.1.4,MacIntel,58.82352941,,,,,,,,,,,,,,,,,,,,,,,,,,,,,,,,,,,
37.545,54.844,0,3,3,3,1,"Presiona la tecla 1 si piensas que es una palabra real y la tecla 
  0 si piensas que es una palabra falsa. 
  
  Vamos a practicar un poco...",(presiona la barra espaciadora para continuar),WS_02,001,2025-02-02_10h31.21.143,empathy_intonation_perc,2024.1.4,MacIntel,58.82352941,,,,,,,,,,,,,,,,,,,,,,,,,,,,,,,,,,,
,,,,,,,,,WS_02,001,2025-02-02_10h31.21.143,empathy_intonation_perc,2024.1.4,MacIntel,58.82352941,54.852,57.712,0,1,2.33,,57.712,58.711,0,0,0,0,1,0,depiste,0,REAL,FALSA,,,,,,,,,,,,,,,,,
,,,,,,,,,WS_02,001,2025-02-02_10h31.21.143,empathy_intonation_perc,2024.1.4,MacIntel,58.82352941,58.712,60.294,1,1,1.049,,60.294,61.294,0,1,1,1,1,0,sí,1,REAL,FALSA,,,,,,,,,,,,,,,,,
,,,,,,,,,WS_02,001,2025-02-02_10h31.21.143,empathy_intonation_perc,2024.1.4,MacIntel,58.82352941,61.295,65.444,0,1,3.61,,65.445,66.444,0,2,2,2,1,0,coné,0,REAL,FALSA,,,,,,,,,,,,,,,,,
,,,,,,,,,WS_02,001,2025-02-02_10h31.21.143,empathy_intonation_perc,2024.1.4,MacIntel,58.82352941,66.445,68.63,0,1,1.651,,68.63,69.628,0,3,3,3,1,0,calpar,0,REAL,FALSA,,,,,,,,,,,,,,,,,
,,,,,,,,,WS_02,001,2025-02-02_10h31.21.143,empathy_intonation_perc,2024.1.4,MacIntel,58.82352941,69.628,71.428,0,1,1.261,,71.428,72.427,0,4,4,4,1,0,joten,0,REAL,FALSA,,,,,,,,,,,,,,,,,
,,,,,,,,,WS_02,001,2025-02-02_10h31.21.143,empathy_intonation_perc,2024.1.4,MacIntel,58.82352941,72.428,73.761,1,1,0.793,,73.761,74.761,0,5,5,5,1,0,sacapuntas,1,REAL,FALSA,,,,,,,,,,,,,,,,,
,,,,,,,,,WS_02,001,2025-02-02_10h31.21.143,empathy_intonation_perc,2024.1.4,MacIntel,58.82352941,74.762,76.061,0,1,0.767,,76.061,77.06,0,6,6,6,1,0,priba,0,REAL,FALSA,,,,,,,,,,,,,,,,,
,,,,,,,,,WS_02,001,2025-02-02_10h31.21.143,empathy_intonation_perc,2024.1.4,MacIntel,58.82352941,77.061,78.361,0,1,0.768,,78.361,79.361,0,7,7,7,1,0,pelasula,0,REAL,FALSA,,,,,,,,,,,,,,,,,
,,,,,,,,,WS_02,001,2025-02-02_10h31.21.143,empathy_intonation_perc,2024.1.4,MacIntel,58.82352941,79.361,80.61,1,1,0.709,,80.611,81.611,0,8,8,8,1,0,bien,1,REAL,FALSA,,,,,,,,,,,,,,,,,
,,,,,,,,,WS_02,001,2025-02-02_10h31.21.143,empathy_intonation_perc,2024.1.4,MacIntel,58.82352941,81.611,82.744,1,1,0.601,,82.744,83.744,0,9,9,9,1,0,casa,1,REAL,FALSA,,,,,,,,,,,,,,,,,
,,,,,,,,,WS_02,001,2025-02-02_10h31.21.143,empathy_intonation_perc,2024.1.4,MacIntel,58.82352941,83.745,85.094,0,1,0.811,,85.094,86.094,0,10,10,10,1,0,lejo,0,REAL,FALSA,,,,,,,,,,,,,,,,,
,,,,,,,,,WS_02,001,2025-02-02_10h31.21.143,empathy_intonation_perc,2024.1.4,MacIntel,58.82352941,86.094,87.393,0,1,0.776,,87.394,88.394,0,11,11,11,1,0,pretantas,0,REAL,FALSA,,,,,,,,,,,,,,,,,
,,,,,,,,,WS_02,001,2025-02-02_10h31.21.143,empathy_intonation_perc,2024.1.4,MacIntel,58.82352941,,,,,,,,,,,,,,,,,,,88.395,90.594,,,,,,,,,,,,,,,
,,,,,,,,,WS_02,001,2025-02-02_10h31.21.143,empathy_intonation_perc,2024.1.4,MacIntel,58.82352941,,,,,,,,,,,,,,23,plural,,,,,,90.607,92.211,1,0,1.086,,0,0,0,22,1,three_way_cognate,1,REAL,FALSA
,,,,,,,,,WS_02,001,2025-02-02_10h31.21.143,empathy_intonation_perc,2024.1.4,MacIntel,58.82352941,,,,,,,,,,,,,,36,viable,,,,,,92.212,93.644,1,0,0.894,,0,1,1,35,1,two_way_cognate,1,REAL,FALSA
,,,,,,,,,WS_02,001,2025-02-02_10h31.21.143,empathy_intonation_perc,2024.1.4,MacIntel,58.82352941,,,,,,,,,,,,,,16,chat,,,,,,93.645,94.811,1,0,0.626,,0,2,2,15,1,three_way_cognate,1,REAL,FALSA
,,,,,,,,,WS_02,001,2025-02-02_10h31.21.143,empathy_intonation_perc,2024.1.4,MacIntel,58.82352941,,,,,,,,,,,,,,40,pelvis,,,,,,94.811,95.994,1,0,0.644,,0,3,3,39,1,two_way_cognate,1,REAL,FALSA
,,,,,,,,,WS_02,001,2025-02-02_10h31.21.143,empathy_intonation_perc,2024.1.4,MacIntel,58.82352941,,,,,,,,,,,,,,4,flora,,,,,,95.994,97.094,1,0,0.563,,0,4,4,3,1,three_way_cognate,1,REAL,FALSA
,,,,,,,,,WS_02,001,2025-02-02_10h31.21.143,empathy_intonation_perc,2024.1.4,MacIntel,58.82352941,,,,,,,,,,,,,,161,civas,,,,,,97.094,98.61,0,1,0.994,,0,5,5,160,1,pseudoword,0,REAL,FALSA
,,,,,,,,,WS_02,001,2025-02-02_10h31.21.143,empathy_intonation_perc,2024.1.4,MacIntel,58.82352941,,,,,,,,,,,,,,169,pitis,,,,,,98.611,102.061,1,0,2.912,,0,6,6,168,1,pseudoword,0,REAL,FALSA
,,,,,,,,,WS_02,001,2025-02-02_10h31.21.143,empathy_intonation_perc,2024.1.4,MacIntel,58.82352941,,,,,,,,,,,,,,32,animal,,,,,,102.061,103.177,1,0,0.586,,0,7,7,31,1,two_way_cognate,1,REAL,FALSA
,,,,,,,,,WS_02,001,2025-02-02_10h31.21.143,empathy_intonation_perc,2024.1.4,MacIntel,58.82352941,,,,,,,,,,,,,,10,drama,,,,,,103.178,104.46,1,0,0.744,,0,8,8,9,1,three_way_cognate,1,REAL,FALSA
,,,,,,,,,WS_02,001,2025-02-02_10h31.21.143,empathy_intonation_perc,2024.1.4,MacIntel,58.82352941,,,,,,,,,,,,,,68,puñal,,,,,,104.461,105.594,1,0,0.594,,0,9,9,67,1,non_cognate,1,REAL,FALSA
,,,,,,,,,WS_02,001,2025-02-02_10h31.21.143,empathy_intonation_perc,2024.1.4,MacIntel,58.82352941,,,,,,,,,,,,,,129,vinzó,,,,,,105.595,107.011,0,1,0.881,,0,10,10,128,1,pseudoword,0,REAL,FALSA
,,,,,,,,,WS_02,001,2025-02-02_10h31.21.143,empathy_intonation_perc,2024.1.4,MacIntel,58.82352941,,,,,,,,,,,,,,152,prave,,,,,,107.012,108.21,0,1,0.665,,0,11,11,151,1,pseudoword,0,REAL,FALSA
,,,,,,,,,WS_02,001,2025-02-02_10h31.21.143,empathy_intonation_perc,2024.1.4,MacIntel,58.82352941,,,,,,,,,,,,,,66,aleta,,,,,,108.211,109.594,0,1,0.853,,0,12,12,65,1,non_cognate,1,REAL,FALSA
,,,,,,,,,WS_02,001,2025-02-02_10h31.21.143,empathy_intonation_perc,2024.1.4,MacIntel,58.82352941,,,,,,,,,,,,,,177,entodo,,,,,,109.595,111.261,0,1,1.126,,0,13,13,176,1,pseudoword,0,REAL,FALSA
,,,,,,,,,WS_02,001,2025-02-02_10h31.21.143,empathy_intonation_perc,2024.1.4,MacIntel,58.82352941,,,,,,,,,,,,,,144,diroco,,,,,,111.261,112.527,0,1,0.727,,0,14,14,143,1,pseudoword,0,REAL,FALSA
,,,,,,,,,WS_02,001,2025-02-02_10h31.21.143,empathy_intonation_perc,2024.1.4,MacIntel,58.82352941,,,,,,,,,,,,,,65,guerra,,,,,,112.528,113.71,1,0,0.643,,0,15,15,64,1,non_cognate,1,REAL,FALSA
,,,,,,,,,WS_02,001,2025-02-02_10h31.21.143,empathy_intonation_perc,2024.1.4,MacIntel,58.82352941,,,,,,,,,,,,,,82,brillo,,,,,,113.711,114.794,1,0,0.545,,0,16,16,81,1,non_cognate,1,REAL,FALSA
,,,,,,,,,WS_02,001,2025-02-02_10h31.21.143,empathy_intonation_perc,2024.1.4,MacIntel,58.82352941,,,,,,,,,,,,,,80,cuenco,,,,,,114.794,115.894,1,0,0.57,,0,17,17,79,1,non_cognate,1,REAL,FALSA
,,,,,,,,,WS_02,001,2025-02-02_10h31.21.143,empathy_intonation_perc,2024.1.4,MacIntel,58.82352941,,,,,,,,,,,,,,88,percha,,,,,,115.894,117.061,1,0,0.63,,0,18,18,87,1,non_cognate,1,REAL,FALSA
,,,,,,,,,WS_02,001,2025-02-02_10h31.21.143,empathy_intonation_perc,2024.1.4,MacIntel,58.82352941,,,,,,,,,,,,,,117,morrá,,,,,,117.061,118.344,0,1,0.744,,0,19,19,116,1,pseudoword,0,REAL,FALSA
,,,,,,,,,WS_02,001,2025-02-02_10h31.21.143,empathy_intonation_perc,2024.1.4,MacIntel,58.82352941,,,,,,,,,,,,,,115,lidena,,,,,,118.344,119.477,0,1,0.601,,0,20,20,114,1,pseudoword,0,REAL,FALSA
,,,,,,,,,WS_02,001,2025-02-02_10h31.21.143,empathy_intonation_perc,2024.1.4,MacIntel,58.82352941,,,,,,,,,,,,,,123,arane,,,,,,119.477,120.493,0,1,0.504,,0,21,21,122,1,pseudoword,0,REAL,FALSA
,,,,,,,,,WS_02,001,2025-02-02_10h31.21.143,empathy_intonation_perc,2024.1.4,MacIntel,58.82352941,,,,,,,,,,,,,,189,medium,,,,,,120.494,121.677,0,1,0.644,,0,22,22,188,1,pseudoword,0,REAL,FALSA
,,,,,,,,,WS_02,001,2025-02-02_10h31.21.143,empathy_intonation_perc,2024.1.4,MacIntel,58.82352941,,,,,,,,,,,,,,98,martir,,,,,,121.677,122.877,1,0,0.687,,0,23,23,97,1,pseudoword,0,REAL,FALSA
,,,,,,,,,WS_02,001,2025-02-02_10h31.21.143,empathy_intonation_perc,2024.1.4,MacIntel,58.82352941,,,,,,,,,,,,,,72,rostro,,,,,,122.877,123.994,1,0,0.601,,0,24,24,71,1,non_cognate,1,REAL,FALSA
,,,,,,,,,WS_02,001,2025-02-02_10h31.21.143,empathy_intonation_perc,2024.1.4,MacIntel,58.82352941,,,,,,,,,,,,,,113,nasce,,,,,,123.994,125.41,0,1,0.886,,0,25,25,112,1,pseudoword,0,REAL,FALSA
,,,,,,,,,WS_02,001,2025-02-02_10h31.21.143,empathy_intonation_perc,2024.1.4,MacIntel,58.82352941,,,,,,,,,,,,,,71,torta,,,,,,125.41,126.56,1,0,0.636,,0,26,26,70,1,non_cognate,1,REAL,FALSA
,,,,,,,,,WS_02,001,2025-02-02_10h31.21.143,empathy_intonation_perc,2024.1.4,MacIntel,58.82352941,,,,,,,,,,,,,,56,pico,,,,,,126.561,127.677,1,0,0.581,,0,27,27,55,1,non_cognate,1,REAL,FALSA
,,,,,,,,,WS_02,001,2025-02-02_10h31.21.143,empathy_intonation_perc,2024.1.4,MacIntel,58.82352941,,,,,,,,,,,,,,31,civil,,,,,,127.677,128.71,1,0,0.51,,0,28,28,30,1,two_way_cognate,1,REAL,FALSA
,,,,,,,,,WS_02,001,2025-02-02_10h31.21.143,empathy_intonation_perc,2024.1.4,MacIntel,58.82352941,,,,,,,,,,,,,,9,portal,,,,,,128.711,129.744,1,0,0.496,,0,29,29,8,1,three_way_cognate,1,REAL,FALSA
,,,,,,,,,WS_02,001,2025-02-02_10h31.21.143,empathy_intonation_perc,2024.1.4,MacIntel,58.82352941,,,,,,,,,,,,,,191,frasis,,,,,,129.744,130.96,0,1,0.678,,0,30,30,190,1,pseudoword,0,REAL,FALSA
,,,,,,,,,WS_02,001,2025-02-02_10h31.21.143,empathy_intonation_perc,2024.1.4,MacIntel,58.82352941,,,,,,,,,,,,,,34,actor,,,,,,130.961,132.093,1,0,0.603,,0,31,31,33,1,two_way_cognate,1,REAL,FALSA
,,,,,,,,,WS_02,001,2025-02-02_10h31.21.143,empathy_intonation_perc,2024.1.4,MacIntel,58.82352941,,,,,,,,,,,,,,18,altar,,,,,,132.094,133.394,1,0,0.761,,0,32,32,17,1,three_way_cognate,1,REAL,FALSA
,,,,,,,,,WS_02,001,2025-02-02_10h31.21.143,empathy_intonation_perc,2024.1.4,MacIntel,58.82352941,,,,,,,,,,,,,,173,mibro,,,,,,133.394,143.293,0,1,9.363,,0,33,33,172,1,pseudoword,0,REAL,FALSA
,,,,,,,,,WS_02,001,2025-02-02_10h31.21.143,empathy_intonation_perc,2024.1.4,MacIntel,58.82352941,,,,,,,,,,,,,,89,muñeca,,,,,,143.294,146.71,1,0,2.876,,0,34,34,88,1,non_cognate,1,REAL,FALSA
,,,,,,,,,WS_02,001,2025-02-02_10h31.21.143,empathy_intonation_perc,2024.1.4,MacIntel,58.82352941,,,,,,,,,,,,,,6,horror,,,,,,146.711,251.543,1,0,104.293,,0,35,35,5,1,three_way_cognate,1,REAL,FALSA
,,,,,,,,,WS_02,001,2025-02-02_10h31.21.143,empathy_intonation_perc,2024.1.4,MacIntel,58.82352941,,,,,,,,,,,,,,125,ceme,,,,,,251.543,252.926,0,1,0.841,,0,36,36,124,1,pseudoword,0,REAL,FALSA
,,,,,,,,,WS_02,001,2025-02-02_10h31.21.143,empathy_intonation_perc,2024.1.4,MacIntel,58.82352941,,,,,,,,,,,,,,185,aljizo,,,,,,252.927,254.21,0,1,0.744,,0,37,37,184,1,pseudoword,0,REAL,FALSA
,,,,,,,,,WS_02,001,2025-02-02_10h31.21.143,empathy_intonation_perc,2024.1.4,MacIntel,58.82352941,,,,,,,,,,,,,,67,llamar,,,,,,254.21,255.442,1,0,0.693,,0,38,38,66,1,non_cognate,1,REAL,FALSA
,,,,,,,,,WS_02,001,2025-02-02_10h31.21.143,empathy_intonation_perc,2024.1.4,MacIntel,58.82352941,,,,,,,,,,,,,,154,harvé,,,,,,255.443,257.809,0,1,1.827,,0,39,39,153,1,pseudoword,0,REAL,FALSA
,,,,,,,,,WS_02,001,2025-02-02_10h31.21.143,empathy_intonation_perc,2024.1.4,MacIntel,58.82352941,,,,,,,,,,,,,,78,rendir,,,,,,257.809,258.876,1,0,0.543,,0,40,40,77,1,non_cognate,1,REAL,FALSA
,,,,,,,,,WS_02,001,2025-02-02_10h31.21.143,empathy_intonation_perc,2024.1.4,MacIntel,58.82352941,,,,,,,,,,,,,,186,rizate,,,,,,258.876,261.109,0,1,1.701,,0,41,41,185,1,pseudoword,0,REAL,FALSA
,,,,,,,,,WS_02,001,2025-02-02_10h31.21.143,empathy_intonation_perc,2024.1.4,MacIntel,58.82352941,,,,,,,,,,,,,,17,clan,,,,,,261.11,262.226,1,0,0.578,,0,42,42,16,1,three_way_cognate,1,REAL,FALSA
,,,,,,,,,WS_02,001,2025-02-02_10h31.21.143,empathy_intonation_perc,2024.1.4,MacIntel,58.82352941,,,,,,,,,,,,,,158,babrá,,,,,,262.227,263.659,0,1,0.894,,0,43,43,157,1,pseudoword,0,REAL,FALSA
,,,,,,,,,WS_02,001,2025-02-02_10h31.21.143,empathy_intonation_perc,2024.1.4,MacIntel,58.82352941,,,,,,,,,,,,,,69,tiza,,,,,,263.66,265.443,1,0,1.244,,0,44,44,68,1,non_cognate,1,REAL,FALSA
,,,,,,,,,WS_02,001,2025-02-02_10h31.21.143,empathy_intonation_perc,2024.1.4,MacIntel,58.82352941,,,,,,,,,,,,,,105,peniz,,,,,,265.443,266.792,0,1,0.817,,0,45,45,104,1,pseudoword,0,REAL,FALSA
,,,,,,,,,WS_02,001,2025-02-02_10h31.21.143,empathy_intonation_perc,2024.1.4,MacIntel,58.82352941,,,,,,,,,,,,,,30,fiscal,,,,,,266.792,267.908,1,0,0.598,,0,46,46,29,1,two_way_cognate,1,REAL,FALSA
,,,,,,,,,WS_02,001,2025-02-02_10h31.21.143,empathy_intonation_perc,2024.1.4,MacIntel,58.82352941,,,,,,,,,,,,,,153,golla,,,,,,267.909,269.259,0,1,0.828,,0,47,47,152,1,pseudoword,0,REAL,FALSA
,,,,,,,,,WS_02,001,2025-02-02_10h31.21.143,empathy_intonation_perc,2024.1.4,MacIntel,58.82352941,,,,,,,,,,,,,,172,dogue,,,,,,269.259,270.492,0,1,0.71,,0,48,48,171,1,pseudoword,0,REAL,FALSA
,,,,,,,,,WS_02,001,2025-02-02_10h31.21.143,empathy_intonation_perc,2024.1.4,MacIntel,58.82352941,,,,,,,,,,,,,,180,pupica,,,,,,270.493,271.693,0,1,0.66,,0,49,49,179,1,pseudoword,0,REAL,FALSA
,,,,,,,,,WS_02,001,2025-02-02_10h31.21.143,empathy_intonation_perc,2024.1.4,MacIntel,58.82352941,,,,,,,,,,,,,,44,editor,,,,,,271.693,272.925,1,0,0.702,,0,50,50,43,1,two_way_cognate,1,REAL,FALSA
,,,,,,,,,WS_02,001,2025-02-02_10h31.21.143,empathy_intonation_perc,2024.1.4,MacIntel,58.82352941,,,,,,,,,,,,,,165,chote,,,,,,272.926,274.209,0,1,0.754,,0,51,51,164,1,pseudoword,0,REAL,FALSA
,,,,,,,,,WS_02,001,2025-02-02_10h31.21.143,empathy_intonation_perc,2024.1.4,MacIntel,58.82352941,,,,,,,,,,,,,,12,dogma,,,,,,274.209,275.275,1,0,0.544,,0,52,52,11,1,three_way_cognate,1,REAL,FALSA
,,,,,,,,,WS_02,001,2025-02-02_10h31.21.143,empathy_intonation_perc,2024.1.4,MacIntel,58.82352941,,,,,,,,,,,,,,95,listo,,,,,,275.276,276.326,1,0,0.535,,0,53,53,94,1,non_cognate,1,REAL,FALSA
,,,,,,,,,WS_02,001,2025-02-02_10h31.21.143,empathy_intonation_perc,2024.1.4,MacIntel,58.82352941,,,,,,,,,,,,,,134,molor,,,,,,276.327,277.476,0,1,0.62,,0,54,54,133,1,pseudoword,0,REAL,FALSA
,,,,,,,,,WS_02,001,2025-02-02_10h31.21.143,empathy_intonation_perc,2024.1.4,MacIntel,58.82352941,,,,,,,,,,,,,,136,hueas,,,,,,277.477,278.659,0,1,0.644,,0,55,55,135,1,pseudoword,0,REAL,FALSA
,,,,,,,,,WS_02,001,2025-02-02_10h31.21.143,empathy_intonation_perc,2024.1.4,MacIntel,58.82352941,,,,,,,,,,,,,,15,test,,,,,,278.659,279.709,1,0,0.528,,0,56,56,14,1,three_way_cognate,1,REAL,FALSA
,,,,,,,,,WS_02,001,2025-02-02_10h31.21.143,empathy_intonation_perc,2024.1.4,MacIntel,58.82352941,,,,,,,,,,,,,,96,caro,,,,,,279.71,280.809,1,0,0.561,,0,57,57,95,1,non_cognate,1,REAL,FALSA
,,,,,,,,,WS_02,001,2025-02-02_10h31.21.143,empathy_intonation_perc,2024.1.4,MacIntel,58.82352941,,,,,,,,,,,,,,122,boñaz,,,,,,280.809,281.992,0,1,0.668,,0,58,58,121,1,pseudoword,0,REAL,FALSA
,,,,,,,,,WS_02,001,2025-02-02_10h31.21.143,empathy_intonation_perc,2024.1.4,MacIntel,58.82352941,,,,,,,,,,,,,,164,tecia,,,,,,281.993,283.508,1,0,0.978,,0,59,59,163,1,pseudoword,0,REAL,FALSA
,,,,,,,,,WS_02,001,2025-02-02_10h31.21.143,empathy_intonation_perc,2024.1.4,MacIntel,58.82352941,,,,,,,,,,,,,,127,vien,,,,,,283.509,284.659,0,1,0.634,,0,60,60,126,1,pseudoword,0,REAL,FALSA
,,,,,,,,,WS_02,001,2025-02-02_10h31.21.143,empathy_intonation_perc,2024.1.4,MacIntel,58.82352941,,,,,,,,,,,,,,60,siglo,,,,,,284.66,285.826,1,0,0.63,,0,61,61,59,1,non_cognate,1,REAL,FALSA
,,,,,,,,,WS_02,001,2025-02-02_10h31.21.143,empathy_intonation_perc,2024.1.4,MacIntel,58.82352941,,,,,,,,,,,,,,111,monue,,,,,,285.826,286.991,0,1,0.632,,0,62,62,110,1,pseudoword,0,REAL,FALSA
,,,,,,,,,WS_02,001,2025-02-02_10h31.21.143,empathy_intonation_perc,2024.1.4,MacIntel,58.82352941,,,,,,,,,,,,,,121,barbs,,,,,,286.992,288.159,0,1,0.65,,0,63,63,120,1,pseudoword,0,REAL,FALSA
,,,,,,,,,WS_02,001,2025-02-02_10h31.21.143,empathy_intonation_perc,2024.1.4,MacIntel,58.82352941,,,,,,,,,,,,,,183,edioso,,,,,,288.159,289.675,0,1,0.995,,0,64,64,182,1,pseudoword,0,REAL,FALSA
,,,,,,,,,WS_02,001,2025-02-02_10h31.21.143,empathy_intonation_perc,2024.1.4,MacIntel,58.82352941,,,,,,,,,,,,,,52,blando,,,,,,289.676,290.825,0,1,0.617,,0,65,65,51,1,non_cognate,1,REAL,FALSA
,,,,,,,,,WS_02,001,2025-02-02_10h31.21.143,empathy_intonation_perc,2024.1.4,MacIntel,58.82352941,,,,,,,,,,,,,,33,collar,,,,,,290.825,294.709,1,0,3.37,,0,66,66,32,1,two_way_cognate,1,REAL,FALSA
,,,,,,,,,WS_02,001,2025-02-02_10h31.21.143,empathy_intonation_perc,2024.1.4,MacIntel,58.82352941,,,,,,,,,,,,,,73,llevar,,,,,,294.709,295.759,1,0,0.527,,0,67,67,72,1,non_cognate,1,REAL,FALSA
,,,,,,,,,WS_02,001,2025-02-02_10h31.21.143,empathy_intonation_perc,2024.1.4,MacIntel,58.82352941,,,,,,,,,,,,,,83,hálito,,,,,,295.759,297.492,1,0,1.195,,0,68,68,82,1,non_cognate,1,REAL,FALSA
,,,,,,,,,WS_02,001,2025-02-02_10h31.21.143,empathy_intonation_perc,2024.1.4,MacIntel,58.82352941,,,,,,,,,,,,,,135,panté,,,,,,297.492,299.026,0,1,1.013,,0,69,69,134,1,pseudoword,0,REAL,FALSA
,,,,,,,,,WS_02,001,2025-02-02_10h31.21.143,empathy_intonation_perc,2024.1.4,MacIntel,58.82352941,,,,,,,,,,,,,,27,piano,,,,,,299.026,300.242,1,0,0.685,,0,70,70,26,1,two_way_cognate,1,REAL,FALSA
,,,,,,,,,WS_02,001,2025-02-02_10h31.21.143,empathy_intonation_perc,2024.1.4,MacIntel,58.82352941,,,,,,,,,,,,,,175,tradía,,,,,,300.242,301.509,0,1,0.748,,0,71,71,174,1,pseudoword,0,REAL,FALSA
,,,,,,,,,WS_02,001,2025-02-02_10h31.21.143,empathy_intonation_perc,2024.1.4,MacIntel,58.82352941,,,,,,,,,,,,,,26,enigma,,,,,,301.509,302.575,1,0,0.531,,0,72,72,25,1,two_way_cognate,1,REAL,FALSA
,,,,,,,,,WS_02,001,2025-02-02_10h31.21.143,empathy_intonation_perc,2024.1.4,MacIntel,58.82352941,,,,,,,,,,,,,,53,punta,,,,,,302.576,303.692,1,0,0.579,,0,73,73,52,1,non_cognate,1,REAL,FALSA
,,,,,,,,,WS_02,001,2025-02-02_10h31.21.143,empathy_intonation_perc,2024.1.4,MacIntel,58.82352941,,,,,,,,,,,,,,128,pelí,,,,,,303.692,305.159,0,1,0.952,,0,74,74,127,1,pseudoword,0,REAL,FALSA
,,,,,,,,,WS_02,001,2025-02-02_10h31.21.143,empathy_intonation_perc,2024.1.4,MacIntel,58.82352941,,,,,,,,,,,,,,51,listo,,,,,,305.159,306.692,1,0,0.998,,0,75,75,50,1,non_cognate,1,REAL,FALSA
,,,,,,,,,WS_02,001,2025-02-02_10h31.21.143,empathy_intonation_perc,2024.1.4,MacIntel,58.82352941,,,,,,,,,,,,,,145,rúo,,,,,,306.693,307.959,0,1,0.728,,0,76,76,144,1,pseudoword,0,REAL,FALSA
,,,,,,,,,WS_02,001,2025-02-02_10h31.21.143,empathy_intonation_perc,2024.1.4,MacIntel,58.82352941,,,,,,,,,,,,,,70,ánimo,,,,,,307.959,309.059,1,0,0.561,,0,77,77,69,1,non_cognate,1,REAL,FALSA
,,,,,,,,,WS_02,001,2025-02-02_10h31.21.143,empathy_intonation_perc,2024.1.4,MacIntel,58.82352941,,,,,,,,,,,,,,166,anfia,,,,,,309.059,310.392,0,1,0.793,,0,78,78,165,1,pseudoword,0,REAL,FALSA
,,,,,,,,,WS_02,001,2025-02-02_10h31.21.143,empathy_intonation_perc,2024.1.4,MacIntel,58.82352941,,,,,,,,,,,,,,41,pasta,,,,,,310.392,311.609,1,0,0.693,,0,79,79,40,1,two_way_cognate,1,REAL,FALSA
,,,,,,,,,WS_02,001,2025-02-02_10h31.21.143,empathy_intonation_perc,2024.1.4,MacIntel,58.82352941,,,,,,,,,,,,,,19,mafia,,,,,,311.609,312.775,1,0,0.633,,0,80,80,18,1,three_way_cognate,1,REAL,FALSA
,,,,,,,,,WS_02,001,2025-02-02_10h31.21.143,empathy_intonation_perc,2024.1.4,MacIntel,58.82352941,,,,,,,,,,,,,,37,torso,,,,,,312.776,314.009,1,0,0.694,,0,81,81,36,1,two_way_cognate,1,REAL,FALSA
,,,,,,,,,WS_02,001,2025-02-02_10h31.21.143,empathy_intonation_perc,2024.1.4,MacIntel,58.82352941,,,,,,,,,,,,,,126,tobre,,,,,,314.009,315.309,0,1,0.762,,0,82,82,125,1,pseudoword,0,REAL,FALSA
,,,,,,,,,WS_02,001,2025-02-02_10h31.21.143,empathy_intonation_perc,2024.1.4,MacIntel,58.82352941,,,,,,,,,,,,,,108,jauda,,,,,,315.309,316.592,0,1,0.75,,0,83,83,107,1,pseudoword,0,REAL,FALSA
,,,,,,,,,WS_02,001,2025-02-02_10h31.21.143,empathy_intonation_perc,2024.1.4,MacIntel,58.82352941,,,,,,,,,,,,,,38,halo,,,,,,316.592,317.925,1,0,0.813,,0,84,84,37,1,two_way_cognate,1,REAL,FALSA
,,,,,,,,,WS_02,001,2025-02-02_10h31.21.143,empathy_intonation_perc,2024.1.4,MacIntel,58.82352941,,,,,,,,,,,,,,112,samón,,,,,,317.926,319.625,0,1,1.165,,0,85,85,111,1,pseudoword,0,REAL,FALSA
,,,,,,,,,WS_02,001,2025-02-02_10h31.21.143,empathy_intonation_perc,2024.1.4,MacIntel,58.82352941,,,,,,,,,,,,,,141,virios,,,,,,319.626,321.692,0,1,1.527,,0,86,86,140,1,pseudoword,0,REAL,FALSA
,,,,,,,,,WS_02,001,2025-02-02_10h31.21.143,empathy_intonation_perc,2024.1.4,MacIntel,58.82352941,,,,,,,,,,,,,,62,pegar,,,,,,321.692,323.008,1,0,0.801,,0,87,87,61,1,non_cognate,1,REAL,FALSA
,,,,,,,,,WS_02,001,2025-02-02_10h31.21.143,empathy_intonation_perc,2024.1.4,MacIntel,58.82352941,,,,,,,,,,,,,,174,pabea,,,,,,323.008,324.209,0,1,0.678,,0,88,88,173,1,pseudoword,0,REAL,FALSA
,,,,,,,,,WS_02,001,2025-02-02_10h31.21.143,empathy_intonation_perc,2024.1.4,MacIntel,58.82352941,,,,,,,,,,,,,,13,plan,,,,,,324.209,325.292,1,0,0.545,,0,89,89,12,1,three_way_cognate,1,REAL,FALSA
,,,,,,,,,WS_02,001,2025-02-02_10h31.21.143,empathy_intonation_perc,2024.1.4,MacIntel,58.82352941,,,,,,,,,,,,,,75,patada,,,,,,325.292,326.475,1,0,0.654,,0,90,90,74,1,non_cognate,1,REAL,FALSA
,,,,,,,,,WS_02,001,2025-02-02_10h31.21.143,empathy_intonation_perc,2024.1.4,MacIntel,58.82352941,,,,,,,,,,,,,,50,sierra,,,,,,326.476,327.608,1,0,0.599,,0,91,91,49,1,non_cognate,1,REAL,FALSA
,,,,,,,,,WS_02,001,2025-02-02_10h31.21.143,empathy_intonation_perc,2024.1.4,MacIntel,58.82352941,,,,,,,,,,,,,,28,ardor,,,,,,327.608,328.708,1,0,0.582,,0,92,92,27,1,two_way_cognate,1,REAL,FALSA
,,,,,,,,,WS_02,001,2025-02-02_10h31.21.143,empathy_intonation_perc,2024.1.4,MacIntel,58.82352941,,,,,,,,,,,,,,156,ozoso,,,,,,328.709,329.992,0,1,0.746,,0,93,93,155,1,pseudoword,0,REAL,FALSA
,,,,,,,,,WS_02,001,2025-02-02_10h31.21.143,empathy_intonation_perc,2024.1.4,MacIntel,58.82352941,,,,,,,,,,,,,,104,estulo,,,,,,329.992,331.175,0,1,0.664,,0,94,94,103,1,pseudoword,0,REAL,FALSA
,,,,,,,,,WS_02,001,2025-02-02_10h31.21.143,empathy_intonation_perc,2024.1.4,MacIntel,58.82352941,,,,,,,,,,,,,,140,chorde,,,,,,331.175,332.358,0,1,0.66,,0,95,95,139,1,pseudoword,0,REAL,FALSA
,,,,,,,,,WS_02,001,2025-02-02_10h31.21.143,empathy_intonation_perc,2024.1.4,MacIntel,58.82352941,,,,,,,,,,,,,,138,tator,,,,,,332.359,333.575,0,1,0.687,,0,96,96,137,1,pseudoword,0,REAL,FALSA
,,,,,,,,,WS_02,001,2025-02-02_10h31.21.143,empathy_intonation_perc,2024.1.4,MacIntel,58.82352941,,,,,,,,,,,,,,114,dibrea,,,,,,333.576,334.841,0,1,0.736,,0,97,97,113,1,pseudoword,0,REAL,FALSA
,,,,,,,,,WS_02,001,2025-02-02_10h31.21.143,empathy_intonation_perc,2024.1.4,MacIntel,58.82352941,,,,,,,,,,,,,,116,grigir,,,,,,334.842,336.375,0,1,1.018,,0,98,98,115,1,pseudoword,0,REAL,FALSA
,,,,,,,,,WS_02,001,2025-02-02_10h31.21.143,empathy_intonation_perc,2024.1.4,MacIntel,58.82352941,,,,,,,,,,,,,,120,mauja,,,,,,336.375,337.675,0,1,0.778,,0,99,99,119,1,pseudoword,0,REAL,FALSA
,,,,,,,,,WS_02,001,2025-02-02_10h31.21.143,empathy_intonation_perc,2024.1.4,MacIntel,58.82352941,,,,,,,,,,,,,,57,regalo,,,,,,337.676,338.675,1,0,0.468,,0,100,100,56,1,non_cognate,1,REAL,FALSA
,,,,,,,,,WS_02,001,2025-02-02_10h31.21.143,empathy_intonation_perc,2024.1.4,MacIntel,58.82352941,,,,,,,,,,,,,,11,golf,,,,,,338.676,339.758,1,0,0.546,,0,101,101,10,1,three_way_cognate,1,REAL,FALSA
,,,,,,,,,WS_02,001,2025-02-02_10h31.21.143,empathy_intonation_perc,2024.1.4,MacIntel,58.82352941,,,,,,,,,,,,,,55,maldad,,,,,,339.758,340.775,1,0,0.5,,0,102,102,54,1,non_cognate,1,REAL,FALSA
,,,,,,,,,WS_02,001,2025-02-02_10h31.21.143,empathy_intonation_perc,2024.1.4,MacIntel,58.82352941,,,,,,,,,,,,,,176,gripar,,,,,,340.776,341.875,1,0,0.562,,0,103,103,175,1,pseudoword,0,REAL,FALSA
,,,,,,,,,WS_02,001,2025-02-02_10h31.21.143,empathy_intonation_perc,2024.1.4,MacIntel,58.82352941,,,,,,,,,,,,,,124,lobe,,,,,,341.876,343.175,0,1,0.76,,0,104,104,123,1,pseudoword,0,REAL,FALSA
,,,,,,,,,WS_02,001,2025-02-02_10h31.21.143,empathy_intonation_perc,2024.1.4,MacIntel,58.82352941,,,,,,,,,,,,,,25,vigor,,,,,,343.176,344.508,1,0,0.796,,0,105,105,24,1,two_way_cognate,1,REAL,FALSA
,,,,,,,,,WS_02,001,2025-02-02_10h31.21.143,empathy_intonation_perc,2024.1.4,MacIntel,58.82352941,,,,,,,,,,,,,,110,densó,,,,,,344.509,347.642,0,1,2.594,,0,106,106,109,1,pseudoword,0,REAL,FALSA
,,,,,,,,,WS_02,001,2025-02-02_10h31.21.143,empathy_intonation_perc,2024.1.4,MacIntel,58.82352941,,,,,,,,,,,,,,148,gino,,,,,,347.642,348.791,0,1,0.619,,0,107,107,147,1,pseudoword,0,REAL,FALSA
,,,,,,,,,WS_02,001,2025-02-02_10h31.21.143,empathy_intonation_perc,2024.1.4,MacIntel,58.82352941,,,,,,,,,,,,,,63,hilo,,,,,,348.792,349.875,1,0,0.545,,0,108,108,62,1,non_cognate,1,REAL,FALSA
,,,,,,,,,WS_02,001,2025-02-02_10h31.21.143,empathy_intonation_perc,2024.1.4,MacIntel,58.82352941,,,,,,,,,,,,,,77,suave,,,,,,349.875,350.858,1,0,0.463,,0,109,109,76,1,non_cognate,1,REAL,FALSA
,,,,,,,,,WS_02,001,2025-02-02_10h31.21.143,empathy_intonation_perc,2024.1.4,MacIntel,58.82352941,,,,,,,,,,,,,,81,sacar,,,,,,350.859,351.825,1,0,0.437,,0,110,110,80,1,non_cognate,1,REAL,FALSA
,,,,,,,,,WS_02,001,2025-02-02_10h31.21.143,empathy_intonation_perc,2024.1.4,MacIntel,58.82352941,,,,,,,,,,,,,,91,equipo,,,,,,351.825,352.891,1,0,0.546,,0,111,111,90,1,non_cognate,1,REAL,FALSA
,,,,,,,,,WS_02,001,2025-02-02_10h31.21.143,empathy_intonation_perc,2024.1.4,MacIntel,58.82352941,,,,,,,,,,,,,,178,inichó,,,,,,352.892,354.358,0,1,0.936,,0,112,112,177,1,pseudoword,0,REAL,FALSA
,,,,,,,,,WS_02,001,2025-02-02_10h31.21.143,empathy_intonation_perc,2024.1.4,MacIntel,58.82352941,,,,,,,,,,,,,,102,coyo,,,,,,354.358,355.558,0,1,0.681,,0,113,113,101,1,pseudoword,0,REAL,FALSA
,,,,,,,,,WS_02,001,2025-02-02_10h31.21.143,empathy_intonation_perc,2024.1.4,MacIntel,58.82352941,,,,,,,,,,,,,,59,feo,,,,,,355.559,356.674,1,0,0.587,,0,114,114,58,1,non_cognate,1,REAL,FALSA
,,,,,,,,,WS_02,001,2025-02-02_10h31.21.143,empathy_intonation_perc,2024.1.4,MacIntel,58.82352941,,,,,,,,,,,,,,167,dobbo,,,,,,356.675,357.792,0,1,0.604,,0,115,115,166,1,pseudoword,0,REAL,FALSA
,,,,,,,,,WS_02,001,2025-02-02_10h31.21.143,empathy_intonation_perc,2024.1.4,MacIntel,58.82352941,,,,,,,,,,,,,,170,diabo,,,,,,357.792,359.175,0,1,0.845,,0,116,116,169,1,pseudoword,0,REAL,FALSA
,,,,,,,,,WS_02,001,2025-02-02_10h31.21.143,empathy_intonation_perc,2024.1.4,MacIntel,58.82352941,,,,,,,,,,,,,,163,llzan,,,,,,359.175,360.258,0,1,0.562,,0,117,117,162,1,pseudoword,0,REAL,FALSA
,,,,,,,,,WS_02,001,2025-02-02_10h31.21.143,empathy_intonation_perc,2024.1.4,MacIntel,58.82352941,,,,,,,,,,,,,,137,trugo,,,,,,360.258,361.408,0,1,0.629,,0,118,118,136,1,pseudoword,0,REAL,FALSA
,,,,,,,,,WS_02,001,2025-02-02_10h31.21.143,empathy_intonation_perc,2024.1.4,MacIntel,58.82352941,,,,,,,,,,,,,,143,hurcos,,,,,,361.409,362.575,0,1,0.639,,0,119,119,142,1,pseudoword,0,REAL,FALSA
,,,,,,,,,WS_02,001,2025-02-02_10h31.21.143,empathy_intonation_perc,2024.1.4,MacIntel,58.82352941,,,,,,,,,,,,,,109,laras,,,,,,362.575,363.442,0,1,0.344,,0,120,120,108,1,pseudoword,0,REAL,FALSA
,,,,,,,,,WS_02,001,2025-02-02_10h31.21.143,empathy_intonation_perc,2024.1.4,MacIntel,58.82352941,,,,,,,,,,,,,,87,muleta,,,,,,363.442,364.575,1,0,0.604,,0,121,121,86,1,non_cognate,1,REAL,FALSA
,,,,,,,,,WS_02,001,2025-02-02_10h31.21.143,empathy_intonation_perc,2024.1.4,MacIntel,58.82352941,,,,,,,,,,,,,,107,plago,,,,,,364.575,366.058,1,0,0.961,,0,122,122,106,1,pseudoword,0,REAL,FALSA
,,,,,,,,,WS_02,001,2025-02-02_10h31.21.143,empathy_intonation_perc,2024.1.4,MacIntel,58.82352941,,,,,,,,,,,,,,155,kugis,,,,,,366.059,367.391,0,1,0.799,,0,123,123,154,1,pseudoword,0,REAL,FALSA
,,,,,,,,,WS_02,001,2025-02-02_10h31.21.143,empathy_intonation_perc,2024.1.4,MacIntel,58.82352941,,,,,,,,,,,,,,184,huenos,,,,,,367.392,368.541,0,1,0.622,,0,124,124,183,1,pseudoword,0,REAL,FALSA
,,,,,,,,,WS_02,001,2025-02-02_10h31.21.143,empathy_intonation_perc,2024.1.4,MacIntel,58.82352941,,,,,,,,,,,,,,149,emén,,,,,,368.542,369.808,0,1,0.737,,0,125,125,148,1,pseudoword,0,REAL,FALSA
,,,,,,,,,WS_02,001,2025-02-02_10h31.21.143,empathy_intonation_perc,2024.1.4,MacIntel,58.82352941,,,,,,,,,,,,,,86,cuenco,,,,,,369.808,370.891,0,1,0.564,,0,126,126,85,1,non_cognate,1,REAL,FALSA
,,,,,,,,,WS_02,001,2025-02-02_10h31.21.143,empathy_intonation_perc,2024.1.4,MacIntel,58.82352941,,,,,,,,,,,,,,119,esís,,,,,,370.891,371.942,1,0,0.53,,0,127,127,118,1,pseudoword,0,REAL,FALSA
,,,,,,,,,WS_02,001,2025-02-02_10h31.21.143,empathy_intonation_perc,2024.1.4,MacIntel,58.82352941,,,,,,,,,,,,,,132,nocó,,,,,,371.942,376.325,0,1,3.855,,0,128,128,131,1,pseudoword,0,REAL,FALSA
,,,,,,,,,WS_02,001,2025-02-02_10h31.21.143,empathy_intonation_perc,2024.1.4,MacIntel,58.82352941,,,,,,,,,,,,,,24,retina,,,,,,376.325,377.458,1,0,0.603,,0,129,129,23,1,three_way_cognate,1,REAL,FALSA
,,,,,,,,,WS_02,001,2025-02-02_10h31.21.143,empathy_intonation_perc,2024.1.4,MacIntel,58.82352941,,,,,,,,,,,,,,130,dubo,,,,,,377.458,378.941,0,1,0.965,,0,130,130,129,1,pseudoword,0,REAL,FALSA
,,,,,,,,,WS_02,001,2025-02-02_10h31.21.143,empathy_intonation_perc,2024.1.4,MacIntel,58.82352941,,,,,,,,,,,,,,43,honor,,,,,,378.942,380.075,1,0,0.603,,0,131,131,42,1,two_way_cognate,1,REAL,FALSA
,,,,,,,,,WS_02,001,2025-02-02_10h31.21.143,empathy_intonation_perc,2024.1.4,MacIntel,58.82352941,,,,,,,,,,,,,,151,prías,,,,,,380.075,382.758,0,1,2.17,,0,132,132,150,1,pseudoword,0,REAL,FALSA
,,,,,,,,,WS_02,001,2025-02-02_10h31.21.143,empathy_intonation_perc,2024.1.4,MacIntel,58.82352941,,,,,,,,,,,,,,182,desaro,,,,,,382.758,385.092,0,1,1.801,,0,133,133,181,1,pseudoword,0,REAL,FALSA
,,,,,,,,,WS_02,001,2025-02-02_10h31.21.143,empathy_intonation_perc,2024.1.4,MacIntel,58.82352941,,,,,,,,,,,,,,84,aviso,,,,,,385.092,386.225,1,0,0.599,,0,134,134,83,1,non_cognate,1,REAL,FALSA
,,,,,,,,,WS_02,001,2025-02-02_10h31.21.143,empathy_intonation_perc,2024.1.4,MacIntel,58.82352941,,,,,,,,,,,,,,47,color,,,,,,386.225,387.241,1,0,0.487,,0,135,135,46,1,two_way_cognate,1,REAL,FALSA
,,,,,,,,,WS_02,001,2025-02-02_10h31.21.143,empathy_intonation_perc,2024.1.4,MacIntel,58.82352941,,,,,,,,,,,,,,181,gravés,,,,,,387.242,388.491,0,1,0.712,,0,136,136,180,1,pseudoword,0,REAL,FALSA
,,,,,,,,,WS_02,001,2025-02-02_10h31.21.143,empathy_intonation_perc,2024.1.4,MacIntel,58.82352941,,,,,,,,,,,,,,187,nomata,,,,,,388.492,390.108,0,1,1.077,,0,137,137,186,1,pseudoword,0,REAL,FALSA
,,,,,,,,,WS_02,001,2025-02-02_10h31.21.143,empathy_intonation_perc,2024.1.4,MacIntel,58.82352941,,,,,,,,,,,,,,142,parre,,,,,,390.108,391.375,0,1,0.743,,0,138,138,141,1,pseudoword,0,REAL,FALSA
,,,,,,,,,WS_02,001,2025-02-02_10h31.21.143,empathy_intonation_perc,2024.1.4,MacIntel,58.82352941,,,,,,,,,,,,,,150,cricó,,,,,,391.375,392.625,0,1,0.711,,0,139,139,149,1,pseudoword,0,REAL,FALSA
,,,,,,,,,WS_02,001,2025-02-02_10h31.21.143,empathy_intonation_perc,2024.1.4,MacIntel,58.82352941,,,,,,,,,,,,,,45,total,,,,,,392.625,393.674,1,0,0.52,,0,140,140,44,1,two_way_cognate,1,REAL,FALSA
,,,,,,,,,WS_02,001,2025-02-02_10h31.21.143,empathy_intonation_perc,2024.1.4,MacIntel,58.82352941,,,,,,,,,,,,,,21,hotel,,,,,,393.675,394.775,1,0,0.57,,0,141,141,20,1,three_way_cognate,1,REAL,FALSA
,,,,,,,,,WS_02,001,2025-02-02_10h31.21.143,empathy_intonation_perc,2024.1.4,MacIntel,58.82352941,,,,,,,,,,,,,,171,gotro,,,,,,394.775,396.258,0,1,0.945,,0,142,142,170,1,pseudoword,0,REAL,FALSA
,,,,,,,,,WS_02,001,2025-02-02_10h31.21.143,empathy_intonation_perc,2024.1.4,MacIntel,58.82352941,,,,,,,,,,,,,,54,tapón,,,,,,396.258,397.325,1,0,0.528,,0,143,143,53,1,non_cognate,1,REAL,FALSA
,,,,,,,,,WS_02,001,2025-02-02_10h31.21.143,empathy_intonation_perc,2024.1.4,MacIntel,58.82352941,,,,,,,,,,,,,,99,bugor,,,,,,397.326,398.525,0,1,0.67,,0,144,144,98,1,pseudoword,0,REAL,FALSA
,,,,,,,,,WS_02,001,2025-02-02_10h31.21.143,empathy_intonation_perc,2024.1.4,MacIntel,58.82352941,,,,,,,,,,,,,,139,sasos,,,,,,398.525,399.791,0,1,0.728,,0,145,145,138,1,pseudoword,0,REAL,FALSA
,,,,,,,,,WS_02,001,2025-02-02_10h31.21.143,empathy_intonation_perc,2024.1.4,MacIntel,58.82352941,,,,,,,,,,,,,,7,albino,,,,,,399.791,401.025,1,0,0.71,,0,146,146,6,1,three_way_cognate,1,REAL,FALSA
,,,,,,,,,WS_02,001,2025-02-02_10h31.21.143,empathy_intonation_perc,2024.1.4,MacIntel,58.82352941,,,,,,,,,,,,,,147,alla,,,,,,401.025,402.508,0,1,0.943,,0,147,147,146,1,pseudoword,0,REAL,FALSA
,,,,,,,,,WS_02,001,2025-02-02_10h31.21.143,empathy_intonation_perc,2024.1.4,MacIntel,58.82352941,,,,,,,,,,,,,,131,fuar,,,,,,402.508,411.441,0,1,8.41,,0,148,148,130,1,pseudoword,0,REAL,FALSA
,,,,,,,,,WS_02,001,2025-02-02_10h31.21.143,empathy_intonation_perc,2024.1.4,MacIntel,58.82352941,,,,,,,,,,,,,,29,clamor,,,,,,411.441,413.123,1,0,1.167,,0,149,149,28,1,two_way_cognate,1,REAL,FALSA
,,,,,,,,,WS_02,001,2025-02-02_10h31.21.143,empathy_intonation_perc,2024.1.4,MacIntel,58.82352941,,,,,,,,,,,,,,133,conso,,,,,,413.124,414.391,0,1,0.752,,0,150,150,132,1,pseudoword,0,REAL,FALSA
,,,,,,,,,WS_02,001,2025-02-02_10h31.21.143,empathy_intonation_perc,2024.1.4,MacIntel,58.82352941,,,,,,,,,,,,,,46,mortal,,,,,,414.392,416.291,1,0,1.358,,0,151,151,45,1,two_way_cognate,1,REAL,FALSA
,,,,,,,,,WS_02,001,2025-02-02_10h31.21.143,empathy_intonation_perc,2024.1.4,MacIntel,58.82352941,,,,,,,,,,,,,,101,losco,,,,,,416.292,417.641,0,1,0.812,,0,152,152,100,1,pseudoword,0,REAL,FALSA
,,,,,,,,,WS_02,001,2025-02-02_10h31.21.143,empathy_intonation_perc,2024.1.4,MacIntel,58.82352941,,,,,,,,,,,,,,3,disco,,,,,,417.642,418.841,1,0,0.665,,0,153,153,2,1,three_way_cognate,1,REAL,FALSA
,,,,,,,,,WS_02,001,2025-02-02_10h31.21.143,empathy_intonation_perc,2024.1.4,MacIntel,58.82352941,,,,,,,,,,,,,,188,amplir,,,,,,418.841,422.124,0,1,2.761,,0,154,154,187,1,pseudoword,0,REAL,FALSA
,,,,,,,,,WS_02,001,2025-02-02_10h31.21.143,empathy_intonation_perc,2024.1.4,MacIntel,58.82352941,,,,,,,,,,,,,,168,cobén,,,,,,422.125,423.441,0,1,0.786,,0,155,155,167,1,pseudoword,0,REAL,FALSA
,,,,,,,,,WS_02,001,2025-02-02_10h31.21.143,empathy_intonation_perc,2024.1.4,MacIntel,58.82352941,,,,,,,,,,,,,,106,diebro,,,,,,423.441,425.924,0,1,1.945,,0,156,156,105,1,pseudoword,0,REAL,FALSA
,,,,,,,,,WS_02,001,2025-02-02_10h31.21.143,empathy_intonation_perc,2024.1.4,MacIntel,58.82352941,,,,,,,,,,,,,,85,enorme,,,,,,425.924,427.108,1,0,0.669,,0,157,157,84,1,non_cognate,1,REAL,FALSA
,,,,,,,,,WS_02,001,2025-02-02_10h31.21.143,empathy_intonation_perc,2024.1.4,MacIntel,58.82352941,,,,,,,,,,,,,,94,forro,,,,,,427.108,429.558,1,0,1.929,,0,158,158,93,1,non_cognate,1,REAL,FALSA
,,,,,,,,,WS_02,001,2025-02-02_10h31.21.143,empathy_intonation_perc,2024.1.4,MacIntel,58.82352941,,,,,,,,,,,,,,74,ala,,,,,,429.558,433.191,1,0,3.093,,0,159,159,73,1,non_cognate,1,REAL,FALSA
,,,,,,,,,WS_02,001,2025-02-02_10h31.21.143,empathy_intonation_perc,2024.1.4,MacIntel,58.82352941,,,,,,,,,,,,,,49,teñir,,,,,,433.192,434.507,1,0,0.778,,0,160,160,48,1,non_cognate,1,REAL,FALSA
,,,,,,,,,WS_02,001,2025-02-02_10h31.21.143,empathy_intonation_perc,2024.1.4,MacIntel,58.82352941,,,,,,,,,,,,,,8,kilo,,,,,,434.508,435.674,1,0,0.636,,0,161,161,7,1,three_way_cognate,1,REAL,FALSA
,,,,,,,,,WS_02,001,2025-02-02_10h31.21.143,empathy_intonation_perc,2024.1.4,MacIntel,58.82352941,,,,,,,,,,,,,,93,tapa,,,,,,435.675,436.841,1,0,0.629,,0,162,162,92,1,non_cognate,1,REAL,FALSA
,,,,,,,,,WS_02,001,2025-02-02_10h31.21.143,empathy_intonation_perc,2024.1.4,MacIntel,58.82352941,,,,,,,,,,,,,,42,rumor,,,,,,436.841,437.907,1,0,0.55,,0,163,163,41,1,two_way_cognate,1,REAL,FALSA
,,,,,,,,,WS_02,001,2025-02-02_10h31.21.143,empathy_intonation_perc,2024.1.4,MacIntel,58.82352941,,,,,,,,,,,,,,39,casual,,,,,,437.908,439.024,1,0,0.581,,0,164,164,38,1,two_way_cognate,1,REAL,FALSA
,,,,,,,,,WS_02,001,2025-02-02_10h31.21.143,empathy_intonation_perc,2024.1.4,MacIntel,58.82352941,,,,,,,,,,,,,,20,trauma,,,,,,439.024,440.123,1,0,0.581,,0,165,165,19,1,three_way_cognate,1,REAL,FALSA
,,,,,,,,,WS_02,001,2025-02-02_10h31.21.143,empathy_intonation_perc,2024.1.4,MacIntel,58.82352941,,,,,,,,,,,,,,159,trcia,,,,,,440.124,441.274,0,1,0.635,,0,166,166,158,1,pseudoword,0,REAL,FALSA
,,,,,,,,,WS_02,001,2025-02-02_10h31.21.143,empathy_intonation_perc,2024.1.4,MacIntel,58.82352941,,,,,,,,,,,,,,90,venado,,,,,,441.274,442.64,1,0,0.85,,0,167,167,89,1,non_cognate,1,REAL,FALSA
,,,,,,,,,WS_02,001,2025-02-02_10h31.21.143,empathy_intonation_perc,2024.1.4,MacIntel,58.82352941,,,,,,,,,,,,,,35,aurora,,,,,,442.641,443.741,1,0,0.561,,0,168,168,34,1,two_way_cognate,1,REAL,FALSA
,,,,,,,,,WS_02,001,2025-02-02_10h31.21.143,empathy_intonation_perc,2024.1.4,MacIntel,58.82352941,,,,,,,,,,,,,,14,aura,,,,,,443.741,445.074,1,0,0.804,,0,169,169,13,1,three_way_cognate,1,REAL,FALSA
,,,,,,,,,WS_02,001,2025-02-02_10h31.21.143,empathy_intonation_perc,2024.1.4,MacIntel,58.82352941,,,,,,,,,,,,,,92,flecha,,,,,,445.074,446.191,1,0,0.595,,0,170,170,91,1,non_cognate,1,REAL,FALSA
,,,,,,,,,WS_02,001,2025-02-02_10h31.21.143,empathy_intonation_perc,2024.1.4,MacIntel,58.82352941,,,,,,,,,,,,,,160,fomeó,,,,,,446.191,447.408,0,1,0.695,,0,171,171,159,1,pseudoword,0,REAL,FALSA
,,,,,,,,,WS_02,001,2025-02-02_10h31.21.143,empathy_intonation_perc,2024.1.4,MacIntel,58.82352941,,,,,,,,,,,,,,157,seled,,,,,,447.408,448.541,0,1,0.598,,0,172,172,156,1,pseudoword,0,REAL,FALSA
,,,,,,,,,WS_02,001,2025-02-02_10h31.21.143,empathy_intonation_perc,2024.1.4,MacIntel,58.82352941,,,,,,,,,,,,,,162,cengo,,,,,,448.542,449.757,0,1,0.679,,0,173,173,161,1,pseudoword,0,REAL,FALSA
,,,,,,,,,WS_02,001,2025-02-02_10h31.21.143,empathy_intonation_perc,2024.1.4,MacIntel,58.82352941,,,,,,,,,,,,,,48,pelvis,,,,,,449.758,451.041,1,0,0.748,,0,174,174,47,1,two_way_cognate,1,REAL,FALSA
,,,,,,,,,WS_02,001,2025-02-02_10h31.21.143,empathy_intonation_perc,2024.1.4,MacIntel,58.82352941,,,,,,,,,,,,,,22,mango,,,,,,451.041,452.124,1,0,0.571,,0,175,175,21,1,three_way_cognate,1,REAL,FALSA
,,,,,,,,,WS_02,001,2025-02-02_10h31.21.143,empathy_intonation_perc,2024.1.4,MacIntel,58.82352941,,,,,,,,,,,,,,190,asumie,,,,,,452.125,453.341,0,1,0.676,,0,176,176,189,1,pseudoword,0,REAL,FALSA
,,,,,,,,,WS_02,001,2025-02-02_10h31.21.143,empathy_intonation_perc,2024.1.4,MacIntel,58.82352941,,,,,,,,,,,,,,64,rizado,,,,,,453.341,454.457,1,0,0.582,,0,177,177,63,1,non_cognate,1,REAL,FALSA
,,,,,,,,,WS_02,001,2025-02-02_10h31.21.143,empathy_intonation_perc,2024.1.4,MacIntel,58.82352941,,,,,,,,,,,,,,179,suelet,,,,,,454.458,455.691,0,1,0.695,,0,178,178,178,1,pseudoword,0,REAL,FALSA
,,,,,,,,,WS_02,001,2025-02-02_10h31.21.143,empathy_intonation_perc,2024.1.4,MacIntel,58.82352941,,,,,,,,,,,,,,103,vueras,,,,,,455.691,457.124,0,1,0.901,,0,179,179,102,1,pseudoword,0,REAL,FALSA
,,,,,,,,,WS_02,001,2025-02-02_10h31.21.143,empathy_intonation_perc,2024.1.4,MacIntel,58.82352941,,,,,,,,,,,,,,58,colcha,,,,,,457.124,458.257,1,0,0.614,,0,180,180,57,1,non_cognate,1,REAL,FALSA
,,,,,,,,,WS_02,001,2025-02-02_10h31.21.143,empathy_intonation_perc,2024.1.4,MacIntel,58.82352941,,,,,,,,,,,,,,100,épinas,,,,,,458.257,459.391,0,1,0.617,,0,181,181,99,1,pseudoword,0,REAL,FALSA
,,,,,,,,,WS_02,001,2025-02-02_10h31.21.143,empathy_intonation_perc,2024.1.4,MacIntel,58.82352941,,,,,,,,,,,,,,192,próces,,,,,,459.391,460.557,0,1,0.627,,0,182,182,191,1,pseudoword,0,REAL,FALSA
,,,,,,,,,WS_02,001,2025-02-02_10h31.21.143,empathy_intonation_perc,2024.1.4,MacIntel,58.82352941,,,,,,,,,,,,,,1,moral,,,,,,460.558,461.691,1,0,0.595,,0,183,183,0,1,three_way_cognate,1,REAL,FALSA
,,,,,,,,,WS_02,001,2025-02-02_10h31.21.143,empathy_intonation_perc,2024.1.4,MacIntel,58.82352941,,,,,,,,,,,,,,5,extra,,,,,,461.691,462.757,1,0,0.537,,0,184,184,4,1,three_way_cognate,1,REAL,FALSA
,,,,,,,,,WS_02,001,2025-02-02_10h31.21.143,empathy_intonation_perc,2024.1.4,MacIntel,58.82352941,,,,,,,,,,,,,,76,chocar,,,,,,462.758,463.841,1,0,0.545,,0,185,185,75,1,non_cognate,1,REAL,FALSA
,,,,,,,,,WS_02,001,2025-02-02_10h31.21.143,empathy_intonation_perc,2024.1.4,MacIntel,58.82352941,,,,,,,,,,,,,,79,suelo,,,,,,463.841,464.824,1,0,0.462,,0,186,186,78,1,non_cognate,1,REAL,FALSA
,,,,,,,,,WS_02,001,2025-02-02_10h31.21.143,empathy_intonation_perc,2024.1.4,MacIntel,58.82352941,,,,,,,,,,,,,,118,bará,,,,,,464.824,465.94,0,1,0.605,,0,187,187,117,1,pseudoword,0,REAL,FALSA
,,,,,,,,,WS_02,001,2025-02-02_10h31.21.143,empathy_intonation_perc,2024.1.4,MacIntel,58.82352941,,,,,,,,,,,,,,146,gió,,,,,,465.94,467.04,0,1,0.578,,0,188,188,145,1,pseudoword,0,REAL,FALSA
,,,,,,,,,WS_02,001,2025-02-02_10h31.21.143,empathy_intonation_perc,2024.1.4,MacIntel,58.82352941,,,,,,,,,,,,,,2,tumor,,,,,,467.041,468.157,1,0,0.579,,0,189,189,1,1,three_way_cognate,1,REAL,FALSA
,,,,,,,,,WS_02,001,2025-02-02_10h31.21.143,empathy_intonation_perc,2024.1.4,MacIntel,58.82352941,,,,,,,,,,,,,,97,nocita,,,,,,468.158,469.357,0,1,0.664,,0,190,190,96,1,pseudoword,0,REAL,FALSA
,,,,,,,,,WS_02,001,2025-02-02_10h31.21.143,empathy_intonation_perc,2024.1.4,MacIntel,58.82352941,,,,,,,,,,,,,,61,aduana,,,,,,469.358,470.607,1,0,0.713,,0,191,191,60,1,non_cognate,1,REAL,FALSA
